AccX,AccY,AccZ,SampleRate
3.1352310180664062,3.0201330184936523,3.3481125831604004,0
2.7885212898254395,2.8848190307617188,3.161296844482422,0.01
2.246964454650879,2.741705894470215,2.8801965713500977,0.02
1.6173009872436523,2.82736873626709,2.5804519653320312,0.03
0.9510002732276917,3.1031055450439453,2.2776761054992676,0.04
0.1432558298110962,3.317599296569824,2.1073431968688965,0.05
-0.40379035472869873,3.382561683654785,1.9490933418273926,0.060000000000000005
-0.6677899360656738,3.30792236328125,1.7469717264175415,0.07
-0.684264063835144,3.089158058166504,1.571509838104248,0.08
-0.39115381240844727,2.800604820251465,1.4383171796798706,0.09
0.3568766713142395,2.490152359008789,1.3197895288467407,0.09999999999999999
1.0395071506500244,2.026278495788574,1.207393765449524,0.10999999999999999
1.5817210674285889,1.633829116821289,1.0473809242248535,0.11999999999999998
1.9856668710708618,1.2961616516113281,0.8921951055526733,0.12999999999999998
2.481861114501953,0.7507867813110352,0.5075006484985352,0.13999999999999999
2.529247760772705,0.09413623809814453,-0.21051025390625,0.15
2.1462368965148926,-0.8069601058959961,-1.016965627670288,0.16
1.4793660640716553,-1.6218061447143555,-1.705683946609497,0.17
0.6696358919143677,-2.1657981872558594,-2.0754284858703613,0.18000000000000002
-0.040082693099975586,-2.206820487976074,-2.3215277194976807,0.19000000000000003
-0.5941441059112549,-1.386763572692871,-2.6038920879364014,0.20000000000000004
-0.935809850692749,-0.05571746826171875,-3.0042552947998047,0.21000000000000005
-1.0892019271850586,1.2598276138305664,-3.177703857421875,0.22000000000000006
-1.1033192873001099,2.1129045486450195,-3.1770617961883545,0.23000000000000007
-0.8677867650985718,2.6377954483032227,-3.136896848678589,0.24000000000000007
-0.7117918729782104,2.722349166870117,-3.0917558670043945,0.25000000000000006
-0.5993043184280396,2.7637500762939453,-3.0839157104492188,0.26000000000000006
-0.5677424669265747,2.97451114654541,-3.041210174560547,0.2700000000000001
-0.972529411315918,3.3803443908691406,-2.829699993133545,0.2800000000000001
-1.4474632740020752,3.892298698425293,-2.475125789642334,0.2900000000000001
-2.3276214599609375,4.875485420227051,-1.981536626815796,0.3000000000000001
-3.670985221862793,5.920032501220703,-1.3104000091552734,0.3100000000000001
-4.86390495300293,6.607254981994629,-0.5522568225860596,0.3200000000000001
-5.3511433601379395,6.782280921936035,-0.1353391408920288,0.3300000000000001
-5.214747428894043,6.503498077392578,-0.10386812686920166,0.34000000000000014
-5.142875671386719,6.0180206298828125,-0.2372279167175293,0.35000000000000014
-5.173405647277832,5.453076362609863,-0.32008838653564453,0.36000000000000015
-5.210644245147705,4.878470420837402,-0.4317202568054199,0.37000000000000016
-5.237866401672363,4.194268226623535,-0.5600740909576416,0.38000000000000017
-5.168438911437988,3.4988622665405273,-0.4909477233886719,0.3900000000000002
-4.852917671203613,2.9882001876831055,-0.3078763484954834,0.4000000000000002
-4.111868858337402,2.573397636413574,-0.07909822463989258,0.4100000000000002
-3.372798204421997,2.3567094802856445,-0.07049155235290527,0.4200000000000002
-2.7522783279418945,2.172234535217285,-0.207625150680542,0.4300000000000002
-1.8395946025848389,1.9287748336791992,-0.7302646636962891,0.4400000000000002
-1.3803138732910156,1.771988868713379,-2.138629913330078,0.45000000000000023
-0.39376604557037354,2.0427589416503906,-3.919938325881958,0.46000000000000024
0.16601261496543884,2.3131704330444336,-7.0284223556518555,0.47000000000000025
1.4128477573394775,1.7962265014648438,-8.887325286865234,0.48000000000000026
1.5269100666046143,0.9386930465698242,-9.606622695922852,0.49000000000000027
0.9503552913665771,0.21667957305908203,-9.377527236938477,0.5000000000000002
0.6122801899909973,-0.32398509979248047,-8.528907775878906,0.5100000000000002
1.4563018083572388,-0.44647884368896484,-7.663100242614746,0.5200000000000002
2.274254083633423,0.0852518081665039,-6.541586875915527,0.5300000000000002
2.87115478515625,-0.36742305755615234,-5.423954963684082,0.5400000000000003
3.2527153491973877,-0.945897102355957,-4.520378589630127,0.5500000000000003
3.5612478256225586,-1.4723405838012695,-3.9630446434020996,0.5600000000000003
3.3135547637939453,-1.7472200393676758,-4.059369087219238,0.5700000000000003
2.8214821815490723,-2.0718154907226562,-5.023797988891602,0.5800000000000003
2.1955630779266357,-2.677509307861328,-5.717771053314209,0.5900000000000003
1.6145966053009033,-3.5206661224365234,-6.321128845214844,0.6000000000000003
0.9963473081588745,-4.350274085998535,-6.31978702545166,0.6100000000000003
0.8167136907577515,-5.059803009033203,-5.749339580535889,0.6200000000000003
0.8615423440933228,-5.536312103271484,-4.854985237121582,0.6300000000000003
0.7289751768112183,-5.600133419036865,-4.039397716522217,0.6400000000000003
0.6407118439674377,-5.484821319580078,-3.4520411491394043,0.6500000000000004
0.5586766600608826,-5.188807487487793,-3.0993845462799072,0.6600000000000004
0.3779768943786621,-4.991886138916016,-3.1226725578308105,0.6700000000000004
0.47731292247772217,-4.852395057678223,-3.6733436584472656,0.6800000000000004
-0.09347236156463623,-4.622433662414551,-3.8708672523498535,0.6900000000000004
-0.87436842918396,-4.65986442565918,-3.013927698135376,0.7000000000000004
-1.2166152000427246,-4.780664443969727,-2.81496000289917,0.7100000000000004
-1.4098248481750488,-4.934388160705566,-2.835739850997925,0.7200000000000004
-1.6146018505096436,-5.091944694519043,-2.9713966846466064,0.7300000000000004
-1.5491032600402832,-5.319571018218994,-3.2252089977264404,0.7400000000000004
-1.5701230764389038,-5.444469451904297,-3.4855618476867676,0.7500000000000004
-1.649340033531189,-5.507090091705322,-3.6024718284606934,0.7600000000000005
-1.7484506368637085,-5.588393688201904,-3.7464044094085693,0.7700000000000005
-1.7832924127578735,-5.680922031402588,-3.838589668273926,0.7800000000000005
-1.7299461364746094,-5.808434009552002,-3.77394700050354,0.7900000000000005
-1.696071743965149,-5.9539384841918945,-3.679521322250366,0.8000000000000005
-1.5810965299606323,-6.122109413146973,-3.4882941246032715,0.8100000000000005
-1.4090360403060913,-6.238790988922119,-3.114154577255249,0.8200000000000005
-1.261945366859436,-6.291836738586426,-2.758530616760254,0.8300000000000005
-1.1668442487716675,-6.261987686157227,-2.3284902572631836,0.8400000000000005
-1.097992181777954,-6.058424949645996,-1.843357801437378,0.8500000000000005
-1.2184679508209229,-5.736423015594482,-1.3818683624267578,0.8600000000000005
-1.257584810256958,-5.234133720397949,-0.8118031024932861,0.8700000000000006
-1.2958669662475586,-4.463088035583496,-0.36977100372314453,0.8800000000000006
-1.3852678537368774,-3.5232038497924805,0.017579078674316406,0.8900000000000006
-1.5779414176940918,-2.3035993576049805,0.4346151351928711,0.9000000000000006
-1.6960742473602295,-0.7244806289672852,0.8886361122131348,0.9100000000000006
-1.7815674543380737,1.2154836654663086,1.419041633605957,0.9200000000000006
-1.6365824937820435,3.363165855407715,2.0413498878479004,0.9300000000000006
-1.3312548398971558,5.620883941650391,2.8797240257263184,0.9400000000000006
-1.0753588676452637,7.896042823791504,4.10371208190918,0.9500000000000006
-1.3734785318374634,9.658431053161621,5.229881763458252,0.9600000000000006
-2.322880744934082,10.355278968811035,5.456474304199219,0.9700000000000006
-3.1103920936584473,10.033890724182129,5.395983695983887,0.9800000000000006
-3.6592698097229004,9.57545280456543,5.679194450378418,0.9900000000000007
-3.905263900756836,9.159462928771973,5.795546531677246,1.0000000000000007
-3.92012882232666,8.51555347442627,5.809703350067139,1.0100000000000007
-3.709468364715576,7.530878067016602,5.818697452545166,1.0200000000000007
-3.348906993865967,6.520195960998535,5.736069679260254,1.0300000000000007
-2.875591278076172,5.446203231811523,5.514102935791016,1.0400000000000007
-2.3187453746795654,4.202460289001465,5.159970760345459,1.0500000000000007
-1.753559947013855,2.9604015350341797,4.646904468536377,1.0600000000000007
-1.170042634010315,1.8511734008789062,4.155204772949219,1.0700000000000007
-0.7421869039535522,0.9317998886108398,3.9338021278381348,1.0800000000000007
-0.4294149875640869,0.12529754638671875,3.9299068450927734,1.0900000000000007
-0.14828145503997803,-0.7122917175292969,3.845024824142456,1.1000000000000008
0.1855607032775879,-1.5957212448120117,3.4033398628234863,1.1100000000000008
0.7812849283218384,-2.7306857109069824,2.692488431930542,1.1200000000000008
1.245620846748352,-3.860898017883301,1.9665780067443848,1.1300000000000008
1.3097001314163208,-4.7544050216674805,1.5627963542938232,1.1400000000000008
0.7690288424491882,-4.9696550369262695,1.4287760257720947,1.1500000000000008
0.07702398300170898,-4.328887462615967,1.3095273971557617,1.1600000000000008
-0.3979804515838623,-3.2810544967651367,1.1227288246154785,1.1700000000000008
-0.5065934658050537,-2.138279438018799,0.9416244029998779,1.1800000000000008
-0.5280731916427612,-1.1310782432556152,0.7105379104614258,1.1900000000000008
-0.44747602939605713,-0.2101898193359375,0.40325117111206055,1.2000000000000008
-0.2561068534851074,0.6096696853637695,-0.05745553970336914,1.2100000000000009
-0.052559733390808105,1.1767702102661133,-0.8397047519683838,1.2200000000000009
-0.41620326042175293,1.935922622680664,-1.906308889389038,1.2300000000000009
-0.721346378326416,2.839541435241699,-3.14597487449646,1.2400000000000009
-1.3380521535873413,4.107848167419434,-4.398195266723633,1.2500000000000009
-2.0525946617126465,5.536643981933594,-5.4387054443359375,1.260000000000001
-2.9159889221191406,6.86607551574707,-6.425890922546387,1.270000000000001
-3.76578950881958,7.878782272338867,-7.178276062011719,1.280000000000001
-4.605989456176758,8.326237678527832,-7.394280433654785,1.290000000000001
-5.166121006011963,7.919885635375977,-7.158212661743164,1.300000000000001
-5.3331098556518555,6.880502700805664,-6.902161598205566,1.310000000000001
-4.961688041687012,5.001476287841797,-5.898245811462402,1.320000000000001
-4.148388385772705,3.2036867141723633,-4.310761451721191,1.330000000000001
-4.15430212020874,0.992365837097168,-3.937077045440674,1.340000000000001
-4.150651931762695,-0.9680547714233398,-4.522758483886719,1.350000000000001
-3.911970615386963,-2.5700511932373047,-5.548789978027344,1.360000000000001
-3.4179139137268066,-3.6583032608032227,-6.150509834289551,1.370000000000001
-2.6449532508850098,-4.376838207244873,-6.312012195587158,1.380000000000001
-1.8155884742736816,-4.726193904876709,-6.028733253479004,1.390000000000001
-1.1240172386169434,-4.745128631591797,-5.5998382568359375,1.400000000000001
-0.652965247631073,-4.498410701751709,-5.2078423500061035,1.410000000000001
-0.18717873096466064,-4.086526393890381,-4.887205123901367,1.420000000000001
0.3973863124847412,-3.5596394538879395,-4.4285736083984375,1.430000000000001
1.1032365560531616,-2.9845995903015137,-3.9263644218444824,1.440000000000001
1.6604063510894775,-2.2274017333984375,-3.486764907836914,1.450000000000001
2.3130338191986084,-1.4265785217285156,-3.191812515258789,1.460000000000001
3.048597812652588,-0.39040470123291016,-3.276369094848633,1.470000000000001
3.3498311042785645,0.498992919921875,-3.7582945823669434,1.480000000000001
3.3656210899353027,1.1327686309814453,-4.491328239440918,1.490000000000001
3.1571054458618164,1.6580181121826172,-5.444339752197266,1.500000000000001
2.9350576400756836,2.0635604858398438,-6.253708839416504,1.5100000000000011
2.443228244781494,2.368783950805664,-6.928593158721924,1.5200000000000011
1.9138774871826172,2.6235218048095703,-7.189266204833984,1.5300000000000011
1.3499741554260254,2.9922056198120117,-7.209766864776611,1.5400000000000011
0.7330471873283386,3.3452024459838867,-7.1480889320373535,1.5500000000000012
0.2003641128540039,3.390456199645996,-6.773980140686035,1.5600000000000012
0.293715238571167,2.979403495788574,-5.073263168334961,1.5700000000000012
1.4205694198608398,2.353428840637207,-1.9077361822128296,1.5800000000000012
2.3741507530212402,1.5723590850830078,1.195598840713501,1.5900000000000012
1.9923186302185059,0.5052022933959961,2.760192394256592,1.6000000000000012
1.2432299852371216,0.027973175048828125,2.491875648498535,1.6100000000000012
0.5286051034927368,-0.1656055450439453,1.8223633766174316,1.6200000000000012
0.20186662673950195,-0.5393390655517578,1.3297889232635498,1.6300000000000012
0.014471650123596191,-1.0211915969848633,1.089829683303833,1.6400000000000012
-0.2799093723297119,-1.4774188995361328,1.0090985298156738,1.6500000000000012
-0.17805254459381104,-1.925058364868164,0.9603753089904785,1.6600000000000013
0.3386300802230835,-2.3688912391662598,0.8325966000556946,1.6700000000000013
0.3022109866142273,-2.414599895477295,0.5675582885742188,1.6800000000000013
-0.07182252407073975,-2.1610169410705566,0.29643505811691284,1.6900000000000013
-0.13728880882263184,-1.931424617767334,0.10004553198814392,1.7000000000000013
-0.1954842209815979,-1.7186803817749023,-0.024500608444213867,1.7100000000000013
-0.08835071325302124,-1.518000602722168,-0.09491418302059174,1.7200000000000013
-0.31372731924057007,-1.298344612121582,-0.18392343819141388,1.7300000000000013
-0.14161330461502075,-1.1457347869873047,-0.2501303553581238,1.7400000000000013
0.1847173571586609,-1.205718994140625,-0.1938740313053131,1.7500000000000013
0.24469530582427979,-1.2579460144042969,-0.017279595136642456,1.7600000000000013
-0.08629041910171509,-1.0323400497436523,0.5527677536010742,1.7700000000000014
-0.047953665256500244,-1.064866065979004,1.3080816268920898,1.7800000000000014
0.5386852025985718,-1.429234504699707,1.855728268623352,1.7900000000000014
1.066239356994629,-1.5965471267700195,2.070509195327759,1.8000000000000014
0.9416254162788391,-1.5192928314208984,1.6382009983062744,1.8100000000000014
0.7943273782730103,-1.391526222229004,1.0878735780715942,1.8200000000000014
0.8784592151641846,-1.1224699020385742,0.9277364015579224,1.8300000000000014
0.9693652987480164,-0.8868246078491211,1.1125407218933105,1.8400000000000014
0.9808536171913147,-0.7108526229858398,1.269532561302185,1.8500000000000014
1.0250496864318848,-0.7044734954833984,1.2077691555023193,1.8600000000000014
1.1806424856185913,-0.783787727355957,1.1237579584121704,1.8700000000000014
1.310758113861084,-0.8243789672851562,1.039625883102417,1.8800000000000014
1.4363573789596558,-0.8430452346801758,0.9251048564910889,1.8900000000000015
1.5188159942626953,-0.8063516616821289,0.6968915462493896,1.9000000000000015
1.5200819969177246,-0.7358427047729492,0.46781736612319946,1.9100000000000015
1.4643648862838745,-0.7199506759643555,0.3506011664867401,1.9200000000000015
1.3734116554260254,-0.6724681854248047,0.27122217416763306,1.9300000000000015
1.2117482423782349,-0.7415456771850586,0.4022365212440491,1.9400000000000015
1.0155298709869385,-0.7380247116088867,0.6507669687271118,1.9500000000000015
0.7776902914047241,-0.6810512542724609,0.9307568669319153,1.9600000000000015
0.5677343606948853,-0.5061016082763672,1.2729588747024536,1.9700000000000015
0.43366384506225586,-0.30174732208251953,1.6315414905548096,1.9800000000000015
0.35652244091033936,-0.08235454559326172,1.9724202156066895,1.9900000000000015
0.2668861746788025,0.1233205795288086,2.223158836364746,2.0000000000000013
0.22903883457183838,0.26973533630371094,2.4115328788757324,2.010000000000001
0.3984437584877014,0.4333620071411133,2.5438232421875,2.020000000000001
0.5931691527366638,0.6881580352783203,2.6551289558410645,2.0300000000000007
0.7725010514259338,0.8354167938232422,2.797323226928711,2.0400000000000005
1.0156738758087158,0.97320556640625,2.9171557426452637,2.0500000000000003
1.244120717048645,1.156437873840332,3.143200397491455,2.06
1.1913626194000244,1.556905746459961,3.3147029876708984,2.07
1.1241236925125122,1.9349136352539062,3.4194583892822266,2.0799999999999996
1.2210063934326172,2.2185707092285156,3.443079948425293,2.0899999999999994
1.5223685503005981,2.3457136154174805,3.3639228343963623,2.099999999999999
1.9230319261550903,2.526813507080078,3.124232053756714,2.109999999999999
2.380016565322876,2.6277637481689453,2.816957473754883,2.1199999999999988
2.6778738498687744,2.8015222549438477,2.515967845916748,2.1299999999999986
2.9885904788970947,3.09566593170166,2.2402901649475098,2.1399999999999983
3.2349395751953125,3.378427505493164,2.0068671703338623,2.149999999999998
3.4496774673461914,3.573312759399414,1.871402621269226,2.159999999999998
3.576944589614868,3.721133232116699,1.8467823266983032,2.1699999999999977
3.831580638885498,3.6882553100585938,1.9126722812652588,2.1799999999999975
4.129828453063965,3.537332534790039,2.0629501342773438,2.1899999999999973
4.278130531311035,3.35721492767334,2.300893545150757,2.199999999999997
4.145208358764648,3.1648178100585938,2.5146970748901367,2.209999999999997
3.726409912109375,3.034191131591797,2.6085753440856934,2.2199999999999966
3.4387855529785156,3.00832462310791,2.637354850769043,2.2299999999999964
3.2257840633392334,3.1779909133911133,2.6221604347229004,2.239999999999996
2.808371067047119,3.507105827331543,2.543490409851074,2.249999999999996
2.184363603591919,3.95468807220459,2.386552333831787,2.259999999999996
1.4060240983963013,4.467809677124023,2.23712420463562,2.2699999999999956
0.5209768414497375,4.907544136047363,2.1400146484375,2.2799999999999954
-0.17148935794830322,5.139989852905273,2.067965030670166,2.289999999999995
-0.41900634765625,5.110538482666016,2.0344460010528564,2.299999999999995
-0.6182246208190918,4.809887886047363,2.011838912963867,2.3099999999999947
-0.5131559371948242,4.2190093994140625,1.929013729095459,2.3199999999999945
-0.14667391777038574,3.4335432052612305,1.7472912073135376,2.3299999999999943
0.3687537908554077,2.675626754760742,1.4728693962097168,2.339999999999994
0.8035109639167786,1.9760637283325195,1.1245355606079102,2.349999999999994
1.0639677047729492,1.2966604232788086,0.6941733360290527,2.3599999999999937
1.1993992328643799,0.6904315948486328,0.13232696056365967,2.3699999999999934
1.2336227893829346,-0.3725900650024414,-0.2498326301574707,2.3799999999999932
1.0422570705413818,-1.030299186706543,-0.8498702049255371,2.389999999999993
0.509658694267273,-1.6008176803588867,-1.3394832611083984,2.399999999999993
0.22049415111541748,-2.179508686065674,-1.609242558479309,2.4099999999999926
0.033188819885253906,-2.5192484855651855,-1.5110303163528442,2.4199999999999924
-0.3291635513305664,-2.466160774230957,-1.0256729125976562,2.429999999999992
-0.5411572456359863,-1.8045215606689453,-0.7741776704788208,2.439999999999992
-0.8987247943878174,-0.5416336059570312,-1.0314971208572388,2.4499999999999917
-1.4553714990615845,1.0635595321655273,-1.0198609828948975,2.4599999999999915
-1.716395616531372,2.2831954956054688,-0.8695164918899536,2.4699999999999913
-1.4935853481292725,2.944647789001465,-0.9960163235664368,2.479999999999991
-0.6155576705932617,3.1965112686157227,-1.538341999053955,2.489999999999991
-0.21462702751159668,3.498244285583496,-1.8873040676116943,2.4999999999999907
-0.4489046335220337,3.894822120666504,-2.078310012817383,2.5099999999999905
-1.062802791595459,4.256631851196289,-1.9950838088989258,2.5199999999999902
-1.8101270198822021,4.631250381469727,-1.750732421875,2.52999999999999
-2.450711727142334,4.956394195556641,-1.3791300058364868,2.53999999999999
-2.9550769329071045,5.294186592102051,-0.969022274017334,2.5499999999999896
-3.1655430793762207,5.470022201538086,-0.6696127653121948,2.5599999999999894
-3.1376285552978516,5.457927703857422,-0.5063432455062866,2.569999999999989
-2.9939346313476562,5.236813545227051,-0.45917046070098877,2.579999999999989
-3.0319173336029053,5.024656295776367,-0.3880445957183838,2.5899999999999888
-3.1400938034057617,4.725872039794922,-0.2984952926635742,2.5999999999999885
-3.422166347503662,4.419447898864746,-0.1714155673980713,2.6099999999999883
-3.6228747367858887,4.035787582397461,0.06600522994995117,2.619999999999988
-3.637343168258667,3.6009321212768555,0.2310318946838379,2.629999999999988
-3.2952680587768555,3.2940587997436523,0.12395262718200684,2.6399999999999877
-2.913475513458252,2.9330692291259766,-0.36141490936279297,2.6499999999999875
-2.357985734939575,2.5894508361816406,-1.4432423114776611,2.6599999999999873
-1.7004151344299316,2.542795181274414,-2.929104804992676,2.669999999999987
-0.8300477266311646,2.2197961807250977,-4.324146747589111,2.679999999999987
0.15300363302230835,1.7821073532104492,-5.6126909255981445,2.6899999999999866
0.5479653477668762,1.2049674987792969,-7.315232276916504,2.6999999999999864
1.409316897392273,0.740208625793457,-8.71243667602539,2.709999999999986
1.3297090530395508,0.3822011947631836,-9.022714614868164,2.719999999999986
0.9355717301368713,-0.18468570709228516,-8.7954683303833,2.7299999999999858
0.6564800143241882,-0.1659107208251953,-8.219327926635742,2.7399999999999856
0.8550531268119812,-0.24425125122070312,-6.34896183013916,2.7499999999999853
1.170156717300415,-0.37274932861328125,-4.11870813369751,2.759999999999985
1.8472135066986084,-0.5544910430908203,-2.713122606277466,2.769999999999985
2.150279998779297,-1.1361432075500488,-2.900477886199951,2.7799999999999847
2.9935359954833984,-1.0775599479675293,-3.766043186187744,2.7899999999999845
2.364020347595215,-0.9404716491699219,-4.108211040496826,2.7999999999999843
1.9908149242401123,-1.2127065658569336,-5.032623291015625,2.809999999999984
1.7610132694244385,-1.835392951965332,-5.976396083831787,2.819999999999984
1.4510383605957031,-2.554081439971924,-6.362109661102295,2.8299999999999836
1.3127357959747314,-3.253967761993408,-6.152283668518066,2.8399999999999834
1.1713238954544067,-3.978919506072998,-5.592922210693359,2.849999999999983
0.9513885974884033,-4.4529242515563965,-4.988504409790039,2.859999999999983
0.817233681678772,-4.7113142013549805,-4.2676191329956055,2.869999999999983
0.7444854974746704,-4.97299861907959,-3.7257189750671387,2.8799999999999826
0.649318516254425,-5.161686897277832,-3.6209774017333984,2.8899999999999824
0.6447718143463135,-5.150246620178223,-4.274360656738281,2.899999999999982
-0.17078208923339844,-5.205778121948242,-3.6177237033843994,2.909999999999982
-0.7812597751617432,-5.198241233825684,-2.9398443698883057,2.9199999999999817
-1.1458714008331299,-5.197727203369141,-2.5916078090667725,2.9299999999999815
-1.4847420454025269,-5.1376848220825195,-2.3212924003601074,2.9399999999999813
-1.5511829853057861,-5.372137069702148,-2.1815102100372314,2.949999999999981
-1.6631696224212646,-5.491493225097656,-2.2468478679656982,2.959999999999981
-1.609451413154602,-5.571767807006836,-2.4868085384368896,2.9699999999999807
-1.629102349281311,-5.669638156890869,-2.7659571170806885,2.9799999999999804
-1.6529076099395752,-5.772500991821289,-3.0684587955474854,2.9899999999999802
-1.6337308883666992,-5.83928108215332,-3.325686454772949,2.99999999999998
-1.6440256834030151,-5.821967124938965,-3.473581314086914,3.00999999999998
-1.5958118438720703,-5.847290992736816,-3.550724983215332,3.0199999999999796
-1.4580943584442139,-5.90313196182251,-3.514188289642334,3.0299999999999794
-1.3456265926361084,-5.901029586791992,-3.380539655685425,3.039999999999979
-1.234763741493225,-5.891378402709961,-3.05631422996521,3.049999999999979
-1.0902111530303955,-5.977128505706787,-2.653808116912842,3.0599999999999787
-0.9601373672485352,-6.045722007751465,-2.182504177093506,3.0699999999999785
-0.8830908536911011,-6.137690544128418,-1.6734681129455566,3.0799999999999783
-0.9261478185653687,-6.152311325073242,-1.167424201965332,3.089999999999978
-0.8860807418823242,-6.039271354675293,-0.6235508918762207,3.099999999999978
-0.8898400068283081,-5.731465816497803,-0.0968637466430664,3.1099999999999777
-0.891308069229126,-5.271597385406494,0.3025021553039551,3.1199999999999775
-0.941874623298645,-4.503462791442871,0.6648349761962891,3.1299999999999772
-1.1169681549072266,-3.373725414276123,0.9985251426696777,3.139999999999977
-1.3027960062026978,-1.9052915573120117,1.308711051940918,3.149999999999977
-1.4305156469345093,-0.25678062438964844,1.7019720077514648,3.1599999999999766
-1.3760122060775757,1.5143346786499023,2.0798017978668213,3.1699999999999764
-1.2445695400238037,3.6110963821411133,2.738051652908325,3.179999999999976
-1.030224323272705,5.7997941970825195,3.8244469165802,3.189999999999976
-1.1217485666275024,7.852431297302246,4.883301734924316,3.1999999999999758
-1.8138577938079834,9.376294136047363,5.385108470916748,3.2099999999999755
-2.7000691890716553,10.422115325927734,5.537930011749268,3.2199999999999753
-3.627777099609375,11.392189025878906,5.680049896240234,3.229999999999975
-4.183781147003174,11.980738639831543,5.730539321899414,3.239999999999975
-4.347708225250244,12.092569351196289,5.735840797424316,3.2499999999999747
-4.13826322555542,11.215523719787598,5.9829301834106445,3.2599999999999745
-3.445192813873291,9.405625343322754,6.5041961669921875,3.2699999999999743
-2.529672145843506,7.072809219360352,6.482252597808838,3.279999999999974
-1.651219129562378,4.788043975830078,5.930967330932617,3.289999999999974
-1.3095418214797974,2.962556838989258,5.227410793304443,3.2999999999999736
-1.0762041807174683,1.5220584869384766,4.718423843383789,3.3099999999999734
-0.7540116310119629,0.2243356704711914,4.455065727233887,3.319999999999973
-0.31394875049591064,-1.0821776390075684,4.166579246520996,3.329999999999973
0.1817159652709961,-2.551036834716797,3.7132861614227295,3.3399999999999728
0.49809980392456055,-3.9001903533935547,3.0863559246063232,3.3499999999999726
0.44102001190185547,-4.766562461853027,2.5540575981140137,3.3599999999999723
0.07830417156219482,-4.833104610443115,2.1269185543060303,3.369999999999972
-0.44225454330444336,-4.010331153869629,1.7346253395080566,3.379999999999972
-0.8038363456726074,-2.878401756286621,1.3163306713104248,3.3899999999999717
-0.9205200672149658,-1.569817066192627,0.8592331409454346,3.3999999999999715
-0.8879196643829346,-0.2122783660888672,0.16460180282592773,3.4099999999999713
-1.0308477878570557,0.8926153182983398,-0.849876880645752,3.419999999999971
-1.3510748147964478,1.7553815841674805,-2.034236431121826,3.429999999999971
-1.6701362133026123,2.79403018951416,-3.2241954803466797,3.4399999999999706
-1.8189023733139038,3.7499732971191406,-4.446198463439941,3.4499999999999704
-2.1775100231170654,4.9388628005981445,-5.687040328979492,3.45999999999997
-2.48262357711792,6.1491289138793945,-6.702375411987305,3.46999999999997
-2.7312512397766113,7.311989784240723,-7.5755615234375,3.47999999999997
-3.1242079734802246,7.980240821838379,-7.962504863739014,3.4899999999999696
-3.2466177940368652,8.072981834411621,-7.605721473693848,3.4999999999999694
-3.0420310497283936,7.449657440185547,-6.865446090698242,3.509999999999969
-2.8001554012298584,6.174710273742676,-6.3331217765808105,3.519999999999969
-2.746397018432617,4.105547904968262,-5.898567199707031,3.5299999999999687
-2.6155881881713867,1.9792861938476562,-5.206036567687988,3.5399999999999685
-2.6678946018218994,-0.09311389923095703,-5.334024429321289,3.5499999999999683
-2.615614175796509,-1.889686107635498,-5.704054832458496,3.559999999999968
-2.4244167804718018,-3.133223533630371,-5.876522064208984,3.569999999999968
-1.9260118007659912,-4.003342151641846,-5.912553787231445,3.5799999999999677
-1.511854887008667,-4.435445308685303,-5.837538719177246,3.5899999999999674
-1.094610333442688,-4.561286449432373,-5.652276515960693,3.5999999999999672
-0.8341814279556274,-4.529351711273193,-5.44340705871582,3.609999999999967
-0.251786470413208,-4.37324857711792,-5.086720943450928,3.619999999999967
0.5361300110816956,-3.973257541656494,-4.449092864990234,3.6299999999999666
1.5057603120803833,-3.3891749382019043,-3.7124502658843994,3.6399999999999664
2.34616756439209,-2.6522297859191895,-3.1485748291015625,3.649999999999966
2.8178811073303223,-1.673508644104004,-3.0596909523010254,3.659999999999966
3.116382122039795,-0.7965202331542969,-3.3544070720672607,3.6699999999999657
3.1474437713623047,0.049587249755859375,-3.958980083465576,3.6799999999999655
2.6780431270599365,0.6654672622680664,-4.911273002624512,3.6899999999999653
2.0456531047821045,0.8753747940063477,-5.73432731628418,3.699999999999965
1.766174554824829,0.967127799987793,-6.165525436401367,3.709999999999965
1.8479392528533936,1.2543315887451172,-6.4850945472717285,3.7199999999999647
1.7349830865859985,1.7247552871704102,-6.915624141693115,3.7299999999999645
1.1617664098739624,2.1888208389282227,-7.046903133392334,3.7399999999999642
0.4551258683204651,2.6312294006347656,-6.566774368286133,3.749999999999964
-0.07676184177398682,2.9884023666381836,-5.204397678375244,3.759999999999964
0.03196835517883301,2.978931427001953,-1.6458523273468018,3.7699999999999636
1.0061794519424438,2.523491859436035,1.326350450515747,3.7799999999999634
1.2287437915802002,1.7209300994873047,1.7410086393356323,3.789999999999963
1.454369306564331,1.0913667678833008,0.9454567432403564,3.799999999999963
1.447784423828125,0.56341552734375,0.5496981143951416,3.8099999999999627
1.0743048191070557,0.07971858978271484,0.6286131739616394,3.8199999999999625
0.7736016511917114,-0.18289852142333984,0.8880860805511475,3.8299999999999623
0.7492416501045227,-0.5571784973144531,1.2250645160675049,3.839999999999962
0.9284259080886841,-1.107527732849121,1.4201335906982422,3.849999999999962
0.7162817716598511,-1.274256706237793,1.3999288082122803,3.8599999999999617
0.37690967321395874,-1.5576047897338867,1.1218385696411133,3.8699999999999615
0.1886957883834839,-1.866560459136963,0.9429618716239929,3.8799999999999613
-0.08892452716827393,-2.079136371612549,0.7711936831474304,3.889999999999961
-0.19411742687225342,-2.078261375427246,0.5862870216369629,3.899999999999961
-0.17848747968673706,-2.009983539581299,0.4010900557041168,3.9099999999999606
-0.2548193335533142,-1.869607925415039,0.21590092778205872,3.9199999999999604
-0.6433590054512024,-1.5759973526000977,0.08668391406536102,3.92999999999996
-0.4342753291130066,-1.4472770690917969,-0.01957593858242035,3.93999999999996
-0.40941500663757324,-1.4616222381591797,-0.10878655314445496,3.9499999999999598
-0.4179609417915344,-1.5471267700195312,0.13329052925109863,3.9599999999999596
-0.19740015268325806,-1.8998475074768066,0.5533933639526367,3.9699999999999593
0.24729639291763306,-2.0962343215942383,0.8391246795654297,3.979999999999959
1.0362098217010498,-2.1818275451660156,1.1617162227630615,3.989999999999959
0.780802309513092,-1.9010324478149414,0.8554546236991882,3.9999999999999587
0.6318948268890381,-1.5365581512451172,0.47355255484580994,4.009999999999959
0.8531197905540466,-1.2917366027832031,0.3857901692390442,4.019999999999959
1.109921932220459,-1.261998176574707,0.6720240116119385,4.0299999999999585
1.3974552154541016,-1.2939834594726562,1.068651556968689,4.039999999999958
1.078245997428894,-1.127070426940918,1.0120673179626465,4.049999999999958
1.2001630067825317,-1.2062616348266602,0.6602484583854675,4.059999999999958
1.445190668106079,-1.1820459365844727,0.6333830952644348,4.069999999999958
1.2961156368255615,-0.9588871002197266,0.5397243499755859,4.079999999999957
1.3173856735229492,-0.8956546783447266,0.39900702238082886,4.089999999999957
1.1619869470596313,-0.7816963195800781,0.20626431703567505,4.099999999999957
1.047951579093933,-0.7963476181030273,0.11680465936660767,4.109999999999957
0.9708716869354248,-0.8412752151489258,0.2194027304649353,4.119999999999957
0.9000215530395508,-0.9186763763427734,0.4473603665828705,4.129999999999956
0.7255260944366455,-0.8538713455200195,0.6306796073913574,4.139999999999956
0.6151261925697327,-0.7067604064941406,0.8621213436126709,4.149999999999956
0.5044589638710022,-0.4726114273071289,1.1292015314102173,4.159999999999956
0.3911347985267639,-0.17542457580566406,1.4768410921096802,4.1699999999999555
0.31826674938201904,0.1321420669555664,1.8448271751403809,4.179999999999955
0.32877421379089355,0.3878631591796875,2.261169910430908,4.189999999999955
0.44163650274276733,0.6419391632080078,2.5935418605804443,4.199999999999955
0.659024715423584,0.8798856735229492,2.86979079246521,4.209999999999955
0.7989060282707214,1.1660776138305664,3.0912930965423584,4.2199999999999545
1.155637264251709,1.397439956665039,3.3144149780273438,4.229999999999954
1.5406615734100342,1.4160737991333008,3.6218509674072266,4.239999999999954
1.551398754119873,1.7598934173583984,3.8236989974975586,4.249999999999954
1.547964334487915,2.1268177032470703,3.996048927307129,4.259999999999954
1.703772783279419,2.4590539932250977,4.064308166503906,4.269999999999953
1.9272642135620117,2.713292121887207,4.023240089416504,4.279999999999953
2.105670928955078,2.8439016342163086,3.8245582580566406,4.289999999999953
2.365713119506836,2.843686103820801,3.4921300411224365,4.299999999999953
2.6236510276794434,2.8752975463867188,3.143232822418213,4.3099999999999525
2.9873886108398438,2.898118019104004,2.8501105308532715,4.319999999999952
3.3710005283355713,2.9840898513793945,2.6638588905334473,4.329999999999952
3.7719926834106445,3.0519800186157227,2.475245952606201,4.339999999999952
4.08214807510376,3.17836856842041,2.3137247562408447,4.349999999999952
4.231428146362305,3.2652158737182617,2.20658802986145,4.3599999999999515
4.362648010253906,3.2552289962768555,2.1809933185577393,4.369999999999951
4.501928806304932,3.2610836029052734,2.2019734382629395,4.379999999999951
4.627701282501221,3.1944522857666016,2.3754825592041016,4.389999999999951
4.421541213989258,3.079401969909668,2.618281364440918,4.399999999999951
3.9695677757263184,2.9853439331054688,2.882805824279785,4.40999999999995
3.4707696437835693,2.9528160095214844,3.0536789894104004,4.41999999999995
3.043466091156006,2.996027946472168,3.1274991035461426,4.42999999999995
2.521571397781372,3.3133010864257812,3.060053825378418,4.43999999999995
1.8219671249389648,3.8084917068481445,2.962819814682007,4.4499999999999496
1.028407096862793,4.332954406738281,2.813563823699951,4.459999999999949
0.15473854541778564,4.707095146179199,2.5638539791107178,4.469999999999949
-0.38014841079711914,4.756468772888184,2.31103515625,4.479999999999949
-0.6544255018234253,4.479046821594238,2.0681354999542236,4.489999999999949
-0.7391711473464966,3.8391799926757812,1.8976918458938599,4.4999999999999485
-0.6176586151123047,3.0737266540527344,1.7279859781265259,4.509999999999948
-0.11549544334411621,2.31396484375,1.4627631902694702,4.519999999999948
0.5203801393508911,1.5596656799316406,1.0014598369598389,4.529999999999948
1.1461050510406494,0.8948612213134766,0.3344597816467285,4.539999999999948
1.3307898044586182,0.40134716033935547,-0.5035802125930786,4.549999999999947
1.135583758354187,-0.4369363784790039,-1.2212471961975098,4.559999999999947
0.9134994745254517,-1.4036121368408203,-1.7681987285614014,4.569999999999947
0.6481937170028687,-2.043618679046631,-2.1420786380767822,4.579999999999947
0.35366350412368774,-2.2325196266174316,-2.272106647491455,4.589999999999947
0.05510663986206055,-2.240220546722412,-1.9872267246246338,4.599999999999946
-0.23774445056915283,-1.7096071243286133,-1.4811713695526123,4.609999999999946
-0.3068186044692993,-0.6257534027099609,-1.3228893280029297,4.619999999999946
-0.7315850257873535,0.8752641677856445,-1.278897762298584,4.629999999999946
-1.375759243965149,2.2382097244262695,-0.7282072901725769,4.6399999999999455
-1.451991081237793,3.163694381713867,-0.47618669271469116,4.649999999999945
-1.0019378662109375,3.885737419128418,-0.5469077825546265,4.659999999999945
-0.4520139694213867,4.394259452819824,-0.7409610152244568,4.669999999999945
-0.23414146900177002,4.466424942016602,-0.9629319906234741,4.679999999999945
-0.16270148754119873,4.322628021240234,-1.451611042022705,4.689999999999944
-0.647083044052124,4.415169715881348,-1.8003020286560059,4.699999999999944
-1.6131254434585571,4.846424102783203,-1.8848745822906494,4.709999999999944
-2.6281118392944336,5.152000427246094,-1.7790062427520752,4.719999999999944
-3.421887159347534,5.279460906982422,-1.5511037111282349,4.729999999999944
-3.9472832679748535,5.2839813232421875,-1.2018799781799316,4.739999999999943
-4.123894691467285,5.34981632232666,-0.8540917634963989,4.749999999999943
-4.227174282073975,5.6229753494262695,-0.6478245258331299,4.759999999999943
-4.333780288696289,5.861942291259766,-0.37838566303253174,4.769999999999943
-4.514166355133057,5.822922706604004,-0.20409107208251953,4.7799999999999425
-4.685795307159424,5.3959856033325195,0.05327272415161133,4.789999999999942
-4.564775466918945,4.968425750732422,0.44605231285095215,4.799999999999942
-4.116703033447266,4.592267036437988,0.6458914279937744,4.809999999999942
-3.625427484512329,4.231005668640137,0.6544537544250488,4.819999999999942
-3.0290040969848633,3.907907485961914,0.32071781158447266,4.8299999999999415
-2.252549171447754,3.5485849380493164,-0.37836241722106934,4.839999999999941
-1.447474718093872,3.215529441833496,-1.7321516275405884,4.849999999999941
-0.8245404362678528,3.1033334732055664,-3.634958267211914,4.859999999999941
-0.0647839903831482,2.4555540084838867,-5.015575885772705,4.869999999999941
0.3089929521083832,1.8780841827392578,-6.0930328369140625,4.87999999999994
0.41771531105041504,1.7312488555908203,-7.004258155822754,4.88999999999994
0.5738873481750488,1.0517969131469727,-9.21005630493164,4.89999999999994
0.5241397619247437,0.3138704299926758,-9.636418342590332,4.90999999999994
0.4424216151237488,0.007049560546875,-8.991779327392578,4.9199999999999395
0.2871973514556885,-0.10321044921875,-7.864480972290039,4.929999999999939
0.689719557762146,-0.5046415328979492,-6.927634239196777,4.939999999999939
1.2591747045516968,-0.9458694458007812,-5.733633995056152,4.949999999999939
1.7101430892944336,-1.4743423461914062,-5.399864673614502,4.959999999999939
2.625626802444458,-2.1838278770446777,-5.177273750305176,4.9699999999999385
2.782689094543457,-2.262566566467285,-5.079288959503174,4.979999999999938
2.54935359954834,-2.3067970275878906,-5.758302211761475,4.989999999999938
2.359553813934326,-2.5981836318969727,-6.6592817306518555,4.999999999999938
1.996639370918274,-3.1412301063537598,-7.083437919616699,5.009999999999938
1.481367826461792,-3.9315333366394043,-6.774575233459473,5.019999999999937
1.1193572282791138,-4.833433628082275,-6.155623435974121,5.029999999999937
0.8801178932189941,-5.5200605392456055,-5.5200324058532715,5.039999999999937
0.8752219080924988,-5.949449062347412,-4.912302017211914,5.049999999999937
0.8670311570167542,-6.148984909057617,-4.4225029945373535,5.0599999999999365
0.8068075776100159,-6.289575576782227,-3.946911573410034,5.069999999999936
0.6802677512168884,-6.364377498626709,-3.7079687118530273,5.079999999999936
0.5179490447044373,-6.205911636352539,-4.27482271194458,5.089999999999936
-0.45439672470092773,-6.182258605957031,-3.3487813472747803,5.099999999999936
-1.0507731437683105,-6.125186443328857,-2.438558578491211,5.1099999999999355
-1.4075915813446045,-6.12617301940918,-2.0362069606781006,5.119999999999935
-1.5794847011566162,-6.098995685577393,-1.9692344665527344,5.129999999999935
-1.6766518354415894,-6.1392059326171875,-1.996145248413086,5.139999999999935
-1.7672611474990845,-6.086350440979004,-1.9979376792907715,5.149999999999935
-1.5983915328979492,-6.135915279388428,-2.1624019145965576,5.159999999999934
-1.5483241081237793,-6.1485395431518555,-2.4017295837402344,5.169999999999934
-1.6005463600158691,-6.224428176879883,-2.455636501312256,5.179999999999934
-1.6428208351135254,-6.215001583099365,-2.4681601524353027,5.189999999999934
-1.5820884704589844,-6.215641021728516,-2.511531114578247,5.199999999999934
-1.387333869934082,-6.194899082183838,-2.5453693866729736,5.209999999999933
-1.161759614944458,-6.205159664154053,-2.474233388900757,5.219999999999933
-0.9152301549911499,-6.272286415100098,-2.3464972972869873,5.229999999999933
-0.7798442840576172,-6.39351749420166,-2.1601779460906982,5.239999999999933
-0.7775779962539673,-6.405996322631836,-1.8939743041992188,5.2499999999999325
-0.7072192430496216,-6.257038116455078,-1.550257682800293,5.259999999999932
-0.673445463180542,-5.95377254486084,-1.226884126663208,5.269999999999932
-0.5844871997833252,-5.5628814697265625,-0.9094648361206055,5.279999999999932
-0.48236048221588135,-5.026474952697754,-0.5455718040466309,5.289999999999932
-0.5476565361022949,-4.226796627044678,-0.0568690299987793,5.299999999999931
-0.7485677003860474,-3.146613597869873,0.5053296089172363,5.309999999999931
-0.8186347484588623,-1.746870994567871,1.0412487983703613,5.319999999999931
-0.7757954597473145,-0.1074066162109375,1.4925932884216309,5.329999999999931
-0.7116904258728027,1.8049755096435547,2.138998508453369,5.339999999999931
-0.7652407884597778,3.9920663833618164,2.946552038192749,5.34999999999993
-0.7747303247451782,6.086408615112305,3.8144900798797607,5.35999999999993
-1.2130118608474731,7.923297882080078,4.715817928314209,5.36999999999993
-2.1684999465942383,9.43359661102295,5.205634117126465,5.37999999999993
-3.2576510906219482,10.569441795349121,5.423623561859131,5.3899999999999295
-4.649158954620361,11.45236587524414,5.640585422515869,5.399999999999929
-5.671195030212402,12.062667846679688,5.798993110656738,5.409999999999929
-5.866747856140137,11.998173713684082,5.860851287841797,5.419999999999929
-5.0750932693481445,10.909567832946777,5.930276393890381,5.429999999999929
-4.061197280883789,9.064180374145508,6.160874366760254,5.4399999999999284
-3.1792149543762207,6.9536237716674805,6.164053916931152,5.449999999999928
-2.397183895111084,4.852437973022461,5.736745834350586,5.459999999999928
-1.9610182046890259,3.0095863342285156,5.114222526550293,5.469999999999928
-1.6744201183319092,1.5280351638793945,4.621743202209473,5.479999999999928
-1.3882876634597778,0.3596067428588867,4.388366222381592,5.489999999999927
-1.0723482370376587,-0.8050537109375,4.405167102813721,5.499999999999927
-0.4960290193557739,-2.048031806945801,4.3145647048950195,5.509999999999927
0.17183685302734375,-3.5827889442443848,3.900489330291748,5.519999999999927
0.7874056696891785,-5.196591377258301,3.4417264461517334,5.5299999999999265
0.827164351940155,-6.315978050231934,3.025742292404175,5.539999999999926
0.3568977117538452,-6.547670364379883,2.5467329025268555,5.549999999999926
-0.20065855979919434,-5.900497913360596,1.9732661247253418,5.559999999999926
-0.42574870586395264,-4.846991539001465,1.3357062339782715,5.569999999999926
-0.3708091974258423,-3.6246814727783203,0.6711788177490234,5.5799999999999255
-0.34701597690582275,-2.329657554626465,-0.0982809066772461,5.589999999999925
-0.39455389976501465,-1.1986570358276367,-1.0605456829071045,5.599999999999925
-0.3540611267089844,-0.12076854705810547,-2.3834285736083984,5.609999999999925
-0.5802484750747681,0.9058513641357422,-3.84270977973938,5.619999999999925
-1.0036920309066772,1.9961357116699219,-5.254820823669434,5.629999999999924
-1.9003281593322754,3.611642837524414,-6.523619651794434,5.639999999999924
-2.6946115493774414,5.540700912475586,-7.341239929199219,5.649999999999924
-3.5053632259368896,7.49912166595459,-8.019329071044922,5.659999999999924
-4.224636077880859,9.173532485961914,-8.53689193725586,5.6699999999999235
-4.88424825668335,10.171364784240723,-8.471786499023438,5.679999999999923
-5.452407360076904,10.203482627868652,-7.971977710723877,5.689999999999923
-5.200918197631836,9.97408390045166,-6.369904518127441,5.699999999999923
-4.312986850738525,9.950579643249512,-3.859358549118042,5.709999999999923
-3.067548990249634,8.197441101074219,-2.1239800453186035,5.7199999999999225
-2.4242396354675293,4.915438652038574,-2.238508701324463,5.729999999999922
-2.288118600845337,1.4570083618164062,-3.7852494716644287,5.739999999999922
-2.2823643684387207,-1.139277458190918,-5.44390869140625,5.749999999999922
-1.877636432647705,-2.6634860038757324,-6.400232315063477,5.759999999999922
-1.428945541381836,-3.446991443634033,-6.580621242523193,5.769999999999921
-0.8942409753799438,-3.651345729827881,-6.304941177368164,5.779999999999921
-0.43320775032043457,-3.547640800476074,-5.929438591003418,5.789999999999921
0.11683487892150879,-3.4063215255737305,-5.41652774810791,5.799999999999921
0.7679527997970581,-3.1314921379089355,-4.8988752365112305,5.809999999999921
1.5423763990402222,-2.734856605529785,-4.389621734619141,5.81999999999992
2.5689892768859863,-2.500552177429199,-3.9495973587036133,5.82999999999992
3.699937343597412,-2.3299918174743652,-3.714949131011963,5.83999999999992
4.360860824584961,-2.1821422576904297,-3.6497251987457275,5.84999999999992
4.864592552185059,-1.7952523231506348,-4.35661506652832,5.8599999999999195
5.026787281036377,-1.275273323059082,-5.534493923187256,5.869999999999919
4.414490699768066,-0.7258672714233398,-6.677732467651367,5.879999999999919
3.7577924728393555,-0.3709526062011719,-7.389894962310791,5.889999999999919
3.1166276931762695,-0.06680679321289062,-7.7555084228515625,5.899999999999919
1.952244758605957,0.4057655334472656,-7.868009090423584,5.909999999999918
0.7857036590576172,1.2083015441894531,-7.844180107116699,5.919999999999918
-0.2966012954711914,1.9021053314208984,-7.661435127258301,5.929999999999918
-0.8626397848129272,2.218562126159668,-6.908924102783203,5.939999999999918
-0.8602440357208252,2.3408498764038086,-4.406644344329834,5.949999999999918
0.48479360342025757,2.2989187240600586,-0.4668930172920227,5.959999999999917
0.988505482673645,2.0300893783569336,2.890042304992676,5.969999999999917
0.587389349937439,1.4633569717407227,3.8446993827819824,5.979999999999917
-0.053273677825927734,1.0521717071533203,3.0662362575531006,5.989999999999917
-0.4821850061416626,0.6945590972900391,1.9874714612960815,5.9999999999999165
-0.8973062038421631,0.18054580688476562,1.4108022451400757,6.009999999999916
-1.1317036151885986,-0.31266212463378906,1.3970468044281006,6.019999999999916
-1.1631373167037964,-0.9119853973388672,1.9438714981079102,6.029999999999916
-0.9990559816360474,-1.6771736145019531,2.6689095497131348,6.039999999999916
-0.2653254270553589,-2.3305716514587402,3.1416637897491455,6.0499999999999154
-0.04650521278381348,-2.599876880645752,3.0440258979797363,6.059999999999915
-0.2268369197845459,-2.657841682434082,2.3808181285858154,6.069999999999915
-0.2794153690338135,-2.4043192863464355,1.6736825704574585,6.079999999999915
-0.38852643966674805,-2.0262889862060547,1.040740966796875,6.089999999999915
-0.10120999813079834,-1.7271051406860352,0.5908429622650146,6.099999999999914
0.2530851364135742,-1.6404924392700195,0.3319903314113617,6.109999999999914
0.5117746591567993,-1.8737964630126953,0.2978383004665375,6.119999999999914
0.7870781421661377,-1.9914770126342773,0.588840126991272,6.129999999999914
0.5561473965644836,-1.867140293121338,0.6065020561218262,6.1399999999999135
0.9113986492156982,-2.000947952270508,0.4562106132507324,6.149999999999913
1.477391242980957,-2.0840320587158203,0.5313873887062073,6.159999999999913
1.791060447692871,-2.075655460357666,0.5459728837013245,6.169999999999913
1.7403655052185059,-1.7798418998718262,0.2700957953929901,6.179999999999913
1.6410367488861084,-1.443293571472168,0.03278958797454834,6.1899999999999125
1.751183032989502,-1.207158088684082,0.14251932501792908,6.199999999999912
1.8456978797912598,-1.0425996780395508,0.2932415008544922,6.209999999999912
1.9267678260803223,-0.9065103530883789,0.25532615184783936,6.219999999999912
1.9680308103561401,-0.8897228240966797,0.22732332348823547,6.229999999999912
1.8974334001541138,-0.8701791763305664,0.24509713053703308,6.239999999999911
1.8509712219238281,-0.7976951599121094,0.19167682528495789,6.249999999999911
1.8957008123397827,-0.6770544052124023,0.2111450433731079,6.259999999999911
1.8909645080566406,-0.5344629287719727,0.29003044962882996,6.269999999999911
1.7867193222045898,-0.46307373046875,0.41719263792037964,6.2799999999999105
1.549676775932312,-0.44118309020996094,0.5259222984313965,6.28999999999991
1.2062326669692993,-0.4519500732421875,0.7165117859840393,6.29999999999991
1.0100412368774414,-0.4091930389404297,0.9958674907684326,6.30999999999991
0.7814995646476746,-0.3512086868286133,1.3134026527404785,6.31999999999991
0.5996602177619934,-0.16078948974609375,1.7239457368850708,6.3299999999999095
0.419094979763031,0.10693168640136719,2.186424970626831,6.339999999999909
0.3164331912994385,0.37777233123779297,2.671815872192383,6.349999999999909
0.267869234085083,0.6469507217407227,3.091094970703125,6.359999999999909
0.2618755102157593,0.8307676315307617,3.5104966163635254,6.369999999999909
0.3680797219276428,0.9722700119018555,3.830923557281494,6.379999999999908
0.586639404296875,1.1191787719726562,4.091935634613037,6.389999999999908
0.8025397658348083,1.1970329284667969,4.186733722686768,6.399999999999908
1.068290114402771,1.3155317306518555,4.202314853668213,6.409999999999908
1.2400076389312744,1.4646587371826172,4.168498992919922,6.419999999999908
1.3819822072982788,1.6728219985961914,4.132759094238281,6.429999999999907
1.5964317321777344,1.8704957962036133,4.112313747406006,6.439999999999907
1.594732403755188,2.2415828704833984,3.9427287578582764,6.449999999999907
1.8041276931762695,2.419841766357422,3.6891112327575684,6.459999999999907
2.1477160453796387,2.5297441482543945,3.322866439819336,6.4699999999999065
2.630570888519287,2.5999813079833984,2.9130523204803467,6.479999999999906
3.078505516052246,2.6305227279663086,2.5692310333251953,6.489999999999906
3.532369613647461,2.695484161376953,2.2361748218536377,6.499999999999906
3.8938751220703125,2.768519401550293,1.9883557558059692,6.509999999999906
4.152659893035889,2.9021873474121094,1.7833516597747803,6.519999999999905
4.312723159790039,2.9936819076538086,1.6940655708312988,6.529999999999905
4.442720890045166,3.0312891006469727,1.702824354171753,6.539999999999905
4.6331787109375,2.98909854888916,1.8304940462112427,6.549999999999905
4.647132873535156,2.874661445617676,2.0209946632385254,6.559999999999905
4.443892478942871,2.738389015197754,2.138702154159546,6.569999999999904
4.037714958190918,2.7283620834350586,2.216609239578247,6.579999999999904
3.4627232551574707,2.7581777572631836,2.289543390274048,6.589999999999904
2.8992409706115723,2.8946361541748047,2.4520039558410645,6.599999999999904
2.3552494049072266,3.056246757507324,2.621579647064209,6.6099999999999035
1.6089681386947632,3.3504905700683594,2.747074604034424,6.619999999999903
0.7593430876731873,3.662356376647949,2.789325475692749,6.629999999999903
-0.011185884475708008,3.9653234481811523,2.5986979007720947,6.639999999999903
-0.7644675970077515,4.161199569702148,2.403709650039673,6.649999999999903
-1.1821507215499878,4.111276626586914,2.1934640407562256,6.659999999999902
-1.3958522081375122,3.786947250366211,1.9040136337280273,6.669999999999902
-1.1089383363723755,3.205068588256836,1.6671701669692993,6.679999999999902
-0.4149266481399536,2.6001338958740234,1.4351470470428467,6.689999999999902
0.3366128206253052,1.9913873672485352,1.1276745796203613,6.699999999999902
1.0039640665054321,1.446049690246582,0.6224927306175232,6.709999999999901
1.3854639530181885,0.6298322677612305,0.02377462387084961,6.719999999999901
1.6914020776748657,-0.3749399185180664,-0.6428974866867065,6.729999999999901
1.6939382553100586,-1.0199785232543945,-1.4032390117645264,6.739999999999901
1.6802423000335693,-1.4057502746582031,-1.8877618312835693,6.7499999999999005
1.5404282808303833,-1.484243392944336,-2.0486655235290527,6.7599999999999
1.3915103673934937,-1.118551254272461,-1.7215261459350586,6.7699999999999
1.4704786539077759,-0.4802217483520508,-1.276876449584961,6.7799999999999
1.372450828552246,0.6729192733764648,-1.0819470882415771,6.7899999999999
0.7954056262969971,2.2354345321655273,-1.2263599634170532,6.7999999999998995
-0.029246211051940918,3.331441879272461,-1.3870257139205933,6.809999999999899
-0.42879557609558105,4.197734832763672,-1.5493791103363037,6.819999999999899
-0.6805157661437988,4.685705184936523,-1.785360336303711,6.829999999999899
-1.223220944404602,4.654157638549805,-2.220752239227295,6.839999999999899
-1.5795567035675049,4.416657447814941,-2.4409677982330322,6.849999999999898
-1.7929000854492188,4.305611610412598,-2.3307042121887207,6.859999999999898
-2.073312759399414,4.418846130371094,-2.261340379714966,6.869999999999898
-2.780588150024414,4.782386779785156,-2.146740436553955,6.879999999999898
-3.770949363708496,5.1615495681762695,-1.7835609912872314,6.8899999999998975
-4.494050979614258,5.367485046386719,-1.2384779453277588,6.899999999999897
-4.627824783325195,5.268930435180664,-0.7233938574790955,6.909999999999897
-4.478497505187988,4.942673683166504,-0.43527424335479736,6.919999999999897
-4.302236080169678,4.577801704406738,-0.2672652006149292,6.929999999999897
-4.079492568969727,4.198265075683594,-0.07182848453521729,6.9399999999998965
-3.8188531398773193,3.835038185119629,0.14647960662841797,6.949999999999896
-3.3989996910095215,3.552431106567383,0.3361241817474365,6.959999999999896
-3.0816643238067627,3.144308090209961,0.49143242835998535,6.969999999999896
-2.733966588973999,2.9115428924560547,0.564002275466919,6.979999999999896
-2.3246731758117676,2.934847831726074,0.4261317253112793,6.989999999999895
-1.8208417892456055,2.941168785095215,-0.13383793830871582,6.999999999999895
-1.2845234870910645,3.0648021697998047,-1.245410442352295,7.009999999999895
-0.7930735349655151,3.143548011779785,-2.964066982269287,7.019999999999895
-0.2932818531990051,3.146500587463379,-4.738828659057617,7.0299999999998946
0.6393625736236572,2.8309450149536133,-6.19033670425415,7.039999999999894
1.1366198062896729,1.9451169967651367,-6.591498374938965,7.049999999999894
0.7658973932266235,1.2961254119873047,-6.7968854904174805,7.059999999999894
0.8555245995521545,0.9355707168579102,-7.449614524841309,7.069999999999894
0.7108649015426636,0.9725503921508789,-7.418686866760254,7.0799999999998935
0.911797046661377,0.7108421325683594,-7.322165489196777,7.089999999999893
0.4922332763671875,0.599553108215332,-6.242788314819336,7.099999999999893
0.5132440328598022,0.44719982147216797,-5.317926406860352,7.109999999999893
1.3015614748001099,0.08718585968017578,-5.017607688903809,7.119999999999893
1.7639343738555908,-0.3897361755371094,-4.835378170013428,7.129999999999892
1.8828675746917725,-0.49191856384277344,-5.069746494293213,7.139999999999892
2.115445613861084,-0.7821178436279297,-5.406253814697266,7.149999999999892
2.3835947513580322,-1.625760555267334,-5.723509788513184,7.159999999999892
2.4828596115112305,-2.6010007858276367,-6.2468109130859375,7.169999999999892
2.257716178894043,-3.5400681495666504,-6.834907531738281,7.179999999999891
1.7349648475646973,-4.290529727935791,-6.728623390197754,7.189999999999891
1.1791424751281738,-4.750783920288086,-6.297860622406006,7.199999999999891
0.8425709009170532,-5.161645889282227,-5.574467658996582,7.209999999999891
0.6022422909736633,-5.3450236320495605,-4.717410564422607,7.2199999999998905
0.3338322043418884,-5.144680976867676,-3.892890453338623,7.22999999999989
-0.056180357933044434,-5.047294616699219,-3.3492798805236816,7.23999999999989
-0.25541138648986816,-5.086357593536377,-3.17523193359375,7.24999999999989
0.033463120460510254,-5.229947090148926,-3.2783703804016113,7.25999999999989
-0.3822145462036133,-5.1622700691223145,-3.833092212677002,7.269999999999889
-1.018186330795288,-5.327836513519287,-2.8448832035064697,7.279999999999889
-1.2644836902618408,-5.473959445953369,-2.241631269454956,7.289999999999889
-1.521084189414978,-5.735150337219238,-1.902756690979004,7.299999999999889
-1.6900629997253418,-6.001335144042969,-1.7157087326049805,7.309999999999889
-1.5821233987808228,-6.1522111892700195,-2.023343563079834,7.319999999999888
-1.5176804065704346,-6.254000663757324,-2.450902223587036,7.329999999999888
-1.6353589296340942,-6.387332439422607,-2.884528875350952,7.339999999999888
-1.6959959268569946,-6.530201435089111,-3.167036294937134,7.349999999999888
-1.711570143699646,-6.641822338104248,-3.236490249633789,7.3599999999998875
-1.6700966358184814,-6.621713161468506,-3.229389190673828,7.369999999999887
-1.5594030618667603,-6.5536932945251465,-3.1383872032165527,7.379999999999887
-1.441907525062561,-6.523778915405273,-2.970719814300537,7.389999999999887
-1.1888450384140015,-6.526949882507324,-2.738508939743042,7.399999999999887
-0.9947633743286133,-6.641925811767578,-2.4132137298583984,7.4099999999998865
-0.9346857070922852,-6.7680745124816895,-1.8921148777008057,7.419999999999886
-1.0687003135681152,-6.828683853149414,-1.37868332862854,7.429999999999886
-1.1978391408920288,-6.699314117431641,-0.9467182159423828,7.439999999999886
-1.273720145225525,-6.360576152801514,-0.6344714164733887,7.449999999999886
-1.3336111307144165,-5.787980079650879,-0.461498498916626,7.459999999999885
-1.3549107313156128,-5.033486843109131,-0.2538895606994629,7.469999999999885
-1.3296054601669312,-4.053462028503418,0.07840204238891602,7.479999999999885
-1.304731845855713,-2.8138370513916016,0.38831233978271484,7.489999999999885
-1.1216907501220703,-1.3663921356201172,0.7528982162475586,7.4999999999998845
-0.8728067874908447,0.35731983184814453,1.1924824714660645,7.509999999999884
-0.6910326480865479,2.4166431427001953,1.713381052017212,7.519999999999884
-0.7163846492767334,4.789512634277344,2.5602073669433594,7.529999999999884
-0.8794537782669067,7.268682479858398,3.688084125518799,7.539999999999884
-1.4204599857330322,9.456612586975098,4.671992301940918,7.5499999999998835
-2.497037172317505,11.11355972290039,5.289588928222656,7.559999999999883
-3.9255967140197754,12.019737243652344,5.5150299072265625,7.569999999999883
-4.8882269859313965,12.503336906433105,5.895631313323975,7.579999999999883
-5.158459186553955,12.430804252624512,6.162476062774658,7.589999999999883
-4.785957336425781,11.690055847167969,6.38450288772583,7.599999999999882
-3.915158748626709,10.2422513961792,6.886247634887695,7.609999999999882
-2.9098548889160156,8.451666831970215,7.3541154861450195,7.619999999999882
-1.802396535873413,6.311931610107422,7.262423038482666,7.629999999999882
-1.091355323791504,4.152823448181152,6.477897644042969,7.6399999999998816
-0.8295319080352783,2.335665702819824,5.561051368713379,7.649999999999881
-0.6919642686843872,0.9081287384033203,4.813374996185303,7.659999999999881
-0.37120842933654785,-0.26678943634033203,4.216737747192383,7.669999999999881
0.07274436950683594,-1.4961585998535156,3.6795496940612793,7.679999999999881
0.6889830827713013,-2.904918670654297,3.2221620082855225,7.6899999999998805
1.019850254058838,-4.14894437789917,2.8212902545928955,7.69999999999988
0.9198216795921326,-4.882006645202637,2.511026620864868,7.70999999999988
0.4260045289993286,-4.865962505340576,2.235024929046631,7.71999999999988
-0.17773139476776123,-4.169006824493408,1.9562923908233643,7.72999999999988
-0.44541752338409424,-3.09598445892334,1.6282906532287598,7.739999999999879
-0.34344494342803955,-1.839116096496582,1.2334141731262207,7.749999999999879
-0.1667039394378662,-0.6001729965209961,0.6157293319702148,7.759999999999879
-0.3104158639907837,0.5535058975219727,-0.20659589767456055,7.769999999999879
-0.3288111686706543,1.4791536331176758,-1.2293274402618408,7.779999999999879
-0.4409911632537842,2.425251007080078,-2.4396159648895264,7.789999999999878
-0.9019460678100586,3.52114200592041,-3.8079051971435547,7.799999999999878
-1.4595452547073364,4.8143415451049805,-5.014904975891113,7.809999999999878
-1.892205834388733,6.107664108276367,-6.208430290222168,7.819999999999878
-2.552898645401001,7.222269058227539,-7.141399383544922,7.8299999999998775
-3.3383889198303223,7.716058731079102,-7.503870010375977,7.839999999999877
-3.764065742492676,7.807242393493652,-7.002707481384277,7.849999999999877
-3.686471700668335,7.367010116577148,-6.127084732055664,7.859999999999877
-3.5670952796936035,6.184649467468262,-5.52083683013916,7.869999999999877
-3.451838970184326,4.041234970092773,-5.204946517944336,7.879999999999876
-3.3149755001068115,1.7555627822875977,-4.558163166046143,7.889999999999876
-3.594304084777832,-0.10240745544433594,-4.366888999938965,7.899999999999876
-3.703136920928955,-1.7846441268920898,-4.858983993530273,7.909999999999876
-3.550158739089966,-3.1238279342651367,-5.367341995239258,7.919999999999876
-3.082749366760254,-3.9051694869995117,-5.562363624572754,7.929999999999875
-2.374506950378418,-4.28727388381958,-5.573289394378662,7.939999999999875
-1.730468511581421,-4.380622863769531,-5.4407548904418945,7.949999999999875
-1.1417677402496338,-4.2307047843933105,-5.277765274047852,7.959999999999875
-0.6381349563598633,-3.9642019271850586,-4.924788475036621,7.9699999999998745
-0.07970881462097168,-3.547602653503418,-4.348672389984131,7.979999999999874
0.6448987722396851,-3.0742721557617188,-3.647188186645508,7.989999999999874
1.2824537754058838,-2.261937141418457,-3.112304210662842,7.999999999999874
