AccX,AccY,AccZ,SampleRate
-1.8128448724746704,4.295038223266602,-1.849574327468872,0
-1.7026103734970093,4.62479305267334,-1.7653058767318726,0.01
-2.5311546325683594,5.115633964538574,-1.636092185974121,0.02
-3.9026715755462646,5.824563980102539,-1.4154671430587769,0.03
-5.382558822631836,6.641559600830078,-1.1276761293411255,0.04
-6.358639717102051,7.332816123962402,-0.9029428958892822,0.05
-6.63654088973999,7.628722190856934,-0.7360340356826782,0.060000000000000005
-6.52163028717041,7.18058967590332,-0.5530544519424438,0.07
-6.518822193145752,6.302333831787109,-0.3637048006057739,0.08
-6.666343688964844,5.431851387023926,-0.06535959243774414,0.09
-6.908296585083008,4.635848045349121,0.3017542362213135,0.09999999999999999
-7.017946243286133,4.035999298095703,0.6235899925231934,0.10999999999999999
-7.034274578094482,3.6558914184570312,0.7044632434844971,0.11999999999999998
-6.477138519287109,3.4951276779174805,0.7149887084960938,0.12999999999999998
-5.6337785720825195,3.1416921615600586,0.5902442932128906,0.13999999999999999
-4.54419469833374,2.786370277404785,0.21587347984313965,0.15
-3.3775336742401123,2.6892662048339844,-0.6186318397521973,0.16
-2.2774624824523926,2.6540327072143555,-2.684617280960083,0.17
-0.7455437183380127,2.450791358947754,-6.816409111022949,0.18000000000000002
0.8462651968002319,1.6075658798217773,-8.520112037658691,0.19000000000000003
1.4133281707763672,0.6894330978393555,-9.432104110717773,0.20000000000000004
1.4278323650360107,0.30845165252685547,-9.591669082641602,0.21000000000000005
1.4842506647109985,0.05096435546875,-9.08826732635498,0.22000000000000006
1.876513957977295,-0.24978065490722656,-8.063488006591797,0.23000000000000007
2.4317450523376465,-0.09376239776611328,-6.57069730758667,0.24000000000000007
3.0415711402893066,0.23382186889648438,-5.731284141540527,0.25000000000000006
3.2731664180755615,0.08863067626953125,-4.691056728363037,0.26000000000000006
3.5938634872436523,-0.2761869430541992,-4.100856304168701,0.2700000000000001
3.673720359802246,-0.7557668685913086,-4.319290637969971,0.2800000000000001
3.531092882156372,-1.35988187789917,-5.169250965118408,0.2900000000000001
3.1152124404907227,-2.0499753952026367,-6.2645416259765625,0.3000000000000001
2.2931272983551025,-2.993471145629883,-6.999269485473633,0.3100000000000001
1.5618802309036255,-4.092461585998535,-7.062312126159668,0.3200000000000001
1.0926644802093506,-5.096120834350586,-6.786160945892334,0.3300000000000001
0.9130245447158813,-6.0576252937316895,-6.368992805480957,0.34000000000000014
0.7403056025505066,-6.523515701293945,-5.757430076599121,0.35000000000000014
0.6781737804412842,-6.713210105895996,-4.955319404602051,0.36000000000000015
0.3654312491416931,-6.75985860824585,-4.241388320922852,0.37000000000000016
0.1771550178527832,-6.74367618560791,-3.7004871368408203,0.38000000000000017
0.16375452280044556,-6.730043888092041,-3.4298133850097656,0.3900000000000002
0.1552180051803589,-6.619025230407715,-3.213639259338379,0.4000000000000002
0.03470325469970703,-6.564164638519287,-3.099562406539917,0.4100000000000002
-0.13868916034698486,-6.620934963226318,-2.898371458053589,0.4200000000000002
-0.4686157703399658,-6.615231990814209,-2.655360460281372,0.4300000000000002
-0.7975329160690308,-6.523733139038086,-2.346397876739502,0.4400000000000002
-0.9560567140579224,-6.382577896118164,-2.136685848236084,0.45000000000000023
-0.9876010417938232,-6.375798225402832,-2.0121865272521973,0.46000000000000024
-0.9400568008422852,-6.2831501960754395,-1.8486604690551758,0.47000000000000025
-0.9352784156799316,-6.360300540924072,-1.7620043754577637,0.48000000000000026
-0.8980426788330078,-6.405869483947754,-1.6908226013183594,0.49000000000000027
-1.0153406858444214,-6.326302528381348,-1.702650547027588,0.5000000000000002
-1.1390029191970825,-6.162065505981445,-1.6544134616851807,0.5100000000000002
-1.2382533550262451,-6.022857189178467,-1.5778207778930664,0.5200000000000002
-1.227067470550537,-5.800529956817627,-1.4950218200683594,0.5300000000000002
-1.131856083869934,-5.575908184051514,-1.4425339698791504,0.5400000000000003
-0.9459642171859741,-5.319930076599121,-1.1505918502807617,0.5500000000000003
-0.8760985136032104,-4.9580535888671875,-0.8641834259033203,0.5600000000000003
-0.8179068565368652,-4.592790126800537,-0.5912599563598633,0.5700000000000003
-0.6420619487762451,-4.271381378173828,-0.3228144645690918,0.5800000000000003
-0.4530531167984009,-3.9670119285583496,0.010394096374511719,0.5900000000000003
-0.31997406482696533,-3.4973840713500977,0.35757970809936523,0.6000000000000003
-0.24190878868103027,-2.8883538246154785,0.7254238128662109,0.6100000000000003
-0.18136191368103027,-2.160795211791992,1.3093886375427246,0.6200000000000003
-0.2751690149307251,-1.3757781982421875,1.8901915550231934,0.6300000000000003
-0.6235450506210327,-0.5318593978881836,2.4706177711486816,0.6400000000000003
-1.029056429862976,0.3129253387451172,2.868762969970703,0.6500000000000004
-1.3601607084274292,1.047708511352539,3.159435272216797,0.6600000000000004
-1.8422318696975708,1.895315170288086,3.658482074737549,0.6700000000000004
-2.410367250442505,2.7238903045654297,4.155787467956543,0.6800000000000004
-2.884472370147705,3.559939384460449,4.444952011108398,0.6900000000000004
-3.247954845428467,4.594805717468262,4.628458023071289,0.7000000000000004
-3.4130282402038574,5.543512344360352,4.694446563720703,0.7100000000000004
-3.641319751739502,6.601656913757324,4.760265827178955,0.7200000000000004
-3.8150882720947266,7.729918479919434,4.735458850860596,0.7300000000000004
-3.760572910308838,8.888721466064453,4.47342586517334,0.7400000000000004
-3.5012662410736084,9.646547317504883,3.9331679344177246,0.7500000000000004
-3.410313606262207,9.67096996307373,3.1750874519348145,0.7600000000000005
-3.2413361072540283,8.78592586517334,2.466096878051758,0.7700000000000005
-2.9725189208984375,7.430425643920898,2.153409004211426,0.7800000000000005
-2.597851276397705,5.892153739929199,2.4052042961120605,0.7900000000000005
-2.1755056381225586,4.494034767150879,2.883392095565796,0.8000000000000005
-1.5167714357376099,3.230772018432617,3.5141992568969727,0.8100000000000005
-0.8251368999481201,1.8314695358276367,4.143258571624756,0.8200000000000005
-0.30649781227111816,0.2739715576171875,4.652790069580078,0.8300000000000005
0.01822948455810547,-1.3848237991333008,4.93714714050293,0.8400000000000005
0.1023411750793457,-2.9277825355529785,5.043845176696777,0.8500000000000005
0.10558474063873291,-4.200117588043213,4.843504905700684,0.8600000000000005
-0.03268253803253174,-5.190712928771973,4.579779148101807,0.8700000000000006
-0.46498262882232666,-5.745099067687988,4.232652187347412,0.8800000000000006
-0.9774994850158691,-5.728214263916016,3.7967753410339355,0.8900000000000006
-1.4740405082702637,-5.139256954193115,3.2240958213806152,0.9000000000000006
-1.9984633922576904,-4.204488754272461,2.6045899391174316,0.9100000000000006
-2.1964728832244873,-3.434431552886963,1.900977611541748,0.9200000000000006
-2.0611205101013184,-2.5166454315185547,1.2272663116455078,0.9300000000000006
-2.0622482299804688,-1.4423103332519531,0.18796491622924805,0.9400000000000006
-1.8707537651062012,-0.41679859161376953,-1.2590968608856201,0.9500000000000006
-1.8895214796066284,0.7622003555297852,-2.825615644454956,0.9600000000000006
-1.890899419784546,2.0373096466064453,-4.477136611938477,0.9700000000000006
-2.185671806335449,3.3351192474365234,-6.11922025680542,0.9800000000000006
-2.7051563262939453,4.7879486083984375,-7.348034381866455,0.9900000000000007
-3.205876350402832,6.410067558288574,-8.306774139404297,1.0000000000000007
-3.6241860389709473,8.075559616088867,-8.685712814331055,1.0100000000000007
-4.076387405395508,9.237126350402832,-8.508733749389648,1.0200000000000007
-4.131409168243408,10.209372520446777,-7.748202323913574,1.0300000000000007
-3.5951662063598633,10.853883743286133,-6.057167053222656,1.0400000000000007
-2.5590529441833496,10.642120361328125,-3.745511770248413,1.0500000000000007
-1.8004212379455566,8.401491165161133,-2.8150432109832764,1.0600000000000007
-1.8166810274124146,5.42961311340332,-3.569932222366333,1.0700000000000007
-2.6846094131469727,2.6967239379882812,-4.891824722290039,1.0800000000000007
-3.344654083251953,0.35782432556152344,-5.938182830810547,1.0900000000000007
-2.9731907844543457,-1.637190818786621,-6.362011909484863,1.1000000000000008
-2.213958978652954,-2.898728847503662,-6.083786964416504,1.1100000000000008
-1.3056191205978394,-3.6333374977111816,-5.580309867858887,1.1200000000000008
-0.4518333673477173,-4.022850513458252,-5.245134353637695,1.1300000000000008
0.14888858795166016,-4.261048316955566,-4.882400035858154,1.1400000000000008
0.5793802738189697,-4.317265033721924,-4.498427867889404,1.1500000000000008
0.9873455762863159,-4.151187896728516,-4.126974105834961,1.1600000000000008
1.4541209936141968,-3.7531843185424805,-3.7478928565979004,1.1700000000000008
1.9570913314819336,-3.3023529052734375,-3.4774296283721924,1.1800000000000008
2.3189330101013184,-2.829575538635254,-3.2081222534179688,1.1900000000000008
2.755688428878784,-2.49722957611084,-3.3986637592315674,1.2000000000000008
3.204794406890869,-2.14682674407959,-3.8209426403045654,1.2100000000000009
3.6959805488586426,-1.7201480865478516,-4.290825843811035,1.2200000000000009
4.133172512054443,-1.1967554092407227,-4.9110918045043945,1.2300000000000009
4.419708728790283,-0.5823888778686523,-5.846327304840088,1.2400000000000009
4.521787166595459,-0.08164787292480469,-6.673307418823242,1.2500000000000009
4.252341270446777,0.2701387405395508,-7.30332612991333,1.260000000000001
3.7031712532043457,0.7409496307373047,-7.728668689727783,1.270000000000001
2.702061653137207,1.277510643005371,-7.801177978515625,1.280000000000001
1.418205976486206,1.8380870819091797,-7.5567731857299805,1.290000000000001
0.18844187259674072,2.194211006164551,-6.803393363952637,1.300000000000001
-0.46414339542388916,2.364084243774414,-5.173735618591309,1.310000000000001
-0.6029224395751953,2.270109176635742,-1.3409278392791748,1.320000000000001
-0.5013284683227539,2.069765090942383,2.9477779865264893,1.330000000000001
-0.3002495765686035,1.5606632232666016,3.832688093185425,1.340000000000001
-0.3386099338531494,1.0910062789916992,2.6131038665771484,1.350000000000001
-0.613554835319519,0.5321025848388672,1.7937285900115967,1.360000000000001
-0.8417758941650391,-0.16613006591796875,1.2872041463851929,1.370000000000001
-0.9309463500976562,-0.8005046844482422,0.9395872354507446,1.380000000000001
-0.773478627204895,-1.2518329620361328,0.8536776304244995,1.390000000000001
-0.33004069328308105,-1.5204830169677734,0.9526264071464539,1.400000000000001
-0.02818477153778076,-1.6857385635375977,0.9592890739440918,1.410000000000001
0.13478374481201172,-1.8315911293029785,0.8383556604385376,1.420000000000001
0.02786576747894287,-2.056145191192627,0.5272760391235352,1.430000000000001
-0.1571294069290161,-2.0054335594177246,0.1757378876209259,1.440000000000001
-0.1618877649307251,-1.9093718528747559,0.25158607959747314,1.450000000000001
-0.14020705223083496,-1.7800464630126953,0.37820082902908325,1.460000000000001
0.07091593742370605,-1.732151985168457,0.43418240547180176,1.470000000000001
0.5206164717674255,-1.9948267936706543,0.3279445171356201,1.480000000000001
0.8152955174446106,-2.220747470855713,0.15360140800476074,1.490000000000001
0.7688665390014648,-2.319056987762451,0.2880954146385193,1.500000000000001
0.7291021347045898,-2.337650775909424,0.6231896877288818,1.5100000000000011
0.6174779534339905,-2.2646074295043945,0.9726922512054443,1.5200000000000011
0.4245014190673828,-2.0474109649658203,1.2441368103027344,1.5300000000000011
0.43972790241241455,-1.927689552307129,1.4522311687469482,1.5400000000000011
0.7187151908874512,-1.8239150047302246,1.457519769668579,1.5500000000000012
1.0130778551101685,-1.5830268859863281,1.229758620262146,1.5600000000000012
1.0924516916275024,-1.3321409225463867,1.0859161615371704,1.5700000000000012
1.2381372451782227,-1.0476016998291016,0.9536024332046509,1.5800000000000012
1.56437349319458,-0.8801937103271484,0.7827481627464294,1.5900000000000012
1.8483526706695557,-0.7197933197021484,0.6029089093208313,1.6000000000000012
1.9990462064743042,-0.5830984115600586,0.43192943930625916,1.6100000000000012
2.054530143737793,-0.4365825653076172,0.3257299065589905,1.6200000000000012
1.9094970226287842,-0.3089151382446289,0.31601816415786743,1.6300000000000012
1.8393127918243408,-0.23107147216796875,0.45571643114089966,1.6400000000000012
1.703140139579773,-0.1670083999633789,0.7163077592849731,1.6500000000000012
1.580177903175354,-0.06400489807128906,1.1170847415924072,1.6600000000000013
1.4130736589431763,0.06121349334716797,1.5527493953704834,1.6700000000000013
1.2355663776397705,0.19192886352539062,2.0015368461608887,1.6800000000000013
1.2177948951721191,0.26363277435302734,2.403317451477051,1.6900000000000013
1.108638882637024,0.3385438919067383,2.716888427734375,1.7000000000000013
1.0275275707244873,0.3854408264160156,2.9176204204559326,1.7100000000000013
0.9026463031768799,0.4281730651855469,3.0337073802948,1.7200000000000013
0.8965149521827698,0.4976978302001953,3.0717320442199707,1.7300000000000013
1.0520002841949463,0.5843267440795898,3.072014331817627,1.7400000000000013
1.0868992805480957,0.5875940322875977,3.144442081451416,1.7500000000000013
1.2046146392822266,0.8303442001342773,3.142827033996582,1.7600000000000013
1.3355294466018677,1.1328506469726562,3.145965099334717,1.7700000000000014
1.371424674987793,1.5068168640136719,3.101073741912842,1.7800000000000014
1.3833611011505127,1.8586835861206055,3.053518772125244,1.7900000000000014
1.4733872413635254,2.2241039276123047,2.948134660720825,1.8000000000000014
1.5235353708267212,2.535872459411621,2.796769142150879,1.8100000000000014
1.612305998802185,2.8703794479370117,2.606476306915283,1.8200000000000014
1.7894794940948486,3.0935230255126953,2.362821578979492,1.8300000000000014
2.0165979862213135,3.298553466796875,2.0560412406921387,1.8400000000000014
2.3057665824890137,3.406524658203125,1.7648911476135254,1.8500000000000014
2.6929986476898193,3.49881649017334,1.596790075302124,1.8600000000000014
3.0178866386413574,3.5825424194335938,1.5443581342697144,1.8700000000000014
3.316162586212158,3.631363868713379,1.6148161888122559,1.8800000000000014
3.5134963989257812,3.647724151611328,1.7271246910095215,1.8900000000000015
3.750971794128418,3.6604204177856445,1.9367425441741943,1.9000000000000015
3.973506450653076,3.573910713195801,2.179530620574951,1.9100000000000015
4.068601608276367,3.546163558959961,2.4629526138305664,1.9200000000000015
4.067694664001465,3.5532617568969727,2.789461851119995,1.9300000000000015
3.8850619792938232,3.6429929733276367,3.0679612159729004,1.9400000000000015
3.6071696281433105,3.7793703079223633,3.3245697021484375,1.9500000000000015
3.121983051300049,3.9670963287353516,3.5063695907592773,1.9600000000000015
2.585348129272461,4.182127952575684,3.589040756225586,1.9700000000000015
1.983058214187622,4.548581123352051,3.499990463256836,1.9800000000000015
1.1951955556869507,5.015725135803223,3.2406790256500244,1.9900000000000015
0.4249385595321655,5.317695617675781,2.8936421871185303,2.0000000000000013
-0.2870674133300781,5.296700477600098,2.5079867839813232,2.010000000000001
-0.65567946434021,4.812115669250488,2.078033685684204,2.020000000000001
-0.5868465900421143,4.060763359069824,1.643394947052002,2.0300000000000007
-0.2147045135498047,3.286768913269043,1.0971252918243408,2.0400000000000005
0.22766613960266113,2.547311782836914,0.5979208946228027,2.0500000000000003
0.8927589654922485,1.916377067565918,0.16057729721069336,2.06
1.579388976097107,1.0618724822998047,-0.17693889141082764,2.07
2.1179258823394775,0.013636589050292969,-0.5969451665878296,2.0799999999999996
2.226135492324829,-0.7492685317993164,-1.210740566253662,2.0899999999999994
2.032644748687744,-1.4253664016723633,-1.6954582929611206,2.099999999999999
2.1216893196105957,-1.9687800407409668,-2.0236167907714844,2.109999999999999
2.0276265144348145,-1.5729751586914062,-2.0229153633117676,2.1199999999999988
1.7494269609451294,-0.9912242889404297,-1.6340131759643555,2.1299999999999986
1.3553305864334106,0.13832378387451172,-1.0231170654296875,2.1399999999999983
0.8313740491867065,1.5358295440673828,-0.5537941455841064,2.149999999999998
0.19266045093536377,2.9262523651123047,-0.3459410071372986,2.159999999999998
-0.5130971670150757,3.6590070724487305,-0.46324828267097473,2.1699999999999977
-1.1871520280838013,4.045102119445801,-0.898749828338623,2.1799999999999975
-1.6620575189590454,4.11286735534668,-1.455475091934204,2.1899999999999973
-1.8268404006958008,4.017524719238281,-1.8530677556991577,2.199999999999997
-1.6350408792495728,4.0411834716796875,-1.9037392139434814,2.209999999999997
-1.4352772235870361,4.119312286376953,-2.0247156620025635,2.2199999999999966
-1.912739634513855,4.3237457275390625,-2.183817148208618,2.2299999999999964
-2.7255678176879883,4.6160783767700195,-2.1475024223327637,2.239999999999996
-3.4198403358459473,4.912629127502441,-1.9542715549468994,2.249999999999996
-3.864858627319336,5.108304023742676,-1.715530276298523,2.259999999999996
-3.918060779571533,5.117186546325684,-1.4553771018981934,2.2699999999999956
-3.7597546577453613,4.963347434997559,-1.249649167060852,2.2799999999999954
-3.5388388633728027,4.692262649536133,-0.9776908159255981,2.289999999999995
-3.425787925720215,4.368358612060547,-0.6933659315109253,2.299999999999995
-3.352057456970215,4.06789493560791,-0.6133601665496826,2.3099999999999947
-3.2110109329223633,3.740241050720215,-0.547548770904541,2.3199999999999945
-2.9198999404907227,3.267916679382324,-0.4640791416168213,2.3299999999999943
-2.6448230743408203,3.1288890838623047,-0.3858940601348877,2.339999999999994
-2.1324777603149414,3.188386917114258,-0.37389421463012695,2.349999999999994
-1.5084638595581055,3.127762794494629,-0.5986917018890381,2.3599999999999937
-0.7075343132019043,3.22457218170166,-1.431789755821228,2.3699999999999934
-0.3995858430862427,3.278532028198242,-2.7787926197052,2.3799999999999932
-0.3723193407058716,2.7717180252075195,-3.736158847808838,2.389999999999993
-0.2488057017326355,1.823002815246582,-4.914984703063965,2.399999999999993
-0.33614206314086914,1.2776470184326172,-5.913227081298828,2.4099999999999926
-0.36256253719329834,1.2400264739990234,-6.17087459564209,2.4199999999999924
0.1076083779335022,1.1432037353515625,-6.937342643737793,2.429999999999992
0.7709096074104309,1.0312118530273438,-7.9888529777526855,2.439999999999992
0.9692227840423584,0.43777942657470703,-7.966588020324707,2.4499999999999917
0.9921702146530151,-0.15160179138183594,-7.403957366943359,2.4599999999999915
1.062938928604126,-0.38577747344970703,-7.109434127807617,2.4699999999999913
0.8655065298080444,-0.6869020462036133,-5.869044780731201,2.479999999999991
1.2724491357803345,-0.8234806060791016,-5.875394344329834,2.489999999999991
2.234388828277588,-1.1472930908203125,-5.957195281982422,2.4999999999999907
2.424025058746338,-2.00018310546875,-6.047040939331055,2.5099999999999905
2.71335506439209,-2.872007369995117,-6.391020774841309,2.5199999999999902
2.7801599502563477,-3.574036121368408,-6.911383628845215,2.52999999999999
2.7686831951141357,-4.238204479217529,-7.1220383644104,2.53999999999999
2.9455208778381348,-5.0000481605529785,-7.866260528564453,2.5499999999999896
2.4395904541015625,-5.6952362060546875,-7.733579158782959,2.5599999999999894
1.9836546182632446,-5.976827144622803,-6.432554721832275,2.569999999999989
1.5657848119735718,-5.957098960876465,-5.296591758728027,2.579999999999989
1.000784993171692,-5.884246349334717,-4.202184677124023,2.5899999999999888
0.48907655477523804,-5.883889675140381,-3.3159799575805664,2.5999999999999885
0.08407282829284668,-5.9040422439575195,-2.781097888946533,2.6099999999999883
-0.334293007850647,-5.801751613616943,-2.4057164192199707,2.619999999999988
-0.5358120203018188,-5.838223457336426,-2.1535422801971436,2.629999999999988
-0.8307600021362305,-5.803030967712402,-2.098548173904419,2.6399999999999877
-1.2304706573486328,-5.7415971755981445,-2.2312827110290527,2.6499999999999875
-1.4620102643966675,-5.63222599029541,-2.3104915618896484,2.6599999999999873
-1.5925301313400269,-5.486675262451172,-2.367842435836792,2.669999999999987
-1.916946530342102,-5.276190757751465,-2.2292158603668213,2.679999999999987
-1.9094542264938354,-5.268167972564697,-2.1969985961914062,2.6899999999999866
-2.0511703491210938,-5.13907527923584,-2.2717511653900146,2.6999999999999864
-2.0811634063720703,-5.371848106384277,-2.269406795501709,2.709999999999986
-1.958980679512024,-5.4089250564575195,-2.134891986846924,2.719999999999986
-1.8356183767318726,-5.403475284576416,-1.9998736381530762,2.7299999999999858
-1.5966275930404663,-5.336032867431641,-1.87675142288208,2.7399999999999856
-1.2497133016586304,-5.3232574462890625,-1.6825768947601318,2.7499999999999853
-1.1831974983215332,-5.304721832275391,-1.3872811794281006,2.759999999999985
-1.2227102518081665,-5.1389241218566895,-1.008331537246704,2.769999999999985
-1.1319239139556885,-5.265877723693848,-0.565058708190918,2.7799999999999847
-1.0910669565200806,-5.273893356323242,-0.03603029251098633,2.7899999999999845
-1.1838806867599487,-4.997748374938965,0.31769847869873047,2.7999999999999843
-1.2563717365264893,-4.599678993225098,0.5340261459350586,2.809999999999984
-1.3737632036209106,-4.036041736602783,0.7873401641845703,2.819999999999984
-1.5050854682922363,-3.291947841644287,1.146707534790039,2.8299999999999836
-1.7296795845031738,-2.2687792778015137,1.403404712677002,2.8399999999999834
-1.8929510116577148,-1.0517950057983398,1.6061053276062012,2.849999999999983
-1.8265893459320068,0.3869361877441406,1.7966673374176025,2.859999999999983
-1.6204779148101807,2.0467653274536133,2.2193973064422607,2.869999999999983
-1.4329079389572144,3.825860023498535,2.8042032718658447,2.8799999999999826
-1.454481601715088,5.676513671875,3.3759868144989014,2.8899999999999824
-1.8764616250991821,7.046285629272461,3.7076268196105957,2.899999999999982
-2.614602565765381,7.823486328125,3.9347984790802,2.909999999999982
-3.131563186645508,8.410417556762695,4.279353141784668,2.9199999999999817
-3.331313133239746,8.840357780456543,4.652627944946289,2.9299999999999815
-3.1907007694244385,8.94326114654541,5.020838260650635,2.9399999999999813
-2.7069132328033447,8.54668140411377,5.31920862197876,2.949999999999981
-1.798712134361267,7.779121398925781,5.744805812835693,2.959999999999981
-0.9971567392349243,6.6150712966918945,6.1473612785339355,2.9699999999999807
-0.22780799865722656,5.220685958862305,6.12593412399292,2.9799999999999804
0.4334787130355835,3.5836868286132812,5.735439777374268,2.9899999999999802
0.6608036756515503,1.8837127685546875,5.125335693359375,2.99999999999998
0.5374650955200195,0.42676734924316406,4.725008964538574,3.00999999999998
0.4855293035507202,-0.7353115081787109,4.473609447479248,3.0199999999999796
0.5673596858978271,-1.7684106826782227,4.262441158294678,3.0299999999999794
0.8404620885848999,-2.811549663543701,3.929443597793579,3.039999999999979
1.1542601585388184,-3.8576183319091797,3.5946950912475586,3.049999999999979
1.0084375143051147,-4.792089939117432,3.375781297683716,3.0599999999999787
0.40080463886260986,-5.1612138748168945,3.1897952556610107,3.0699999999999785
-0.3565727472305298,-4.856237411499023,2.969036340713501,3.0799999999999783
-0.8013052940368652,-4.110631465911865,2.7276058197021484,3.089999999999978
-0.7638399600982666,-3.1502904891967773,2.271127223968506,3.099999999999978
-0.5124648809432983,-2.145773410797119,1.520212173461914,3.1099999999999777
-0.15175378322601318,-1.207639217376709,0.4342958927154541,3.1199999999999775
0.15021920204162598,-0.0606231689453125,-0.8968265056610107,3.1299999999999772
0.28835010528564453,1.043107032775879,-2.575479030609131,3.139999999999977
0.2409297227859497,2.1159324645996094,-4.444406986236572,3.149999999999977
-0.4201918840408325,3.4810266494750977,-6.4747161865234375,3.1599999999999766
-1.0415252447128296,4.695808410644531,-8.398539543151855,3.1699999999999764
-1.8757179975509644,6.22617244720459,-9.877389907836914,3.179999999999976
-3.5538222789764404,7.749240875244141,-10.834900856018066,3.189999999999976
-5.764433860778809,8.730908393859863,-11.011943817138672,3.1999999999999758
-7.136158466339111,9.401025772094727,-10.270118713378906,3.2099999999999755
-7.9580183029174805,9.736709594726562,-8.549406051635742,3.2199999999999753
-7.503036975860596,9.619752883911133,-5.548331260681152,3.229999999999975
-5.827374458312988,8.013107299804688,-2.1328253746032715,3.239999999999975
-3.96756649017334,5.230724334716797,-0.9018144607543945,3.2499999999999747
-3.7040090560913086,2.1026058197021484,-1.7747122049331665,3.2599999999999745
-3.9266295433044434,-0.4620199203491211,-2.9761710166931152,3.2699999999999743
-3.9718894958496094,-2.386467933654785,-3.851633071899414,3.279999999999974
-3.469619035720825,-3.4792590141296387,-4.239773750305176,3.289999999999974
-2.6555380821228027,-4.209584712982178,-4.178260326385498,3.2999999999999736
-1.9334979057312012,-4.714161396026611,-3.906858444213867,3.3099999999999734
-1.1622223854064941,-4.780510425567627,-3.5597548484802246,3.319999999999973
-0.5340293645858765,-4.473643779754639,-3.1427536010742188,3.329999999999973
0.23595356941223145,-4.0232319831848145,-2.669285535812378,3.3399999999999728
1.1307340860366821,-3.5676217079162598,-2.4562411308288574,3.3499999999999726
1.6436500549316406,-2.917538642883301,-2.510972023010254,3.3599999999999723
2.0107779502868652,-2.242682456970215,-3.0385494232177734,3.369999999999972
2.172173023223877,-1.789013385772705,-3.8919811248779297,3.379999999999972
2.4349541664123535,-1.352433204650879,-4.833958625793457,3.3899999999999717
2.8371505737304688,-0.9103450775146484,-5.951992511749268,3.3999999999999715
3.3360042572021484,-0.3512134552001953,-7.178760528564453,3.4099999999999713
3.534583806991577,0.33330631256103516,-8.422709465026855,3.419999999999971
3.1597471237182617,0.9092063903808594,-9.015033721923828,3.429999999999971
2.271497964859009,1.4911222457885742,-9.055366516113281,3.4399999999999706
0.891380786895752,1.8220901489257812,-8.534228324890137,3.4499999999999704
0.02445608377456665,1.9536809921264648,-7.637544631958008,3.45999999999997
-0.22341406345367432,2.1578197479248047,-6.579116344451904,3.46999999999997
0.0013082027435302734,2.285834312438965,-5.3169846534729,3.47999999999997
0.69016432762146,2.088703155517578,-2.698544979095459,3.4899999999999696
1.8907451629638672,1.5136375427246094,1.4731451272964478,3.4999999999999694
1.622900128364563,1.003260612487793,4.2798309326171875,3.509999999999969
0.5583462119102478,0.6369400024414062,4.025573253631592,3.519999999999969
-0.26479506492614746,0.32666015625,3.0072102546691895,3.5299999999999687
-0.8435829877853394,0.024751663208007812,2.433934211730957,3.5399999999999685
-0.9386074542999268,-0.6560945510864258,2.010087490081787,3.5499999999999683
-0.7185702323913574,-1.292191505432129,1.6986109018325806,3.559999999999968
-0.23237824440002441,-1.8501944541931152,1.5361840724945068,3.569999999999968
0.13325822353363037,-2.1462106704711914,1.275591254234314,3.5799999999999677
0.24456489086151123,-2.3457436561584473,0.9594492316246033,3.5899999999999674
0.281136155128479,-2.269714832305908,0.5322209596633911,3.5999999999999672
0.32399982213974,-2.050102710723877,0.06249617040157318,3.609999999999967
0.4934753179550171,-1.9309329986572266,-0.5203602313995361,3.619999999999967
0.4699863791465759,-2.0458836555480957,-1.0361688137054443,3.6299999999999666
0.3497309684753418,-1.97857666015625,-1.1641982793807983,3.6399999999999664
0.027695775032043457,-1.6431541442871094,-0.9168380498886108,3.649999999999966
-0.3558906316757202,-1.307877540588379,-0.1740531623363495,3.659999999999966
0.13646578788757324,-1.427018165588379,0.4716646671295166,3.6699999999999657
0.8057520985603333,-1.677133560180664,0.8108173608779907,3.6799999999999655
1.2283157110214233,-1.668299674987793,0.8745718002319336,3.6899999999999653
1.5562372207641602,-1.6302566528320312,0.8148082494735718,3.699999999999965
1.4284595251083374,-1.3383045196533203,0.8054934144020081,3.709999999999965
1.2293342351913452,-0.993743896484375,0.7821230888366699,3.7199999999999647
1.2888092994689941,-0.9385519027709961,0.9054070711135864,3.7299999999999645
1.336687445640564,-0.9547195434570312,1.0652645826339722,3.7399999999999642
1.3248825073242188,-0.8795671463012695,1.1949315071105957,3.749999999999964
1.4065678119659424,-0.8446617126464844,1.2590055465698242,3.759999999999964
1.332960605621338,-0.6634397506713867,1.0994541645050049,3.7699999999999636
1.3196146488189697,-0.6540594100952148,0.9651592373847961,3.7799999999999634
1.2541167736053467,-0.5986881256103516,0.8512488603591919,3.789999999999963
1.136697769165039,-0.6121101379394531,0.7601203918457031,3.799999999999963
1.046694040298462,-0.6487255096435547,0.7468067407608032,3.8099999999999627
0.8911842107772827,-0.7036476135253906,0.858993649482727,3.8199999999999625
0.7326326966285706,-0.7098369598388672,1.041578769683838,3.8299999999999623
0.5880895256996155,-0.6529006958007812,1.3043015003204346,3.839999999999962
0.3811637759208679,-0.4610891342163086,1.578000783920288,3.849999999999962
0.26982760429382324,-0.1751384735107422,1.8866734504699707,3.8599999999999617
0.18726623058319092,0.12604045867919922,2.1945724487304688,3.8699999999999615
0.12616920471191406,0.5213899612426758,2.523224115371704,3.8799999999999613
0.1702505350112915,0.9127893447875977,2.8053927421569824,3.889999999999961
0.2718125581741333,1.2500247955322266,3.0954980850219727,3.899999999999961
0.5295716524124146,1.4016523361206055,3.399728775024414,3.9099999999999606
0.7572639584541321,1.5422096252441406,3.5798773765563965,3.9199999999999604
0.8084496855735779,1.7238178253173828,3.648411273956299,3.92999999999996
0.9049912095069885,1.900507926940918,3.709111213684082,3.93999999999996
1.2257739305496216,2.059929847717285,3.701033353805542,3.9499999999999598
1.5426162481307983,2.2567148208618164,3.6211671829223633,3.9599999999999596
1.6318095922470093,2.433018684387207,3.4621896743774414,3.9699999999999593
1.6713807582855225,2.550182342529297,3.274385690689087,3.979999999999959
1.8299669027328491,2.6128158569335938,3.0295662879943848,3.989999999999959
2.0160329341888428,2.649651527404785,2.8266587257385254,3.9999999999999587
2.442655324935913,2.680004119873047,2.7190284729003906,4.009999999999959
2.9260103702545166,2.716120719909668,2.74344539642334,4.019999999999959
3.4354562759399414,2.727118492126465,2.7640902996063232,4.0299999999999585
3.8608789443969727,2.8302459716796875,2.72883939743042,4.039999999999958
4.077785491943359,2.96563720703125,2.6693100929260254,4.049999999999958
4.3588104248046875,3.0759286880493164,2.6100077629089355,4.059999999999958
4.53802490234375,3.1443967819213867,2.5015177726745605,4.069999999999958
4.691512107849121,3.1974735260009766,2.4524154663085938,4.079999999999957
4.763699531555176,3.2854604721069336,2.566364049911499,4.089999999999957
4.541419982910156,3.3700618743896484,2.829291820526123,4.099999999999957
4.189986228942871,3.427351951599121,3.212286949157715,4.109999999999957
3.5016536712646484,3.536142349243164,3.5782527923583984,4.119999999999957
2.7741196155548096,3.6723833084106445,3.775498151779175,4.129999999999956
2.1286189556121826,3.642333984375,3.766751289367676,4.139999999999956
1.4804933071136475,3.4676151275634766,3.600644826889038,4.149999999999956
0.7492038011550903,3.4517440795898438,3.2345967292785645,4.159999999999956
0.10739147663116455,3.52484130859375,2.702836751937866,4.1699999999999555
-0.5196479558944702,3.5908327102661133,2.1621925830841064,4.179999999999955
-1.0369540452957153,3.324334144592285,1.5737278461456299,4.189999999999955
-1.2009671926498413,2.7807741165161133,1.0041019916534424,4.199999999999955
-1.0021673440933228,2.073033332824707,0.4624079465866089,4.209999999999955
-0.6820132732391357,1.385605812072754,-0.040142178535461426,4.2199999999999545
-0.32186758518218994,0.7210111618041992,-0.3822910785675049,4.229999999999954
0.013672113418579102,0.08664894104003906,-0.6029155254364014,4.239999999999954
0.05121731758117676,-0.7061319351196289,-0.6444660425186157,4.249999999999954
0.11379802227020264,-1.7331280708312988,-0.5686109066009521,4.259999999999954
0.07534646987915039,-2.1758623123168945,-0.730410099029541,4.269999999999953
-0.03938400745391846,-2.591824531555176,-0.8615603446960449,4.279999999999953
0.039324164390563965,-3.006587028503418,-1.0168620347976685,4.289999999999953
0.08810782432556152,-2.6966304779052734,-1.0477533340454102,4.299999999999953
0.03278088569641113,-1.3722476959228516,-0.9212129712104797,4.3099999999999525
-0.0968550443649292,0.8629684448242188,-0.7153640985488892,4.319999999999952
0.046736717224121094,3.113565444946289,-0.3593323230743408,4.329999999999952
0.39412224292755127,4.853026390075684,-0.11350083351135254,4.339999999999952
0.811211109161377,5.801549911499023,-0.17247113585472107,4.349999999999952
0.903796911239624,6.30854606628418,-0.4421643614768982,4.3599999999999515
0.6735124588012695,6.460125923156738,-0.7455902099609375,4.369999999999951
0.3866375684738159,6.445466041564941,-1.0212373733520508,4.379999999999951
-0.030408143997192383,6.284218788146973,-1.0622761249542236,4.389999999999951
-0.3412623405456543,6.053668022155762,-1.0566537380218506,4.399999999999951
-1.1706593036651611,5.9358930587768555,-1.0586071014404297,4.40999999999995
-2.306175947189331,5.894777297973633,-1.1126965284347534,4.41999999999995
-3.3475341796875,5.7124481201171875,-1.2246172428131104,4.42999999999995
-3.9275293350219727,5.444038391113281,-1.291965126991272,4.43999999999995
-4.221441745758057,5.056241035461426,-1.1858365535736084,4.4499999999999496
-4.4493513107299805,4.692699432373047,-0.8485329151153564,4.459999999999949
-4.719589710235596,4.286168098449707,-0.4607928991317749,4.469999999999949
-4.873397350311279,3.82175350189209,-0.08036911487579346,4.479999999999949
-4.739245414733887,3.356289863586426,0.2783377170562744,4.489999999999949
-4.467862129211426,3.2146921157836914,0.4032413959503174,4.4999999999999485
-4.035563945770264,3.2028207778930664,0.32517433166503906,4.509999999999948
-3.471456527709961,3.048007011413574,0.2251288890838623,4.519999999999948
-2.973513126373291,2.917840003967285,-0.0644369125366211,4.529999999999948
-2.5698845386505127,2.946138381958008,-0.5384664535522461,4.539999999999948
-2.0869333744049072,2.740304946899414,-1.2052804231643677,4.549999999999947
-1.6364911794662476,2.6667232513427734,-2.7513058185577393,4.559999999999947
-0.4391824007034302,2.122041702270508,-4.3770246505737305,4.569999999999947
0.9097381830215454,1.2332124710083008,-6.481929302215576,4.579999999999947
1.3531057834625244,0.9451713562011719,-8.017560958862305,4.589999999999947
1.5543649196624756,0.4620847702026367,-8.239240646362305,4.599999999999946
1.3209342956542969,-0.4221019744873047,-7.938655853271484,4.609999999999946
0.47558140754699707,-0.8846492767333984,-7.678190231323242,4.619999999999946
0.14642822742462158,-1.0929985046386719,-7.359167575836182,4.629999999999946
0.11504679918289185,-1.0207881927490234,-6.555257797241211,4.6399999999999455
0.4611475169658661,-0.8761501312255859,-6.195708274841309,4.649999999999945
1.0706777572631836,-0.9559335708618164,-5.698140621185303,4.659999999999945
1.737624168395996,-1.0449986457824707,-5.374883651733398,4.669999999999945
2.011928081512451,-1.277921199798584,-4.927618026733398,4.679999999999945
1.4742660522460938,-1.7483925819396973,-5.612213134765625,4.689999999999944
2.3042850494384766,-2.8693718910217285,-6.840862274169922,4.699999999999944
2.4531145095825195,-4.070113182067871,-7.624195098876953,4.709999999999944
2.6079344749450684,-5.175471305847168,-8.283817291259766,4.719999999999944
2.358165740966797,-5.708386421203613,-8.174753189086914,4.729999999999944
1.632857322692871,-6.085576057434082,-6.790090084075928,4.739999999999943
1.085266351699829,-6.024784088134766,-5.328938007354736,4.749999999999943
1.0688772201538086,-5.845872402191162,-4.143651008605957,4.759999999999943
0.7091900706291199,-5.753061294555664,-3.4031617641448975,4.769999999999943
0.20820343494415283,-5.651340007781982,-2.898747205734253,4.7799999999999425
-0.2917795181274414,-5.548425197601318,-2.6278645992279053,4.789999999999942
-0.5884004831314087,-5.540430068969727,-2.5305655002593994,4.799999999999942
-0.9931217432022095,-5.563226699829102,-2.441452741622925,4.809999999999942
-1.2402873039245605,-5.53557014465332,-2.499501943588257,4.819999999999942
-1.1105834245681763,-5.727603912353516,-2.2556867599487305,4.8299999999999415
-1.0611556768417358,-5.9739603996276855,-2.1483964920043945,4.839999999999941
-1.163791298866272,-6.004265785217285,-2.0033187866210938,4.849999999999941
-1.313663363456726,-5.967226028442383,-1.6770672798156738,4.859999999999941
-1.506651759147644,-6.042342185974121,-1.3756837844848633,4.869999999999941
-1.5561854839324951,-6.150404930114746,-1.2284836769104004,4.87999999999994
-1.5647820234298706,-6.283817768096924,-1.2905888557434082,4.88999999999994
-1.5970003604888916,-6.358480930328369,-1.4377949237823486,4.89999999999994
-1.499502182006836,-6.314309597015381,-1.5004849433898926,4.90999999999994
-1.2149231433868408,-6.155787944793701,-1.531728744506836,4.9199999999999395
-1.0405240058898926,-5.908932209014893,-1.50822114944458,4.929999999999939
-0.7207573652267456,-5.678583145141602,-1.287165641784668,4.939999999999939
-0.6126450300216675,-5.450037956237793,-0.8500962257385254,4.949999999999939
-0.453342080116272,-5.222879409790039,-0.4034128189086914,4.959999999999939
-0.19255483150482178,-4.893691539764404,0.004477977752685547,4.9699999999999385
-0.11449050903320312,-4.421149253845215,0.35604286193847656,4.979999999999938
-0.09144735336303711,-3.7351760864257812,0.7842516899108887,4.989999999999938
-0.15058720111846924,-2.896939754486084,1.344897747039795,4.999999999999938
-0.4122716188430786,-1.7281074523925781,2.045027256011963,5.009999999999938
-0.7213031053543091,-0.3564586639404297,2.6520743370056152,5.019999999999937
-0.9194138050079346,1.0299339294433594,3.279515266418457,5.029999999999937
-1.1253376007080078,2.246914863586426,3.8542094230651855,5.039999999999937
-1.1089462041854858,3.3355512619018555,4.350320816040039,5.049999999999937
-1.0775309801101685,4.442817687988281,4.780160903930664,5.0599999999999365
-1.2430487871170044,5.684303283691406,5.103540897369385,5.069999999999936
-2.1722469329833984,7.057385444641113,5.487515449523926,5.079999999999936
-3.45335054397583,8.226526260375977,5.4630961418151855,5.089999999999936
-4.723867416381836,9.265460968017578,5.0110344886779785,5.099999999999936
-5.633663177490234,9.986909866333008,4.662736415863037,5.1099999999999355
-6.060853958129883,10.155951499938965,4.594775199890137,5.119999999999935
-5.267196178436279,9.358837127685547,4.503376007080078,5.129999999999935
-3.9841692447662354,7.634391784667969,4.413422584533691,5.139999999999935
-3.125994920730591,5.784102439880371,4.4315385818481445,5.149999999999935
-2.569103717803955,4.200078964233398,4.510796546936035,5.159999999999934
-2.2710225582122803,2.9299468994140625,4.618156433105469,5.169999999999934
-2.149132490158081,1.7388181686401367,4.709185600280762,5.179999999999934
-1.8971471786499023,0.40345096588134766,4.685427665710449,5.189999999999934
-1.3382973670959473,-1.1150002479553223,4.3767547607421875,5.199999999999934
-0.8862214088439941,-2.6849026679992676,3.7218761444091797,5.209999999999933
-0.7054874897003174,-3.9187283515930176,3.2758915424346924,5.219999999999933
-1.149597406387329,-4.4465413093566895,3.1300864219665527,5.229999999999933
-1.8971493244171143,-4.1456379890441895,3.1257760524749756,5.239999999999933
-2.363898992538452,-3.254765033721924,3.0596845149993896,5.2499999999999325
-2.4213075637817383,-2.0292582511901855,2.7789862155914307,5.259999999999932
-2.1976687908172607,-0.8295011520385742,2.224311590194702,5.269999999999932
-1.837299108505249,0.039806365966796875,1.257338523864746,5.279999999999932
-1.668428897857666,1.0210113525390625,-0.024605274200439453,5.289999999999932
-1.4661496877670288,1.9449596405029297,-1.5338551998138428,5.299999999999931
-1.027654767036438,2.8859548568725586,-3.3246777057647705,5.309999999999931
-1.0158822536468506,4.134212493896484,-5.135575294494629,5.319999999999931
-1.3461600542068481,5.338313102722168,-6.886232852935791,5.329999999999931
-1.8620734214782715,6.476442337036133,-8.432744979858398,5.339999999999931
-2.471109390258789,7.373089790344238,-9.32462215423584,5.34999999999993
-3.090371608734131,8.026702880859375,-9.44333553314209,5.35999999999993
-3.207763195037842,8.028581619262695,-8.788641929626465,5.36999999999993
-2.7835984230041504,7.493512153625488,-7.796052932739258,5.37999999999993
-2.353015422821045,6.290929794311523,-6.647321701049805,5.3899999999999295
-1.9832913875579834,4.423236846923828,-5.419032096862793,5.399999999999929
-1.7863268852233887,2.1010122299194336,-4.776167392730713,5.409999999999929
-1.8394153118133545,-0.09855842590332031,-4.71207332611084,5.419999999999929
-1.6689649820327759,-1.8175325393676758,-4.796519756317139,5.429999999999929
-1.2884540557861328,-2.9726219177246094,-4.853161811828613,5.4399999999999284
-0.7070280313491821,-3.7028651237487793,-4.646493911743164,5.449999999999928
-0.1124567985534668,-4.135244369506836,-4.3734211921691895,5.459999999999928
0.30605411529541016,-4.569052219390869,-4.189711093902588,5.469999999999928
0.7715535163879395,-4.719450950622559,-4.08638858795166,5.479999999999928
1.2435911893844604,-4.576873779296875,-3.968611717224121,5.489999999999927
1.839719295501709,-4.145899772644043,-3.780467987060547,5.499999999999927
2.511228084564209,-3.5265955924987793,-3.525763511657715,5.509999999999927
3.0340168476104736,-2.747030258178711,-3.370636224746704,5.519999999999927
3.487668514251709,-1.9616451263427734,-3.478756904602051,5.5299999999999265
3.7449467182159424,-1.0351638793945312,-4.004467964172363,5.539999999999926
3.7118945121765137,-0.2366352081298828,-4.863447189331055,5.549999999999926
3.537411689758301,0.36348724365234375,-5.778562545776367,5.559999999999926
3.611809492111206,0.7643642425537109,-6.778679370880127,5.569999999999926
3.5180435180664062,1.0510101318359375,-7.638052463531494,5.5799999999999255
2.879211902618408,1.4076566696166992,-8.136452674865723,5.589999999999925
1.8758856058120728,1.7805233001708984,-8.02383804321289,5.599999999999925
1.0517065525054932,2.1919288635253906,-7.176026821136475,5.609999999999925
0.7336602210998535,2.606867790222168,-5.311351299285889,5.619999999999925
1.2223711013793945,2.644094467163086,-2.4651856422424316,5.629999999999924
1.9511137008666992,2.1287689208984375,1.1986638307571411,5.639999999999924
2.1450400352478027,1.3628149032592773,3.108001232147217,5.649999999999924
1.6300088167190552,0.8635358810424805,3.005344867706299,5.659999999999924
1.071671962738037,0.3561677932739258,2.289405107498169,5.6699999999999235
0.26371121406555176,-0.2715463638305664,1.8328049182891846,5.679999999999923
-0.3163161277770996,-0.9575042724609375,1.641614556312561,5.689999999999923
-0.6163642406463623,-1.6205453872680664,1.6036443710327148,5.699999999999923
-0.66031813621521,-2.016887664794922,1.494261622428894,5.709999999999923
-0.4692484140396118,-2.2018442153930664,1.2275553941726685,5.7199999999999225
-0.29131412506103516,-2.252178192138672,0.9021118879318237,5.729999999999922
-0.10215234756469727,-2.3593740463256836,0.5065995454788208,5.739999999999922
-0.2129051685333252,-2.2389440536499023,-0.08747492730617523,5.749999999999922
-6.903409957885742E-4,-2.125425338745117,-0.7266275882720947,5.759999999999922
-0.028978824615478516,-2.3510336875915527,-1.0399383306503296,5.769999999999921
-0.32144618034362793,-2.3176283836364746,-0.5964956879615784,5.779999999999921
-0.5199768543243408,-2.107013702392578,-0.06735803186893463,5.789999999999921
-0.49148011207580566,-1.767350673675537,0.4828527867794037,5.799999999999921
-0.1592620611190796,-1.489975929260254,0.8878609538078308,5.809999999999921
0.36954641342163086,-1.4635200500488281,1.0800964832305908,5.81999999999992
0.6768209338188171,-1.5153894424438477,1.2234946489334106,5.82999999999992
0.8435344099998474,-1.6479578018188477,1.3698523044586182,5.83999999999992
0.9642860293388367,-1.818249225616455,1.445447325706482,5.84999999999992
1.336185336112976,-2.0811052322387695,1.3260295391082764,5.8599999999999195
1.4521379470825195,-2.1494483947753906,1.1906843185424805,5.869999999999919
1.5827568769454956,-2.0283002853393555,1.0580172538757324,5.879999999999919
1.7307026386260986,-1.7298212051391602,0.9085689187049866,5.889999999999919
1.683209776878357,-1.3546333312988281,0.7736735939979553,5.899999999999919
1.7373769283294678,-0.9912509918212891,0.5647609829902649,5.909999999999918
1.680753469467163,-0.6874179840087891,0.4251154959201813,5.919999999999918
1.570664405822754,-0.3713188171386719,0.333638072013855,5.929999999999918
1.5410431623458862,-0.16245746612548828,0.28380286693573,5.939999999999918
1.5414873361587524,-0.027170181274414062,0.27365177869796753,5.949999999999918
1.5262892246246338,0.0729227066040039,0.2604050040245056,5.959999999999917
1.505014181137085,0.15467357635498047,0.28024739027023315,5.969999999999917
1.4297311305999756,0.22771453857421875,0.3403986692428589,5.979999999999917
1.2595503330230713,0.2849006652832031,0.522225558757782,5.989999999999917
1.0399342775344849,0.39327430725097656,0.8258165121078491,5.9999999999999165
0.7374283075332642,0.56243896484375,1.2848154306411743,6.009999999999916
0.4476858377456665,0.7613449096679688,1.9137667417526245,6.019999999999916
0.22598958015441895,0.9853286743164062,2.5714778900146484,6.029999999999916
0.17081820964813232,1.3014087677001953,3.250206470489502,6.039999999999916
0.10517573356628418,1.501307487487793,3.776360511779785,6.0499999999999154
0.00978541374206543,1.5847139358520508,4.054359436035156,6.059999999999915
0.2849200963973999,1.6661748886108398,4.270698070526123,6.069999999999915
0.8506422638893127,1.6306800842285156,4.513803482055664,6.079999999999915
0.9679070711135864,1.913003921508789,4.664272308349609,6.089999999999915
1.1216504573822021,2.2540273666381836,4.7861552238464355,6.099999999999914
1.3485119342803955,2.5026893615722656,4.841777801513672,6.109999999999914
1.630195140838623,2.6826820373535156,4.692986965179443,6.119999999999914
2.042598247528076,2.7269887924194336,4.431251525878906,6.129999999999914
2.5807390213012695,2.762439727783203,4.044910907745361,6.1399999999999135
3.148710012435913,2.726757049560547,3.495765209197998,6.149999999999913
3.631519317626953,2.7633981704711914,2.9083731174468994,6.159999999999913
4.062403678894043,2.7526817321777344,2.378787040710449,6.169999999999913
4.452851295471191,2.7832260131835938,1.9461936950683594,6.179999999999913
5.000983238220215,2.718961715698242,1.669486403465271,6.1899999999999125
5.411867141723633,2.6726455688476562,1.4976587295532227,6.199999999999912
5.910088062286377,2.768904685974121,1.5279979705810547,6.209999999999912
6.148315906524658,2.8954334259033203,1.683064341545105,6.219999999999912
6.219163417816162,3.0044431686401367,1.9545872211456299,6.229999999999912
5.777192115783691,3.0479278564453125,2.3048019409179688,6.239999999999911
5.13502311706543,3.023005485534668,2.6130001544952393,6.249999999999911
4.443258285522461,3.010507583618164,2.8938746452331543,6.259999999999911
3.7384190559387207,3.0602502822875977,3.1378798484802246,6.269999999999911
2.873255968093872,3.2412071228027344,3.3162147998809814,6.2799999999999105
1.935369849205017,3.5650882720947266,3.249922275543213,6.28999999999991
1.108134388923645,3.864503860473633,3.0574676990509033,6.29999999999991
0.41683292388916016,3.960491180419922,2.793351173400879,6.30999999999991
-0.1738576889038086,3.882246971130371,2.3855950832366943,6.31999999999991
-0.4746668338775635,3.7616777420043945,1.6903233528137207,6.3299999999999095
-0.29872584342956543,3.3383731842041016,0.8191342949867249,6.339999999999909
0.07376670837402344,2.4621200561523438,-0.11681950092315674,6.349999999999909
0.41011106967926025,1.2292442321777344,-0.9484639167785645,6.359999999999909
0.744188666343689,0.15710067749023438,-1.77691650390625,6.369999999999909
0.8224807977676392,-0.634303092956543,-2.2089381217956543,6.379999999999908
0.9732149839401245,-1.6897220611572266,-2.3225955963134766,6.389999999999908
0.8866937160491943,-2.094728469848633,-2.4991464614868164,6.399999999999908
0.47774505615234375,-1.6843581199645996,-2.6993813514709473,6.409999999999908
-0.23112404346466064,-0.8441543579101562,-2.764862537384033,6.419999999999908
-0.8139337301254272,0.9204654693603516,-2.7285289764404297,6.429999999999907
-0.7167109251022339,2.692877769470215,-2.417569875717163,6.439999999999907
-0.45574820041656494,4.190884590148926,-1.7237849235534668,6.449999999999907
-0.5207817554473877,5.098869323730469,-0.9820038080215454,6.459999999999907
-1.0441324710845947,5.362181663513184,-0.537483811378479,6.4699999999999065
-1.719076156616211,5.323369979858398,-0.36818623542785645,6.479999999999906
-2.3579611778259277,5.281699180603027,-0.4048296809196472,6.489999999999906
-2.700908660888672,5.478795051574707,-0.36731234192848206,6.499999999999906
-3.0852513313293457,5.955144882202148,-0.17302054166793823,6.509999999999906
-3.5985546112060547,6.598112106323242,0.11504745483398438,6.519999999999905
-4.221554279327393,7.070391654968262,0.19980967044830322,6.529999999999905
-4.788499355316162,7.364985466003418,0.06765151023864746,6.539999999999905
-5.25024938583374,7.381595611572266,-0.2621546983718872,6.549999999999905
-5.54234504699707,7.101299285888672,-0.5982015132904053,6.559999999999905
-5.717804431915283,6.445425987243652,-0.8179479241371155,6.569999999999904
-5.649501800537109,5.629604339599609,-0.9702795743942261,6.579999999999904
-5.4919538497924805,4.701785087585449,-0.91886967420578,6.589999999999904
-5.266818523406982,4.080496788024902,-0.7275975942611694,6.599999999999904
-5.024460792541504,3.5259952545166016,-0.5935031175613403,6.6099999999999035
-4.739108085632324,3.116683006286621,-0.47414064407348633,6.619999999999903
-4.372685432434082,2.8208608627319336,-0.32242846488952637,6.629999999999903
-3.682514190673828,2.793429374694824,-0.40203189849853516,6.639999999999903
-3.0960938930511475,2.904147148132324,-0.6860582828521729,6.649999999999903
-2.4502015113830566,2.824967384338379,-1.4919439554214478,6.659999999999902
-1.007295846939087,2.377427101135254,-2.340204954147339,6.669999999999902
0.116413414478302,2.059915542602539,-3.822108268737793,6.679999999999902
0.6635258197784424,1.6225290298461914,-5.481450080871582,6.689999999999902
0.8472989201545715,1.0875768661499023,-7.532953262329102,6.699999999999902
0.8426059484481812,0.6843328475952148,-8.337536811828613,6.709999999999901
0.9057617783546448,0.31499576568603516,-8.32014274597168,6.719999999999901
1.2142876386642456,-0.09110164642333984,-7.94247579574585,6.729999999999901
1.5458660125732422,-0.5688982009887695,-7.377070903778076,6.739999999999901
2.0085649490356445,-0.979517936706543,-6.60012149810791,6.7499999999999005
2.153820514678955,-1.2572598457336426,-5.0015692710876465,6.7599999999999
2.1323230266571045,-1.4826107025146484,-3.8510751724243164,6.7699999999999
2.1522343158721924,-1.6631779670715332,-4.365943431854248,6.7799999999999
2.65726637840271,-1.8370122909545898,-5.003986835479736,6.7899999999999
2.5097315311431885,-2.3247556686401367,-5.639986038208008,6.7999999999998995
2.13893461227417,-2.9346771240234375,-6.3600664138793945,6.809999999999899
2.061802864074707,-3.464931011199951,-7.342291831970215,6.819999999999899
1.9479212760925293,-4.072729587554932,-8.113668441772461,6.829999999999899
1.4696444272994995,-4.717602729797363,-8.204973220825195,6.839999999999899
0.9554466009140015,-5.469720840454102,-7.825925827026367,6.849999999999898
0.6041162014007568,-5.976100921630859,-7.107019424438477,6.859999999999898
0.2746482491493225,-6.300373077392578,-6.221675395965576,6.869999999999898
0.24180054664611816,-6.55859375,-5.481759071350098,6.879999999999898
0.2685678005218506,-6.541756629943848,-4.624538421630859,6.8899999999998975
0.08682548999786377,-6.345013618469238,-3.7724459171295166,6.899999999999897
-0.16050148010253906,-6.127508163452148,-3.297451972961426,6.909999999999897
-0.5631191730499268,-5.839646816253662,-3.1894967555999756,6.919999999999897
-0.9261888265609741,-5.5682196617126465,-3.0989692211151123,6.929999999999897
-1.1596382856369019,-5.363948822021484,-2.9874796867370605,6.9399999999998965
-1.4431309700012207,-5.260456562042236,-2.9149606227874756,6.949999999999896
-1.5159235000610352,-5.2911810874938965,-2.8098132610321045,6.959999999999896
-1.5887720584869385,-5.3387346267700195,-2.698718309402466,6.969999999999896
-1.5805764198303223,-5.431728363037109,-2.6752166748046875,6.979999999999896
-1.745915174484253,-5.519839286804199,-2.440753698348999,6.989999999999895
-1.8058663606643677,-5.681665420532227,-2.40049409866333,6.999999999999895
-1.9355567693710327,-5.813983917236328,-2.380190849304199,7.009999999999895
-1.8884644508361816,-5.930792808532715,-2.3897812366485596,7.019999999999895
-1.707680106163025,-6.058006286621094,-2.360250234603882,7.0299999999998946
-1.5796643495559692,-6.030250549316406,-2.267975330352783,7.039999999999894
-1.3680227994918823,-5.9619221687316895,-2.233170986175537,7.049999999999894
-1.2281970977783203,-5.852372646331787,-2.196744680404663,7.059999999999894
-1.0070147514343262,-5.648344039916992,-2.0303730964660645,7.069999999999894
-0.8435677289962769,-5.361337661743164,-1.7660472393035889,7.0799999999998935
-0.7313539981842041,-4.950603008270264,-1.2798433303833008,7.089999999999893
-0.6641420125961304,-4.454294681549072,-0.715986967086792,7.099999999999893
-0.539534330368042,-3.7907824516296387,-0.09910440444946289,7.109999999999893
-0.42668235301971436,-3.1029586791992188,0.4095330238342285,7.119999999999893
-0.3750307559967041,-2.406686305999756,0.9667186737060547,7.129999999999892
-0.32805323600769043,-1.6340131759643555,1.6883153915405273,7.139999999999892
-0.5970317125320435,-0.7575020790100098,2.371521472930908,7.149999999999892
-0.7701328992843628,0.32001686096191406,3.0351548194885254,7.159999999999892
-1.117304801940918,1.6523513793945312,3.839176893234253,7.169999999999892
-1.5098185539245605,2.827840805053711,4.815563678741455,7.179999999999891
-2.1279749870300293,3.9249868392944336,5.478493690490723,7.189999999999891
-2.773664712905884,4.750301361083984,5.653708457946777,7.199999999999891
-3.2793731689453125,5.421680450439453,5.667990684509277,7.209999999999891
-3.7090961933135986,6.1715898513793945,5.7252278327941895,7.2199999999998905
-3.9197521209716797,7.06711483001709,5.763457298278809,7.22999999999989
-4.143864631652832,8.084117889404297,5.759749412536621,7.23999999999989
-4.168588161468506,8.873200416564941,5.430983066558838,7.24999999999989
-4.028017997741699,9.324056625366211,5.038222789764404,7.25999999999989
-3.6152641773223877,9.017731666564941,4.7139668464660645,7.269999999999889
-3.1722381114959717,7.703091621398926,4.30645751953125,7.279999999999889
-2.671412467956543,5.851652145385742,4.006166458129883,7.289999999999889
-2.2752466201782227,4.094834327697754,3.895678997039795,7.299999999999889
-1.8054805994033813,2.7096099853515625,3.9378774166107178,7.309999999999889
-1.474419116973877,1.4415884017944336,3.964404821395874,7.319999999999888
-1.22442626953125,0.11067771911621094,3.800044536590576,7.329999999999888
-1.0647209882736206,-1.3958539962768555,3.460627317428589,7.339999999999888
-0.900949239730835,-2.934199810028076,3.023106813430786,7.349999999999888
-1.1265537738800049,-3.9757637977600098,2.7173922061920166,7.3599999999998875
-1.644419550895691,-4.311187267303467,2.7696166038513184,7.369999999999887
-2.2284607887268066,-3.875286102294922,3.1029582023620605,7.379999999999887
-2.7160539627075195,-2.83504581451416,3.298602342605591,7.389999999999887
-2.7885148525238037,-1.6919755935668945,3.0905089378356934,7.399999999999887
-2.5845530033111572,-0.5212640762329102,2.514009475708008,7.4099999999998865
-2.2539196014404297,0.6264104843139648,1.5079617500305176,7.419999999999886
-1.9450498819351196,1.8088035583496094,0.2754964828491211,7.429999999999886
-1.7864338159561157,3.5742969512939453,-1.0770676136016846,7.439999999999886
-1.2589256763458252,5.321666717529297,-2.715881586074829,7.449999999999886
-1.3746006488800049,7.110480308532715,-4.568355560302734,7.459999999999885
-1.9502825736999512,8.626708030700684,-6.670626640319824,7.469999999999885
-2.9084866046905518,9.456280708312988,-8.717193603515625,7.479999999999885
-3.7295103073120117,9.744842529296875,-9.910642623901367,7.489999999999885
-3.9934730529785156,9.555712699890137,-9.783733367919922,7.4999999999998845
-3.529268741607666,8.812161445617676,-8.668124198913574,7.509999999999884
-2.9208197593688965,7.12025260925293,-7.509543418884277,7.519999999999884
-2.4858975410461426,4.269830703735352,-7.3575897216796875,7.529999999999884
-2.202733039855957,1.4128036499023438,-7.7153191566467285,7.539999999999884
-2.339533805847168,-0.8467044830322266,-7.978385925292969,7.5499999999998835
-2.3601791858673096,-2.497781276702881,-7.725336074829102,7.559999999999883
-2.1834397315979004,-3.340336322784424,-7.038774490356445,7.569999999999883
-1.8718044757843018,-3.7126235961914062,-6.070194244384766,7.579999999999883
-1.2651890516281128,-4.024139881134033,-5.085691928863525,7.589999999999883
-0.7250339984893799,-4.133790493011475,-4.2508721351623535,7.599999999999882
-0.1455695629119873,-4.077455043792725,-3.5256428718566895,7.609999999999882
0.4836235046386719,-3.8694543838500977,-2.7836148738861084,7.619999999999882
1.113081693649292,-3.272974967956543,-1.9536809921264648,7.629999999999882
1.6381196975708008,-2.2878894805908203,-1.432164192199707,7.6399999999998816
1.9687905311584473,-1.1410303115844727,-1.4959101676940918,7.649999999999881
2.1034412384033203,-0.025412559509277344,-2.0429816246032715,7.659999999999881
1.877038836479187,0.8416996002197266,-2.8350796699523926,7.669999999999881
1.4092814922332764,1.4774627685546875,-3.5831828117370605,7.679999999999881
1.0396603345870972,1.5314702987670898,-4.239037990570068,7.6899999999998805
0.5088419318199158,1.2202301025390625,-4.749292373657227,7.69999999999988
0.03022480010986328,1.0113534927368164,-5.129571914672852,7.70999999999988
-0.11833977699279785,0.9587440490722656,-5.522863388061523,7.71999999999988
-0.2056291103363037,0.9270715713500977,-5.857540130615234,7.72999999999988
-0.17969834804534912,0.7758073806762695,-6.205342769622803,7.739999999999879
0.11082148551940918,0.6630382537841797,-6.469916820526123,7.749999999999879
0.38400888442993164,0.6793241500854492,-6.675750732421875,7.759999999999879
0.558475136756897,0.6946439743041992,-6.340303897857666,7.769999999999879
0.9818865060806274,0.7990570068359375,-5.0611572265625,7.779999999999879
1.2774052619934082,0.7596654891967773,-2.9726688861846924,7.789999999999878
1.2251880168914795,0.2957792282104492,-0.8449228405952454,7.799999999999878
0.9361231327056885,-0.12421989440917969,0.7651327252388,7.809999999999878
0.9343483448028564,-0.12263679504394531,0.9384717345237732,7.819999999999878
1.0790876150131226,-0.13733386993408203,0.7274410724639893,7.8299999999998775
0.9992910623550415,-0.2518329620361328,0.424285888671875,7.839999999999877
0.8449773192405701,-0.5616788864135742,0.2230207324028015,7.849999999999877
0.8772500157356262,-1.2076635360717773,0.10032859444618225,7.859999999999877
0.9889131188392639,-1.7542247772216797,0.07501158118247986,7.869999999999877
1.0993928909301758,-2.070042610168457,0.10513395071029663,7.879999999999876
1.11618971824646,-2.23197078704834,0.20904523134231567,7.889999999999876
0.8842319250106812,-2.2043919563293457,0.24216969311237335,7.899999999999876
0.7147430181503296,-2.143000602722168,0.21039827167987823,7.909999999999876
0.4494783282279968,-1.9737720489501953,0.14096561074256897,7.919999999999876
0.5142906308174133,-1.7757282257080078,0.08214128017425537,7.929999999999875
0.5793178081512451,-1.491434097290039,-0.06414832919836044,7.939999999999875
0.7244648933410645,-1.4580106735229492,-0.24820056557655334,7.949999999999875
0.7882272005081177,-1.5434989929199219,-0.1296464055776596,7.959999999999875
0.6380277872085571,-1.2431488037109375,0.4823737144470215,7.9699999999998745
0.33572298288345337,-0.9186525344848633,1.1988272666931152,7.979999999999874
0.41795098781585693,-0.9791660308837891,1.8217524290084839,7.989999999999874
0.6264786124229431,-1.1590404510498047,2.0921943187713623,7.999999999999874
