AccX,AccY,AccZ,SampleRate
1.9869030714035034,-0.43203067779541016,0.47301629185676575,0
1.9402636289596558,-0.48131275177001953,0.5719737410545349,0.01
1.677107810974121,-0.4604339599609375,0.7007730007171631,0.02
1.417777419090271,-0.4745750427246094,0.8596112132072449,0.03
1.136132836341858,-0.49011802673339844,1.1201003789901733,0.04
0.8968930244445801,-0.4089622497558594,1.393563985824585,0.05
0.6405256986618042,-0.1929178237915039,1.6725488901138306,0.060000000000000005
0.5252023935317993,0.08137798309326172,1.997115969657898,0.07
0.3764868378639221,0.33977794647216797,2.3021059036254883,0.08
0.3405414819717407,0.5870847702026367,2.6130146980285645,0.09
0.40305328369140625,0.7634639739990234,2.878444194793701,0.09999999999999999
0.3604609966278076,0.8712053298950195,3.1281678676605225,0.10999999999999999
0.6864701509475708,1.1086339950561523,3.36089825630188,0.11999999999999998
0.797215461730957,1.3819952011108398,3.563042640686035,0.12999999999999998
1.104285478591919,1.6837873458862305,3.7907555103302,0.13999999999999999
1.4089579582214355,2.0687150955200195,4.08389139175415,0.15
1.389363169670105,2.710751533508301,4.131106376647949,0.16
1.3551552295684814,3.219461441040039,4.042381286621094,0.17
1.5922282934188843,3.6306076049804688,3.8009610176086426,0.18000000000000002
1.9105753898620605,3.8389110565185547,3.4786863327026367,0.19000000000000003
2.343193531036377,3.901948928833008,3.157212495803833,0.20000000000000004
2.798985719680786,3.8915843963623047,2.848639488220215,0.21000000000000005
3.2541794776916504,3.934642791748047,2.5819573402404785,0.22000000000000006
3.8070850372314453,4.033479690551758,2.429063558578491,0.23000000000000007
4.292838096618652,4.13545036315918,2.3301632404327393,0.24000000000000007
4.58922004699707,4.085134506225586,2.3093438148498535,0.25000000000000006
4.846366882324219,3.9687490463256836,2.2639927864074707,0.26000000000000006
4.963250160217285,3.760125160217285,2.3430309295654297,0.2700000000000001
4.972792625427246,3.4786386489868164,2.5043563842773438,0.2800000000000001
4.63523006439209,3.258390426635742,2.746687412261963,0.2900000000000001
4.2113142013549805,3.0707578659057617,3.044565200805664,0.3000000000000001
3.7182106971740723,2.8728342056274414,3.3458144664764404,0.3100000000000001
3.0445878505706787,2.7723512649536133,3.5833499431610107,0.3200000000000001
2.4122304916381836,2.7811899185180664,3.7084202766418457,0.3300000000000001
1.6983898878097534,2.820223808288574,3.6237125396728516,0.34000000000000014
0.7393688559532166,2.9418516159057617,3.3634610176086426,0.35000000000000014
0.040410399436950684,3.066868782043457,3.0911061763763428,0.36000000000000015
-0.5303422212600708,3.0613365173339844,2.8320209980010986,0.37000000000000016
-0.7771064043045044,2.786815643310547,2.5162229537963867,0.38000000000000017
-0.5727152824401855,2.3036718368530273,2.1455376148223877,0.3900000000000002
-0.2156275510787964,1.760542869567871,1.5224840641021729,0.4000000000000002
-0.17208969593048096,0.9496335983276367,0.8229914903640747,0.4100000000000002
-0.08113563060760498,-0.3866596221923828,-0.06113100051879883,0.4200000000000002
0.09567570686340332,-1.439234733581543,-1.1689876317977905,0.4300000000000002
-0.04066872596740723,-2.3874993324279785,-2.0507631301879883,0.4400000000000002
-0.4226311445236206,-3.013739585876465,-2.6677770614624023,0.45000000000000023
-0.5953727960586548,-3.4800543785095215,-2.6798017024993896,0.46000000000000024
-0.6382921934127808,-3.0920791625976562,-2.6825432777404785,0.47000000000000025
-0.5577598810195923,-2.076981544494629,-2.50217342376709,0.48000000000000026
-0.32670605182647705,-0.3967132568359375,-2.2097175121307373,0.49000000000000027
0.17321562767028809,1.6083898544311523,-1.5005406141281128,0.5000000000000002
0.5845832228660583,3.0739545822143555,-1.0046597719192505,0.5100000000000002
0.9280496835708618,4.042487144470215,-0.9281545877456665,0.5200000000000002
1.184791088104248,4.387531280517578,-1.384744644165039,0.5300000000000002
1.3680744171142578,4.502185821533203,-1.7623310089111328,0.5400000000000003
1.2631950378417969,4.783688545227051,-1.8455469608306885,0.5500000000000003
0.5306967496871948,5.255555152893066,-1.8043546676635742,0.5600000000000003
-0.3400907516479492,5.812108993530273,-1.6610107421875,0.5700000000000003
-1.3232550621032715,6.292789459228516,-1.4635632038116455,0.5800000000000003
-2.19626522064209,6.738142967224121,-1.2966666221618652,0.5900000000000003
-2.8346610069274902,7.03819465637207,-1.2221980094909668,0.6000000000000003
-3.330615520477295,7.186009407043457,-1.391780972480774,0.6100000000000003
-3.8471431732177734,7.086154937744141,-1.5747253894805908,0.6200000000000003
-4.373444080352783,6.827396392822266,-1.6530063152313232,0.6300000000000003
-4.8486008644104,6.383764266967773,-1.611749529838562,0.6400000000000003
-5.357400417327881,5.600379943847656,-1.527050495147705,0.6500000000000004
-5.728116989135742,5.051966667175293,-1.4081288576126099,0.6600000000000004
-5.812444686889648,4.829395294189453,-1.1985421180725098,0.6700000000000004
-5.543939590454102,4.643021583557129,-0.9389667510986328,0.6800000000000004
-4.7911505699157715,4.349282264709473,-0.6262788772583008,0.6900000000000004
-3.872884511947632,3.924123764038086,-0.24260997772216797,0.7000000000000004
-2.8476412296295166,3.5271644592285156,0.056258440017700195,0.7100000000000004
-2.092763900756836,3.0926332473754883,0.029355525970458984,0.7200000000000004
-1.5712988376617432,2.8129281997680664,-0.2985727787017822,0.7300000000000004
-0.8366337418556213,2.6418685913085938,-1.404024362564087,0.7400000000000004
0.17037492990493774,2.651585578918457,-3.0222530364990234,0.7500000000000004
0.9830594062805176,2.2450294494628906,-4.0599164962768555,0.7600000000000005
1.5215234756469727,1.4425296783447266,-5.257854461669922,0.7700000000000005
1.442420244216919,1.0627670288085938,-6.1846022605896,0.7800000000000005
1.602842092514038,0.7424688339233398,-8.36663818359375,0.7900000000000005
1.6145930290222168,0.6050891876220703,-10.144028663635254,0.8000000000000005
1.1991924047470093,0.27261924743652344,-9.78689956665039,0.8100000000000005
1.1378512382507324,-0.19975757598876953,-8.928780555725098,0.8200000000000005
1.4849607944488525,-0.7563772201538086,-8.051876068115234,0.8300000000000005
1.7956652641296387,-1.5863151550292969,-7.10515022277832,0.8400000000000005
1.8705555200576782,-2.2408394813537598,-6.322928428649902,0.8500000000000005
1.9325095415115356,-2.80230712890625,-6.205228805541992,0.8600000000000005
2.06142258644104,-3.509918212890625,-6.693570613861084,0.8700000000000006
2.0197129249572754,-4.39215612411499,-7.074740886688232,0.8800000000000006
1.7541279792785645,-5.081271171569824,-7.106312274932861,0.8900000000000006
1.3939423561096191,-5.4993696212768555,-7.093584060668945,0.9000000000000006
1.116355061531067,-5.633388519287109,-6.702866554260254,0.9100000000000006
1.1222368478775024,-5.628281593322754,-6.095595836639404,0.9200000000000006
1.025578260421753,-5.423062801361084,-5.536276340484619,0.9300000000000006
0.9461652040481567,-5.406010627746582,-5.093863487243652,0.9400000000000006
0.94886314868927,-5.582048416137695,-4.959648609161377,0.9500000000000006
0.9083795547485352,-5.740673542022705,-4.739083290100098,0.9600000000000006
0.8661651015281677,-5.733747482299805,-4.707356929779053,0.9700000000000006
0.8287346363067627,-5.477533340454102,-5.251887798309326,0.9800000000000006
-0.02611827850341797,-5.4858808517456055,-4.368731498718262,0.9900000000000007
-0.5403541326522827,-5.638296127319336,-3.3658692836761475,1.0000000000000007
-0.9507086277008057,-5.755881309509277,-2.8835079669952393,1.0100000000000007
-1.2347246408462524,-5.917431831359863,-2.753722906112671,1.0200000000000007
-1.4609787464141846,-6.1006364822387695,-2.874121904373169,1.0300000000000007
-1.6793051958084106,-6.197076797485352,-3.0134568214416504,1.0400000000000007
-1.9278959035873413,-6.335576057434082,-3.021517038345337,1.0500000000000007
-2.0922811031341553,-6.520630836486816,-2.8676369190216064,1.0600000000000007
-2.2277932167053223,-6.6968889236450195,-2.7913851737976074,1.0700000000000007
-2.157170295715332,-6.763458728790283,-2.711697816848755,1.0800000000000007
-2.0125539302825928,-6.76284646987915,-2.6819944381713867,1.0900000000000007
-1.8518809080123901,-6.603485584259033,-2.617191791534424,1.1000000000000008
-1.5873452425003052,-6.390352249145508,-2.3266260623931885,1.1100000000000008
-1.5167783498764038,-6.166506767272949,-1.832242488861084,1.1200000000000008
-1.5478533506393433,-5.826742172241211,-1.2754244804382324,1.1300000000000008
-1.530089020729065,-5.382774829864502,-0.9291763305664062,1.1400000000000008
-1.458477258682251,-4.812458038330078,-0.6888554096221924,1.1500000000000008
-1.4473803043365479,-3.868861675262451,-0.27315855026245117,1.1600000000000008
-1.4265121221542358,-2.532212257385254,0.2779068946838379,1.1700000000000008
-1.2603707313537598,-0.8276896476745605,0.978456974029541,1.1800000000000008
-1.0628340244293213,0.9452152252197266,1.9435958862304688,1.1900000000000008
-0.936290979385376,2.973123550415039,3.083545207977295,1.2000000000000008
-0.6371973752975464,5.093901634216309,4.436850070953369,1.2100000000000009
-0.6688692569732666,6.918207168579102,5.6826171875,1.2200000000000009
-1.0521984100341797,8.234641075134277,6.170123100280762,1.2300000000000009
-1.8040627241134644,8.699857711791992,6.104101657867432,1.2400000000000009
-2.9094018936157227,8.796427726745605,6.0521745681762695,1.2500000000000009
-4.064389705657959,9.163959503173828,6.020956039428711,1.260000000000001
-4.9135918617248535,9.579840660095215,5.996767044067383,1.270000000000001
-5.423796653747559,9.687193870544434,5.938260555267334,1.280000000000001
-5.4279465675354,9.244213104248047,5.60837459564209,1.290000000000001
-4.872498512268066,8.25088119506836,5.093736171722412,1.300000000000001
-4.146782398223877,6.962745666503906,4.623383045196533,1.310000000000001
-3.4019999504089355,5.336073875427246,4.233057022094727,1.320000000000001
-2.7573609352111816,3.6048479080200195,4.027419090270996,1.330000000000001
-2.0874009132385254,1.9459266662597656,3.8613030910491943,1.340000000000001
-1.5872015953063965,0.5766620635986328,3.6947920322418213,1.350000000000001
-1.0789966583251953,-0.6472568511962891,3.4623541831970215,1.360000000000001
-0.6537584066390991,-1.7314329147338867,3.187041997909546,1.370000000000001
-0.23064792156219482,-2.7485179901123047,2.901465892791748,1.380000000000001
0.39138710498809814,-3.811251640319824,2.474843978881836,1.390000000000001
0.7555152177810669,-4.8312764167785645,2.1181821823120117,1.400000000000001
0.5007451772689819,-5.665282726287842,1.9080016613006592,1.410000000000001
0.020365238189697266,-5.842981338500977,2.0462660789489746,1.420000000000001
-0.580234169960022,-5.213122844696045,2.1664016246795654,1.430000000000001
-0.7849977016448975,-4.289247989654541,2.0884227752685547,1.440000000000001
-0.6535148620605469,-3.2807016372680664,1.7903223037719727,1.450000000000001
-0.25964510440826416,-2.043003559112549,1.1936635971069336,1.460000000000001
0.27886831760406494,-0.9050989151000977,0.18231797218322754,1.470000000000001
0.8178325891494751,0.2578744888305664,-1.4456937313079834,1.480000000000001
0.970044732093811,1.025106430053711,-3.353817939758301,1.490000000000001
0.8036834001541138,1.8145647048950195,-5.25494909286499,1.500000000000001
-0.052520036697387695,3.134389877319336,-6.9352521896362305,1.5100000000000011
-1.2193665504455566,4.835555076599121,-8.157309532165527,1.5200000000000011
-2.609272003173828,6.813117980957031,-9.015013694763184,1.5300000000000011
-3.778477907180786,8.256373405456543,-10.288739204406738,1.5400000000000011
-4.611746788024902,9.086470603942871,-10.950450897216797,1.5500000000000012
-6.242846488952637,9.367159843444824,-10.619484901428223,1.5600000000000012
-7.4000935554504395,8.973870277404785,-9.257091522216797,1.5700000000000012
-6.319777488708496,9.349682807922363,-5.506268501281738,1.5800000000000012
-4.761117458343506,8.819530487060547,-2.6409668922424316,1.5900000000000012
-3.785033941268921,6.097694396972656,-2.1938695907592773,1.6000000000000012
-3.583735942840576,3.0559921264648438,-3.179133176803589,1.6100000000000012
-3.5877203941345215,0.5893220901489258,-4.584161758422852,1.6200000000000012
-3.166452646255493,-1.1641569137573242,-5.237347602844238,1.6300000000000012
-2.3601531982421875,-2.2892470359802246,-5.3446455001831055,1.6400000000000012
-1.424476146697998,-2.9924283027648926,-5.119372844696045,1.6500000000000012
-0.5070790648460388,-3.407874584197998,-4.854371070861816,1.6600000000000013
0.28772157430648804,-3.4856033325195312,-4.645569801330566,1.6700000000000013
1.108616828918457,-3.24263334274292,-4.354666233062744,1.6800000000000013
1.8363010883331299,-2.9537014961242676,-3.933725357055664,1.6900000000000013
2.5225048065185547,-2.4870667457580566,-3.4625203609466553,1.7000000000000013
2.916236400604248,-2.127737045288086,-3.154646635055542,1.7100000000000013
3.1343865394592285,-2.0141143798828125,-3.276495933532715,1.7200000000000013
3.206617832183838,-1.6285204887390137,-3.9649085998535156,1.7300000000000013
2.921220064163208,-1.1062517166137695,-5.035977363586426,1.7400000000000013
2.5835413932800293,-0.6060628890991211,-6.04279899597168,1.7500000000000013
2.1195709705352783,-0.10522842407226562,-6.950222969055176,1.7600000000000013
1.5073676109313965,0.10234642028808594,-7.452848434448242,1.7700000000000014
1.0561729669570923,0.3943777084350586,-7.778750419616699,1.7800000000000014
0.6942937970161438,0.8346004486083984,-7.745133399963379,1.7900000000000014
0.48749980330467224,1.2739448547363281,-7.465388298034668,1.8000000000000014
0.5033389329910278,1.5374565124511719,-6.866197109222412,1.8100000000000014
0.7770476341247559,1.5984525680541992,-5.768840789794922,1.8200000000000014
1.375471591949463,1.4395227432250977,-3.041548252105713,1.8300000000000014
1.7818527221679688,1.3138971328735352,-0.579077422618866,1.8400000000000014
1.3154399394989014,1.1880970001220703,1.0256389379501343,1.8500000000000014
0.5150322914123535,0.873713493347168,1.3808505535125732,1.8600000000000014
-0.16300058364868164,0.5078306198120117,1.3587243556976318,1.8700000000000014
-0.5379737615585327,0.023929595947265625,1.345961332321167,1.8800000000000014
-0.7245045900344849,-0.5394525527954102,1.5106841325759888,1.8900000000000015
-0.6787094473838806,-1.1846790313720703,1.738466739654541,1.9000000000000015
-0.3420913815498352,-1.8186025619506836,2.1593635082244873,1.9100000000000015
-0.07241249084472656,-2.2047457695007324,2.5438201427459717,1.9200000000000015
-0.20857930183410645,-2.5133700370788574,2.655001163482666,1.9300000000000015
-0.05586665868759155,-2.5892133712768555,2.42052960395813,1.9400000000000015
0.1369328498840332,-2.389589786529541,2.0377678871154785,1.9500000000000015
0.006006181240081787,-1.998612403869629,1.5382736921310425,1.9600000000000015
0.29606956243515015,-1.7177753448486328,1.0372262001037598,1.9700000000000015
0.42135900259017944,-1.5827789306640625,0.591900110244751,1.9800000000000015
0.3060440421104431,-1.5169057846069336,0.37358036637306213,1.9900000000000015
0.35248440504074097,-1.6563749313354492,0.5664353966712952,2.0000000000000013
0.7179762125015259,-1.9101319313049316,0.8236232399940491,2.010000000000001
1.1024680137634277,-2.03419828414917,0.731514036655426,2.020000000000001
1.3456250429153442,-1.8661112785339355,0.28356799483299255,2.0300000000000007
1.4693951606750488,-1.7026786804199219,-0.10695348680019379,2.0400000000000005
1.4931726455688477,-1.6514720916748047,-0.3047565817832947,2.0500000000000003
1.4931607246398926,-1.705216407775879,-0.2770417332649231,2.06
1.5554535388946533,-1.8135595321655273,-0.07668524980545044,2.07
1.7288281917572021,-1.7993903160095215,0.274442583322525,2.0799999999999996
1.6548643112182617,-1.5671520233154297,0.6952974796295166,2.0899999999999994
1.4600664377212524,-1.2605924606323242,1.097934365272522,2.099999999999999
1.4479990005493164,-1.056722640991211,1.4373376369476318,2.109999999999999
1.4842983484268188,-0.9051799774169922,1.7114523649215698,2.1199999999999988
1.43503999710083,-0.8010644912719727,1.8511426448822021,2.1299999999999986
1.4322298765182495,-0.8207616806030273,1.854017972946167,2.1399999999999983
1.365986943244934,-0.8014869689941406,1.7462637424468994,2.149999999999998
1.3032437562942505,-0.7026214599609375,1.6282732486724854,2.159999999999998
1.198660135269165,-0.5266008377075195,1.6173381805419922,2.1699999999999977
1.069002628326416,-0.34519100189208984,1.7422142028808594,2.1799999999999975
0.9790021181106567,-0.08421707153320312,1.9907543659210205,2.1899999999999973
0.9120932817459106,0.18689918518066406,2.3240911960601807,2.199999999999997
0.8684935569763184,0.3963775634765625,2.722242832183838,2.209999999999997
0.910477340221405,0.5083742141723633,3.1461427211761475,2.2199999999999966
0.9687676429748535,0.5707473754882812,3.475447654724121,2.2299999999999964
1.1630779504776,0.6695184707641602,3.683060646057129,2.239999999999996
1.3738224506378174,0.730351448059082,3.691598892211914,2.249999999999996
1.6176197528839111,0.8510580062866211,3.5310678482055664,2.259999999999996
1.8467116355895996,1.009861946105957,3.339568853378296,2.2699999999999956
2.1067535877227783,1.2185554504394531,3.2673707008361816,2.2799999999999954
2.0165460109710693,1.6610069274902344,3.300022602081299,2.289999999999995
1.802314043045044,2.054655075073242,3.397459030151367,2.299999999999995
1.6924092769622803,2.4281530380249023,3.459968328475952,2.3099999999999947
1.7914708852767944,2.652390480041504,3.3614115715026855,2.3199999999999945
2.0778775215148926,2.844639778137207,3.108915328979492,2.3299999999999943
2.3818178176879883,3.0072031021118164,2.781067132949829,2.339999999999994
2.7298598289489746,3.1112680435180664,2.3796048164367676,2.349999999999994
3.1579720973968506,3.2070369720458984,2.0836586952209473,2.3599999999999937
3.538951873779297,3.325554847717285,1.9005212783813477,2.3699999999999934
3.814734935760498,3.3352231979370117,1.753981590270996,2.3799999999999932
3.9749364852905273,3.3173742294311523,1.5487427711486816,2.389999999999993
4.047407150268555,3.2815208435058594,1.3403465747833252,2.399999999999993
3.9569389820098877,3.311333656311035,1.361588954925537,2.4099999999999926
3.6933040618896484,3.337482452392578,1.6157604455947876,2.4199999999999924
3.4240682125091553,3.4989213943481445,2.0871543884277344,2.429999999999992
3.068870782852173,3.7479944229125977,2.6400740146636963,2.439999999999992
2.802145481109619,4.0132036209106445,3.092632293701172,2.4499999999999917
2.4008030891418457,4.313750267028809,3.322052001953125,2.4599999999999915
1.9113600254058838,4.5513505935668945,3.3819375038146973,2.4699999999999913
1.29326331615448,4.957590103149414,3.208289623260498,2.479999999999991
0.6154758334159851,5.426540374755859,2.914069652557373,2.489999999999991
0.11677765846252441,5.675654411315918,2.612835645675659,2.4999999999999907
-0.18876540660858154,5.535318374633789,2.349233627319336,2.5099999999999905
-0.3033195734024048,4.89111328125,2.042898416519165,2.5199999999999902
-0.16930770874023438,4.06861686706543,1.6701922416687012,2.52999999999999
0.2920323610305786,3.036728858947754,1.2120654582977295,2.53999999999999
0.8630728125572205,2.1495113372802734,0.6137033700942993,2.5499999999999896
1.2925359010696411,1.4930038452148438,-0.166856050491333,2.5599999999999894
1.37332022190094,0.7564382553100586,-0.9495898485183716,2.569999999999989
1.4054590463638306,-0.2697477340698242,-1.6218132972717285,2.579999999999989
1.5468344688415527,-1.11090087890625,-2.286774158477783,2.5899999999999888
1.19705069065094,-1.6975011825561523,-2.759103775024414,2.5999999999999885
0.7292979955673218,-2.2875423431396484,-2.8633832931518555,2.6099999999999883
0.2065892219543457,-2.49959659576416,-2.529208183288574,2.619999999999988
-0.38952434062957764,-2.1223840713500977,-2.006491184234619,2.629999999999988
-0.908627986907959,-1.002558708190918,-1.4059019088745117,2.6399999999999877
-1.288366436958313,0.8930187225341797,-0.9020846486091614,2.6499999999999875
-1.6636576652526855,2.5589675903320312,-0.3831269145011902,2.6599999999999873
-1.9878300428390503,3.490078926086426,-0.2070765644311905,2.669999999999987
-2.2315897941589355,3.6408958435058594,-0.5132840871810913,2.679999999999987
-1.775078535079956,3.4331483840942383,-0.8030730485916138,2.6899999999999866
-1.8880810737609863,3.529378890991211,-0.8652603030204773,2.6999999999999864
-2.188305377960205,3.653773307800293,-0.7457605600357056,2.709999999999986
-2.4220504760742188,3.9494056701660156,-0.5043021440505981,2.719999999999986
-2.422940731048584,4.284468650817871,-0.34250640869140625,2.7299999999999858
-2.4477903842926025,4.539490699768066,-0.3097684383392334,2.7399999999999856
-2.615750551223755,4.772110939025879,-0.4128321409225464,2.7499999999999853
-2.849067211151123,4.891543388366699,-0.5673398971557617,2.759999999999985
-3.0590641498565674,4.8906965255737305,-0.6740038394927979,2.769999999999985
-3.223904848098755,4.855729103088379,-0.690454363822937,2.7799999999999847
-3.3304290771484375,4.89900016784668,-0.5737513303756714,2.7899999999999845
-3.266663074493408,4.884045600891113,-0.46465539932250977,2.7999999999999843
-3.228938579559326,4.488039970397949,-0.41991233825683594,2.809999999999984
-2.963571548461914,4.175262451171875,-0.4795790910720825,2.819999999999984
-2.6378579139709473,3.9549360275268555,-0.5731022357940674,2.8299999999999836
-2.3811395168304443,3.529942512512207,-0.770540714263916,2.8399999999999834
-1.8792507648468018,3.052959442138672,-1.1104172468185425,2.849999999999983
-1.2834827899932861,2.7316761016845703,-1.942793607711792,2.859999999999983
-0.7634608149528503,2.680461883544922,-3.2569825649261475,2.869999999999983
0.15482258796691895,2.6774778366088867,-4.390519142150879,2.8799999999999826
0.9315986633300781,2.135662078857422,-5.332716464996338,2.8899999999999824
1.2795979976654053,1.5175590515136719,-6.259411811828613,2.899999999999982
1.265782117843628,1.1841516494750977,-6.656341075897217,2.909999999999982
0.9349194765090942,0.6569938659667969,-6.88345193862915,2.9199999999999817
0.948053777217865,0.023285865783691406,-7.715362548828125,2.9299999999999815
0.9168429970741272,-0.5177555084228516,-7.7227630615234375,2.9399999999999813
0.7719690799713135,-0.9975767135620117,-6.80554723739624,2.949999999999981
0.5079028606414795,-1.2362422943115234,-5.656402587890625,2.959999999999981
0.317013144493103,-1.3299951553344727,-5.255458831787109,2.9699999999999807
0.5541725158691406,-1.5128941535949707,-5.072152614593506,2.9799999999999804
0.8705974221229553,-2.0026559829711914,-4.706572532653809,2.9899999999999802
1.057790994644165,-2.7017626762390137,-4.621029853820801,2.99999999999998
1.082563042640686,-2.5016775131225586,-5.510724067687988,3.00999999999998
0.9650672674179077,-2.4319844245910645,-6.015934467315674,3.0199999999999796
0.8466882109642029,-2.6855392456054688,-6.60492467880249,3.0299999999999794
0.753097653388977,-3.306983470916748,-6.93903112411499,3.039999999999979
0.566387951374054,-3.865429401397705,-6.837115287780762,3.049999999999979
0.36260223388671875,-4.267945766448975,-6.555328369140625,3.0599999999999787
0.18636846542358398,-4.556012153625488,-6.069140434265137,3.0699999999999785
0.21849137544631958,-4.718813896179199,-5.4492034912109375,3.0799999999999783
0.1948169469833374,-4.805379867553711,-4.897639751434326,3.089999999999978
0.1696186065673828,-4.902688026428223,-4.360962390899658,3.099999999999978
0.006202101707458496,-5.104395866394043,-4.082840919494629,3.1099999999999777
-0.00836479663848877,-5.338850975036621,-3.9864649772644043,3.1199999999999775
0.2171865701675415,-5.406998157501221,-4.024824142456055,3.1299999999999772
-0.0025576353073120117,-5.193988800048828,-4.614199638366699,3.139999999999977
-0.5034269094467163,-5.256914138793945,-3.5132596492767334,3.149999999999977
-0.6661248207092285,-5.427029132843018,-2.7906203269958496,3.1599999999999766
-0.8472747802734375,-5.66425895690918,-2.3133692741394043,3.1699999999999764
-0.8962442874908447,-5.89188814163208,-2.1029906272888184,3.179999999999976
-0.9182242155075073,-6.056811332702637,-2.0546655654907227,3.189999999999976
-1.0516806840896606,-6.294974327087402,-1.9606492519378662,3.1999999999999758
-1.2196643352508545,-6.450435161590576,-1.8429207801818848,3.2099999999999755
-1.3794001340866089,-6.661637783050537,-1.8357954025268555,3.2199999999999753
-1.428431749343872,-6.801507949829102,-1.7887372970581055,3.229999999999975
-1.3242647647857666,-6.8292036056518555,-1.6183362007141113,3.239999999999975
-1.220564365386963,-6.682083606719971,-1.4928772449493408,3.2499999999999747
-1.108672022819519,-6.409918308258057,-1.3535332679748535,3.2599999999999745
-1.0134762525558472,-6.072166442871094,-1.1412935256958008,3.2699999999999743
-1.070397973060608,-5.465545654296875,-0.7585721015930176,3.279999999999974
-1.1803913116455078,-4.747884273529053,-0.23978376388549805,3.289999999999974
-1.289019227027893,-3.9424309730529785,0.23665428161621094,3.2999999999999736
-1.2237802743911743,-3.1008644104003906,0.7099604606628418,3.3099999999999734
-1.0216574668884277,-2.1193504333496094,1.2625718116760254,3.319999999999973
-1.0085444450378418,-0.9706511497497559,1.8666911125183105,3.329999999999973
-1.0435588359832764,0.31564998626708984,2.3065810203552246,3.3399999999999728
-1.1894917488098145,1.7628660202026367,2.8582592010498047,3.3499999999999726
-1.4243569374084473,3.42879581451416,3.884021282196045,3.3599999999999723
-1.7484757900238037,4.927740097045898,4.682223320007324,3.369999999999972
-2.222412586212158,5.917766571044922,5.022524833679199,3.379999999999972
-2.6286423206329346,6.571915626525879,5.122766971588135,3.3899999999999717
-2.8811373710632324,7.053272247314453,5.341315269470215,3.3999999999999715
-3.3621113300323486,7.553435325622559,5.511732578277588,3.4099999999999713
-3.738741874694824,8.165692329406738,5.5275468826293945,3.419999999999971
-3.8075623512268066,8.734515190124512,5.418865203857422,3.429999999999971
-3.864666700363159,9.066170692443848,5.270266532897949,3.4399999999999706
-3.6380293369293213,9.014416694641113,5.3510870933532715,3.4499999999999704
-3.2399632930755615,8.401350021362305,5.526215553283691,3.45999999999997
-2.4760360717773438,7.159196853637695,5.382575988769531,3.46999999999997
-1.9061564207077026,5.725436210632324,4.781702995300293,3.47999999999997
-1.3972715139389038,4.375202178955078,4.186487197875977,3.4899999999999696
-1.1407266855239868,3.142136573791504,3.8843016624450684,3.4999999999999694
-1.1773792505264282,1.9663009643554688,3.725146532058716,3.509999999999969
-1.2097643613815308,0.6295328140258789,3.4330878257751465,3.519999999999969
-0.9599567651748657,-0.8637590408325195,2.9335076808929443,3.5299999999999687
-0.6596440076828003,-2.4968857765197754,2.387761116027832,3.5399999999999685
-0.6124258041381836,-3.875153064727783,2.047060489654541,3.5499999999999683
-0.9157756567001343,-4.647464275360107,2.030993938446045,3.559999999999968
-1.4009391069412231,-4.4994893074035645,2.132795572280884,3.569999999999968
-1.6103850603103638,-3.7895383834838867,2.2876667976379395,3.5799999999999677
-1.6648110151290894,-2.782388687133789,2.260936975479126,3.5899999999999674
-1.4867684841156006,-1.6468586921691895,1.8803000450134277,3.5999999999999672
-1.1704343557357788,-0.5654439926147461,1.1283700466156006,3.609999999999967
-1.048606038093567,0.4163703918457031,0.07537055015563965,3.619999999999967
-0.9603883028030396,1.3661012649536133,-1.1831943988800049,3.6299999999999666
-1.0341490507125854,2.1203813552856445,-2.8319411277770996,3.6399999999999664
-1.496874451637268,3.030705451965332,-4.581276893615723,3.649999999999966
-1.8500574827194214,3.9027233123779297,-6.143826484680176,3.659999999999966
-2.268678903579712,4.730731010437012,-7.527613639831543,3.6699999999999657
-2.642002582550049,5.554083824157715,-8.533963203430176,3.6799999999999655
-3.0783350467681885,6.081591606140137,-8.966073989868164,3.6899999999999653
-3.239856719970703,6.103130340576172,-8.999225616455078,3.699999999999965
-3.1046013832092285,5.6973724365234375,-8.484184265136719,3.709999999999965
-2.9625587463378906,4.959418296813965,-7.895631313323975,3.7199999999999647
-2.948085308074951,4.025216102600098,-7.308318614959717,3.7299999999999645
-2.7109251022338867,2.790886878967285,-6.362051963806152,3.7399999999999642
-2.5485873222351074,1.2290782928466797,-5.767664909362793,3.749999999999964
-2.331202507019043,-0.34733104705810547,-5.481616020202637,3.759999999999964
-2.014004945755005,-1.7522215843200684,-5.29913854598999,3.7699999999999636
-1.4236005544662476,-2.732761859893799,-5.137673377990723,3.7799999999999634
-0.8223369121551514,-3.2180705070495605,-4.998687744140625,3.789999999999963
-0.3101118803024292,-3.579374313354492,-4.891842365264893,3.799999999999963
0.262098491191864,-3.6468191146850586,-4.42802619934082,3.8099999999999627
0.80665123462677,-3.484877586364746,-4.168458938598633,3.8199999999999625
1.3170753717422485,-3.241636276245117,-3.88950777053833,3.8299999999999623
1.7417751550674438,-2.697038173675537,-3.6131415367126465,3.839999999999962
2.154052972793579,-1.9732508659362793,-3.4159328937530518,3.849999999999962
2.68369722366333,-1.256443977355957,-3.3726282119750977,3.8599999999999617
2.9808342456817627,-0.46938610076904297,-3.5412371158599854,3.8699999999999615
3.0319390296936035,0.05621528625488281,-4.024875164031982,3.8799999999999613
3.0001916885375977,0.4410285949707031,-4.819516658782959,3.889999999999961
3.128310203552246,0.8849954605102539,-5.682084083557129,3.899999999999961
2.9308793544769287,1.181227684020996,-6.380610466003418,3.9099999999999606
2.425262928009033,1.4547624588012695,-6.933540344238281,3.9199999999999604
2.0076732635498047,1.655348777770996,-7.154428482055664,3.92999999999996
1.3072224855422974,1.9115724563598633,-7.055819034576416,3.93999999999996
0.8629164695739746,2.1915674209594727,-6.467068195343018,3.9499999999999598
0.3818744421005249,2.415386199951172,-5.044682502746582,3.9599999999999596
0.4867182970046997,2.251768112182617,-1.6727945804595947,3.9699999999999593
1.7376935482025146,1.7532272338867188,1.3431280851364136,3.979999999999959
1.6558159589767456,1.1212844848632812,2.1577370166778564,3.989999999999959
1.1458747386932373,0.8541336059570312,1.5053133964538574,3.9999999999999587
0.9368386268615723,0.7080039978027344,1.0118002891540527,4.009999999999959
0.5662586092948914,0.3911476135253906,0.828460693359375,4.019999999999959
0.19876062870025635,-0.09885406494140625,0.9851572513580322,4.0299999999999585
0.03615736961364746,-1.0417509078979492,1.3726963996887207,4.039999999999958
-0.09088444709777832,-1.4520587921142578,1.7177598476409912,4.049999999999958
-0.5146116018295288,-1.7658123970031738,1.8449561595916748,4.059999999999958
-0.7222036123275757,-2.054917812347412,1.8609511852264404,4.069999999999958
-0.5951757431030273,-2.3623838424682617,1.776696801185608,4.079999999999957
-0.45098912715911865,-2.4370980262756348,1.521860957145691,4.089999999999957
-0.7246377468109131,-2.4897899627685547,1.1143345832824707,4.099999999999957
-0.6836256980895996,-2.1259355545043945,0.6455743908882141,4.109999999999957
-0.5191470384597778,-1.9700822830200195,0.38860660791397095,4.119999999999957
-0.22807610034942627,-1.9238271713256836,0.3143141269683838,4.129999999999956
-0.19506502151489258,-1.7024240493774414,0.4092702567577362,4.139999999999956
-0.45156049728393555,-1.4735546112060547,0.8204798698425293,4.149999999999956
-0.3190075159072876,-1.6318778991699219,1.479408860206604,4.159999999999956
0.25190699100494385,-2.1267333030700684,1.883398175239563,4.1699999999999555
0.9264882802963257,-2.2474374771118164,1.7158540487289429,4.179999999999955
1.2198377847671509,-2.1449766159057617,1.2452623844146729,4.189999999999955
1.2084115743637085,-2.058770179748535,0.6644343137741089,4.199999999999955
1.231609582901001,-2.0868988037109375,0.31404221057891846,4.209999999999955
1.4138524532318115,-2.159886360168457,0.23120222985744476,4.2199999999999545
1.5394798517227173,-2.107962131500244,0.23113851249217987,4.229999999999954
1.7591514587402344,-1.991060733795166,0.34760618209838867,4.239999999999954
1.8956823348999023,-1.704054355621338,0.43740972876548767,4.249999999999954
2.1580090522766113,-1.4502983093261719,0.44335582852363586,4.259999999999954
2.1178548336029053,-1.069502830505371,0.5001943707466125,4.269999999999953
2.1313350200653076,-0.7985353469848633,0.4793985188007355,4.279999999999953
2.049443006515503,-0.6085844039916992,0.4412148892879486,4.289999999999953
1.883617877960205,-0.4565410614013672,0.3211316466331482,4.299999999999953
1.7820689678192139,-0.34473228454589844,0.24595117568969727,4.3099999999999525
1.6495506763458252,-0.2753276824951172,0.4052240252494812,4.319999999999952
1.4025938510894775,-0.1357250213623047,0.7659960985183716,4.329999999999952
1.0820285081863403,0.021524429321289062,1.208920955657959,4.339999999999952
0.695196270942688,0.2538871765136719,1.7506707906723022,4.349999999999952
0.3667450547218323,0.5374164581298828,2.3499956130981445,4.3599999999999515
0.18786835670471191,0.8170690536499023,2.924705743789673,4.369999999999951
0.08471560478210449,1.0688810348510742,3.476046085357666,4.379999999999951
0.06959915161132812,1.261652946472168,3.873422145843506,4.389999999999951
0.23132801055908203,1.400033950805664,4.172849655151367,4.399999999999951
0.5127853155136108,1.5507574081420898,4.284237384796143,4.40999999999995
0.832761287689209,1.7253894805908203,4.234748840332031,4.41999999999995
1.2322760820388794,1.784895896911621,4.157066345214844,4.42999999999995
1.4839657545089722,2.0303382873535156,4.069232940673828,4.43999999999995
1.6179133653640747,2.391693115234375,3.896437168121338,4.4499999999999496
1.6206791400909424,2.736948013305664,3.7201762199401855,4.459999999999949
1.7566264867782593,3.1041698455810547,3.5074493885040283,4.469999999999949
2.09930419921875,3.440667152404785,3.2564024925231934,4.479999999999949
2.5984349250793457,3.698704719543457,2.9627623558044434,4.489999999999949
3.1054506301879883,3.8377685546875,2.6916630268096924,4.4999999999999485
3.5527496337890625,3.8795013427734375,2.489102602005005,4.509999999999948
3.932201623916626,3.8526649475097656,2.281611204147339,4.519999999999948
4.247642993927002,3.8816747665405273,2.1083807945251465,4.529999999999948
4.416812896728516,3.777620315551758,2.0710103511810303,4.539999999999948
4.666572093963623,3.6962451934814453,2.0963799953460693,4.549999999999947
4.853670120239258,3.6665525436401367,2.3005073070526123,4.559999999999947
4.935997486114502,3.6122446060180664,2.559419631958008,4.569999999999947
4.542716026306152,3.6408166885375977,2.827320098876953,4.579999999999947
3.889477491378784,3.6036930084228516,3.112865447998047,4.589999999999947
3.367374897003174,3.6036834716796875,3.4745168685913086,4.599999999999946
2.9035496711730957,3.748274803161621,3.783895492553711,4.609999999999946
2.3842124938964844,4.082612037658691,4.006114482879639,4.619999999999946
1.817425012588501,4.393561363220215,3.9989218711853027,4.629999999999946
1.1602662801742554,4.477750778198242,3.8141045570373535,4.6399999999999455
0.49644410610198975,4.32820987701416,3.5491600036621094,4.649999999999945
0.18459677696228027,3.976254463195801,3.1937432289123535,4.659999999999945
0.15507292747497559,3.4505395889282227,2.7215631008148193,4.669999999999945
0.43452465534210205,2.7845582962036133,2.144029378890991,4.679999999999945
0.7600564360618591,2.062284469604492,1.3109569549560547,4.689999999999944
0.7267199158668518,0.9160032272338867,0.32111942768096924,4.699999999999944
0.7355917692184448,-0.13906002044677734,-0.8310167789459229,4.709999999999944
0.6264699101448059,-1.1381902694702148,-1.8050084114074707,4.719999999999944
0.3289135694503784,-2.2291550636291504,-2.4621479511260986,4.729999999999944
-0.009876728057861328,-2.7775135040283203,-2.6790518760681152,4.739999999999943
-0.2974729537963867,-2.861621379852295,-2.327847719192505,4.749999999999943
-0.20499467849731445,-2.356515407562256,-1.7623980045318604,4.759999999999943
0.5405408143997192,-0.8747386932373047,-1.5986584424972534,4.769999999999943
1.1693315505981445,1.1954288482666016,-1.8496921062469482,4.7799999999999425
1.0307047367095947,2.769512176513672,-1.7453792095184326,4.789999999999942
0.8002673983573914,3.713075637817383,-1.5728182792663574,4.799999999999942
0.9317564368247986,4.377671241760254,-1.704366683959961,4.809999999999942
1.282475233078003,4.661007881164551,-1.7440555095672607,4.819999999999942
1.0362132787704468,4.470405578613281,-1.661446452140808,4.8299999999999415
0.4262317419052124,4.289444923400879,-1.443830966949463,4.839999999999941
-0.2377331256866455,4.443263053894043,-1.0435811281204224,4.849999999999941
-0.8995977640151978,4.740063667297363,-0.6563847064971924,4.859999999999941
-1.5564708709716797,5.103024482727051,-0.47581982612609863,4.869999999999941
-2.1846842765808105,5.4195661544799805,-0.44020748138427734,4.87999999999994
-2.6015334129333496,5.613142967224121,-0.5246363878250122,4.88999999999994
-2.971649169921875,5.695822715759277,-0.6109428405761719,4.89999999999994
-3.4427876472473145,5.839876174926758,-0.6261378526687622,4.90999999999994
-3.8242664337158203,5.875461578369141,-0.4628671407699585,4.9199999999999395
-4.149381160736084,5.733437538146973,-0.25022053718566895,4.929999999999939
-4.540255069732666,5.54067325592041,-0.0187380313873291,4.939999999999939
-4.897209644317627,5.258635520935059,0.18015074729919434,4.949999999999939
-4.655963897705078,4.951529502868652,0.43679237365722656,4.959999999999939
-3.993410587310791,4.401592254638672,0.5128705501556396,4.9699999999999385
-3.362370014190674,3.840970993041992,0.33437180519104004,4.979999999999938
-2.468517780303955,3.5993967056274414,-0.03556370735168457,4.989999999999938
-1.8630497455596924,3.2383031845092773,-0.7357766628265381,4.999999999999938
-1.2180426120758057,3.206509590148926,-2.078866481781006,5.009999999999938
-0.035041749477386475,3.0957517623901367,-3.512356758117676,5.019999999999937
0.9733924865722656,2.2215261459350586,-4.722807884216309,5.029999999999937
1.3831310272216797,1.4576444625854492,-5.739599227905273,5.039999999999937
1.460200548171997,1.1027441024780273,-7.095400810241699,5.049999999999937
1.2103707790374756,0.6123466491699219,-8.988924026489258,5.0599999999999365
0.867402970790863,0.24039649963378906,-9.383329391479492,5.069999999999936
0.9048515558242798,-0.25783348083496094,-9.282892227172852,5.079999999999936
0.6747088432312012,-0.45677661895751953,-8.616483688354492,5.089999999999936
0.7557578086853027,-0.6173410415649414,-7.06995153427124,5.099999999999936
1.4713051319122314,-0.9971113204956055,-6.245538711547852,5.1099999999999355
2.00494384765625,-1.42401123046875,-5.949925422668457,5.119999999999935
2.4056942462921143,-1.7311878204345703,-5.506891250610352,5.129999999999935
2.7407000064849854,-2.115449905395508,-5.43174934387207,5.139999999999935
2.69863224029541,-2.816525936126709,-5.688797950744629,5.149999999999935
2.5575311183929443,-3.5996127128601074,-6.509286880493164,5.159999999999934
2.076413631439209,-4.39782190322876,-6.935687065124512,5.169999999999934
1.479043960571289,-5.152083396911621,-6.871786117553711,5.179999999999934
0.9618420600891113,-5.743736267089844,-6.585025787353516,5.189999999999934
0.8042742013931274,-6.1593017578125,-6.070509433746338,5.199999999999934
0.8632365465164185,-6.402275085449219,-5.377893924713135,5.209999999999933
0.797753095626831,-6.52386999130249,-4.831965923309326,5.219999999999933
0.5708431601524353,-6.5799031257629395,-4.408300876617432,5.229999999999933
0.5442877411842346,-6.4748454093933105,-4.1763811111450195,5.239999999999933
0.2982276678085327,-5.943544864654541,-4.793527126312256,5.2499999999999325
-0.5569062232971191,-5.832607746124268,-3.8128180503845215,5.259999999999932
-1.122118592262268,-5.6956024169921875,-3.2076327800750732,5.269999999999932
-1.5480670928955078,-5.621587753295898,-2.7712996006011963,5.279999999999932
-1.8506858348846436,-5.742086887359619,-2.5154266357421875,5.289999999999932
-1.925949215888977,-5.949049949645996,-2.351400136947632,5.299999999999931
-2.01450252532959,-5.938175678253174,-2.3178539276123047,5.309999999999931
-2.202284336090088,-5.981902599334717,-2.3553643226623535,5.319999999999931
-2.343945026397705,-6.110936164855957,-2.1917500495910645,5.329999999999931
-2.3890738487243652,-6.2626190185546875,-2.0690481662750244,5.339999999999931
-2.5820186138153076,-6.474968910217285,-1.898862361907959,5.34999999999993
-2.5384631156921387,-6.580324172973633,-1.810598611831665,5.35999999999993
-2.338160991668701,-6.633294105529785,-1.7091169357299805,5.36999999999993
-2.158824920654297,-6.6166181564331055,-1.6453628540039062,5.37999999999993
-1.9772379398345947,-6.508334159851074,-1.5051889419555664,5.3899999999999295
-1.8588882684707642,-6.272287845611572,-1.2916154861450195,5.399999999999929
-1.813780426979065,-5.941610336303711,-1.0985617637634277,5.409999999999929
-1.6861200332641602,-5.4679765701293945,-0.948042631149292,5.419999999999929
-1.54739511013031,-4.793313980102539,-0.7979598045349121,5.429999999999929
-1.2941352128982544,-3.9934582710266113,-0.6111838817596436,5.4399999999999284
-0.9870643615722656,-2.90498685836792,-0.29555416107177734,5.449999999999928
-0.7176353931427002,-1.4769840240478516,0.13071298599243164,5.459999999999928
-0.6208066940307617,0.10268974304199219,0.6288995742797852,5.469999999999928
-0.6766059398651123,1.7045879364013672,1.2773206233978271,5.479999999999928
-0.5365921258926392,3.577505111694336,2.255941152572632,5.489999999999927
-0.3469353914260864,5.523621559143066,3.781435489654541,5.499999999999927
-0.4630833864212036,7.290677070617676,5.346438884735107,5.509999999999927
-1.0607792139053345,8.55473804473877,6.373563766479492,5.519999999999927
-2.1781585216522217,9.377923011779785,6.819952964782715,5.5299999999999265
-3.3019144535064697,9.992315292358398,7.011655330657959,5.539999999999926
-3.923081636428833,10.457783699035645,7.074895858764648,5.549999999999926
-4.004364013671875,10.554339408874512,6.951719760894775,5.559999999999926
-3.895390510559082,10.03325366973877,6.734888076782227,5.569999999999926
-3.539754867553711,8.992218971252441,6.556380271911621,5.5799999999999255
-3.010565757751465,7.480744361877441,6.346291542053223,5.589999999999925
-2.4520034790039062,5.72104549407959,5.773934364318848,5.599999999999925
-1.9990293979644775,3.9619760513305664,5.139618873596191,5.609999999999925
-1.7311078310012817,2.5120105743408203,4.740715026855469,5.619999999999925
-1.5729751586914062,1.2437820434570312,4.563746452331543,5.629999999999924
-1.1943546533584595,0.03436565399169922,4.400102615356445,5.639999999999924
-0.571582555770874,-1.3417882919311523,4.043613433837891,5.649999999999924
-0.025174856185913086,-2.8368682861328125,3.5190789699554443,5.659999999999924
0.2753007411956787,-4.159050464630127,3.118579149246216,5.6699999999999235
-0.19615912437438965,-4.820958137512207,2.8279852867126465,5.679999999999923
-0.7776440382003784,-4.465092182159424,2.6604013442993164,5.689999999999923
-1.0900670289993286,-3.497499465942383,2.5221495628356934,5.699999999999923
-1.227418303489685,-2.1780638694763184,2.2310163974761963,5.709999999999923
-1.1856509447097778,-0.6731204986572266,1.6816093921661377,5.7199999999999225
-0.9094878435134888,0.7198848724365234,0.7543509006500244,5.729999999999922
-0.5989799499511719,1.7094202041625977,-0.6405816078186035,5.739999999999922
-0.3240394592285156,2.632143020629883,-2.2922110557556152,5.749999999999922
-0.18130362033843994,3.5314807891845703,-4.115313529968262,5.759999999999922
-0.5294733047485352,4.783472061157227,-5.761078357696533,5.769999999999921
-0.8775506019592285,6.12696647644043,-7.520405292510986,5.779999999999921
-1.4950971603393555,7.433472633361816,-9.196783065795898,5.789999999999921
-2.5689306259155273,8.044634819030762,-10.03782844543457,5.799999999999921
-3.431194305419922,7.893069267272949,-10.390362739562988,5.809999999999921
-4.0431318283081055,6.806155204772949,-10.380196571350098,5.81999999999992
-4.676700592041016,4.970475196838379,-10.12177562713623,5.82999999999992
-4.732029438018799,2.9961776733398438,-9.417292594909668,5.83999999999992
-4.02653694152832,1.118617057800293,-7.6147003173828125,5.84999999999992
-3.4343080520629883,-0.4012460708618164,-5.7432379722595215,5.8599999999999195
-2.8805127143859863,-1.8304271697998047,-4.826101303100586,5.869999999999919
-2.207486629486084,-2.971001148223877,-4.498029708862305,5.879999999999919
-1.5128421783447266,-3.529231548309326,-4.25858736038208,5.889999999999919
-0.7112175226211548,-3.785085678100586,-3.922092914581299,5.899999999999919
-0.16289782524108887,-3.7837986946105957,-3.523465871810913,5.909999999999918
0.3357016444206238,-3.6805367469787598,-3.0860326290130615,5.919999999999918
0.8582015633583069,-3.4653563499450684,-2.475433349609375,5.929999999999918
1.54993736743927,-3.061422348022461,-1.9950335025787354,5.939999999999918
2.198578357696533,-2.279475212097168,-1.8115818500518799,5.949999999999918
2.512209415435791,-1.234278678894043,-2.0212607383728027,5.959999999999917
2.644225597381592,-0.3822174072265625,-2.633405923843384,5.969999999999917
2.7050626277923584,0.36902332305908203,-3.7037949562072754,5.979999999999917
2.547390937805176,0.9467191696166992,-4.848799705505371,5.989999999999917
2.4010701179504395,1.2061138153076172,-5.849855422973633,5.9999999999999165
2.343214273452759,1.514211654663086,-6.812613487243652,6.009999999999916
1.7024824619293213,1.9313936233520508,-7.6313395500183105,6.019999999999916
1.3042570352554321,2.2545166015625,-8.23538589477539,6.029999999999916
0.9311516880989075,2.4808778762817383,-8.34864616394043,6.039999999999916
0.5874468684196472,2.693470001220703,-8.174066543579102,6.0499999999999154
0.011255741119384766,2.70941162109375,-7.558209419250488,6.059999999999915
-0.3587378263473511,2.4820547103881836,-5.870185375213623,6.069999999999915
0.6525376439094543,1.8480157852172852,-2.596433162689209,6.079999999999915
2.2819392681121826,1.159261703491211,0.185927152633667,6.089999999999915
2.677825927734375,0.24161148071289062,1.414412021636963,6.099999999999914
2.307396650314331,-0.40201282501220703,1.1849942207336426,6.109999999999914
1.6053587198257446,-0.7308435440063477,0.8267121315002441,6.119999999999914
1.0867071151733398,-0.8717460632324219,0.7188414931297302,6.129999999999914
0.7743709087371826,-1.0473337173461914,0.7592111825942993,6.1399999999999135
0.7044008374214172,-1.355783462524414,1.0806710720062256,6.149999999999913
1.0244412422180176,-1.9716367721557617,1.3718366622924805,6.159999999999913
0.9433778524398804,-2.0674071311950684,1.3721147775650024,6.169999999999913
0.6846587657928467,-1.9499411582946777,1.114767074584961,6.179999999999913
0.43374353647232056,-2.014016628265381,0.8401620984077454,6.1899999999999125
0.40482038259506226,-2.0847764015197754,0.6280291676521301,6.199999999999912
0.4189959168434143,-2.0976433753967285,0.5201165676116943,6.209999999999912
0.41715824604034424,-2.1004700660705566,0.32809680700302124,6.219999999999912
0.2513132691383362,-1.913930892944336,0.1289297491312027,6.229999999999912
0.19886332750320435,-1.7845759391784668,0.05229334533214569,6.239999999999911
0.15185868740081787,-1.5904111862182617,-0.01878131926059723,6.249999999999911
0.07912790775299072,-1.482151985168457,0.1236792802810669,6.259999999999911
0.19669049978256226,-1.5074234008789062,0.34069618582725525,6.269999999999911
0.48579418659210205,-1.6062078475952148,0.6609184145927429,6.2799999999999105
0.5539493560791016,-1.6086559295654297,0.976603627204895,6.28999999999991
0.6456011533737183,-1.617680549621582,1.1867682933807373,6.29999999999991
0.6531925797462463,-1.4180784225463867,1.2816869020462036,6.30999999999991
0.6434402465820312,-1.1799030303955078,1.192623257637024,6.31999999999991
0.8171733617782593,-1.142308235168457,1.0561816692352295,6.3299999999999095
0.8370053768157959,-1.0324735641479492,0.8480192422866821,6.339999999999909
1.026672124862671,-0.9341535568237305,0.6533315777778625,6.349999999999909
0.6274895668029785,-0.6609563827514648,0.4710114598274231,6.359999999999909
0.3999568819999695,-0.5862293243408203,0.3319081962108612,6.369999999999909
0.5426541566848755,-0.6307353973388672,0.3350844979286194,6.379999999999908
0.6581271290779114,-0.6889772415161133,0.4370669424533844,6.389999999999908
0.7266985177993774,-0.7584047317504883,0.5563260912895203,6.399999999999908
0.7985135316848755,-0.9225282669067383,0.6104247570037842,6.409999999999908
0.8069376349449158,-1.0423974990844727,0.6236182451248169,6.419999999999908
0.7761318683624268,-1.0533885955810547,0.6771994829177856,6.429999999999907
0.7277514934539795,-0.9148788452148438,0.7997267246246338,6.439999999999907
0.5255475640296936,-0.6365270614624023,1.038709282875061,6.449999999999907
0.3011128902435303,-0.22798728942871094,1.3245123624801636,6.459999999999907
0.11673188209533691,0.3059072494506836,1.7812976837158203,6.4699999999999065
0.02517116069793701,0.8312263488769531,2.3369736671447754,6.479999999999906
0.03381335735321045,1.242854118347168,2.9119858741760254,6.489999999999906
0.1978611946105957,1.4906463623046875,3.449921131134033,6.499999999999906
0.5125503540039062,1.6343183517456055,3.843498706817627,6.509999999999906
0.9040334224700928,1.6712064743041992,4.140493392944336,6.519999999999905
1.1351877450942993,1.8470802307128906,4.374080657958984,6.529999999999905
1.4537715911865234,2.0964298248291016,4.49414587020874,6.539999999999905
1.8656797409057617,2.2916698455810547,4.549156188964844,6.549999999999905
2.1065287590026855,2.4011354446411133,4.485526084899902,6.559999999999905
2.2684249877929688,2.5201473236083984,4.344095230102539,6.569999999999904
2.4965929985046387,2.7896032333374023,4.06343936920166,6.579999999999904
2.704700469970703,2.965566635131836,3.7575511932373047,6.589999999999904
3.0678563117980957,3.062854766845703,3.5189127922058105,6.599999999999904
3.431119918823242,3.163193702697754,3.2936482429504395,6.6099999999999035
3.821540355682373,3.242889404296875,3.1038177013397217,6.619999999999903
4.19395637512207,3.2446699142456055,2.853985071182251,6.629999999999903
4.5985260009765625,3.2236385345458984,2.544389247894287,6.639999999999903
5.0781145095825195,3.120119094848633,2.3022680282592773,6.649999999999903
5.296821594238281,2.9987058639526367,2.030039072036743,6.659999999999902
5.39933967590332,2.912097930908203,1.9947096109390259,6.669999999999902
5.367487907409668,2.9894628524780273,2.106837511062622,6.679999999999902
5.064135551452637,3.03212833404541,2.304928779602051,6.689999999999902
4.412069797515869,2.987248420715332,2.5502376556396484,6.699999999999902
3.729841470718384,2.955129623413086,2.8008952140808105,6.709999999999901
3.3038244247436523,2.950230598449707,3.0390663146972656,6.719999999999901
2.7673239707946777,3.130446434020996,3.096148729324341,6.729999999999901
1.9158730506896973,3.423849105834961,2.99535870552063,6.739999999999901
1.1382266283035278,3.717953681945801,2.788539409637451,6.7499999999999005
0.4804021120071411,3.9888429641723633,2.4270570278167725,6.7599999999999
-0.06480121612548828,4.104891777038574,2.0819685459136963,6.7699999999999
-0.30120158195495605,3.8126888275146484,1.8209755420684814,6.7799999999999
-0.07784843444824219,3.0671844482421875,1.5077630281448364,6.7899999999999
0.27542197704315186,2.1319093704223633,1.137561321258545,6.7999999999998995
0.476576566696167,0.9332246780395508,0.9365928769111633,6.809999999999899
0.29632019996643066,-0.35830116271972656,0.8161090016365051,6.819999999999899
0.06110107898712158,-1.139571189880371,0.5615203380584717,6.829999999999899
-0.37062251567840576,-2.0490927696228027,0.356170117855072,6.839999999999899
-0.9746612310409546,-2.8730506896972656,0.09515410661697388,6.849999999999898
-1.5228111743927002,-3.1676435470581055,-0.07205098867416382,6.859999999999898
-1.864738941192627,-2.673676013946533,0.03345298767089844,6.869999999999898
-1.998120665550232,-1.2216243743896484,0.3333050310611725,6.879999999999898
-0.9717726707458496,1.2971916198730469,0.2662730813026428,6.8899999999998975
0.2875239849090576,3.8331737518310547,-0.4098857343196869,6.899999999999897
0.9503762125968933,5.165270805358887,-1.7513431310653687,6.909999999999897
1.2632702589035034,5.446872711181641,-3.185056209564209,6.919999999999897
1.5263527631759644,5.32956600189209,-4.398519515991211,6.929999999999897
1.5421301126480103,4.747462272644043,-4.9918131828308105,6.9399999999998965
1.082275390625,4.172773361206055,-4.926370620727539,6.949999999999896
0.2907294034957886,4.19638729095459,-4.489306449890137,6.959999999999896
-0.6943677663803101,4.700470924377441,-3.9791159629821777,6.969999999999896
-1.4139238595962524,5.390359878540039,-3.3849878311157227,6.979999999999896
-1.7192128896713257,6.172511100769043,-2.5351829528808594,6.989999999999895
-2.350236177444458,6.8098039627075195,-1.7657171487808228,6.999999999999895
-2.9357824325561523,7.062893867492676,-1.1691534519195557,7.009999999999895
-3.4887890815734863,6.9008893966674805,-0.8322178721427917,7.019999999999895
-4.0326128005981445,6.386399269104004,-0.7327430248260498,7.0299999999998946
-4.349151134490967,5.641962051391602,-0.7726290225982666,7.039999999999894
-4.658229827880859,4.816396713256836,-0.8945145606994629,7.049999999999894
-4.904189109802246,4.273615837097168,-1.1746536493301392,7.059999999999894
-4.786922931671143,3.89870548248291,-1.192816972732544,7.069999999999894
-4.465466499328613,3.5764245986938477,-0.9288333654403687,7.0799999999998935
-3.925736427307129,3.368398666381836,-0.4979541301727295,7.089999999999893
-3.543339490890503,2.9750242233276367,-0.10618782043457031,7.099999999999893
-3.005267381668091,2.66127872467041,0.188706636428833,7.109999999999893
-2.538580894470215,2.354825973510742,0.2017197608947754,7.119999999999893
-2.2001752853393555,2.048233985900879,-0.020961999893188477,7.129999999999892
-1.9601271152496338,1.7700443267822266,-0.4764115810394287,7.139999999999892
-1.6362569332122803,1.5015544891357422,-1.5433111190795898,7.149999999999892
-1.1567635536193848,1.3412132263183594,-2.9900527000427246,7.159999999999892
-0.5202966332435608,1.4285545349121094,-4.402900218963623,7.169999999999892
0.11282658576965332,1.2974004745483398,-5.421637058258057,7.179999999999891
0.6287750601768494,0.8672285079956055,-7.053857803344727,7.189999999999891
0.4186873435974121,0.12467575073242188,-8.996272087097168,7.199999999999891
0.16875484585762024,-0.3181905746459961,-8.46226978302002,7.209999999999891
0.6382043957710266,-0.5794477462768555,-8.375190734863281,7.2199999999998905
0.6809328198432922,-0.8381805419921875,-8.142733573913574,7.22999999999989
0.8724627494812012,-1.4331178665161133,-7.68825101852417,7.23999999999989
1.0741524696350098,-2.2631478309631348,-7.027288436889648,7.24999999999989
1.5797200202941895,-2.845639228820801,-6.34050178527832,7.25999999999989
2.038464307785034,-2.854513168334961,-5.876541614532471,7.269999999999889
2.1894192695617676,-2.6529908180236816,-4.896369457244873,7.279999999999889
2.3374547958374023,-2.9709486961364746,-4.8514790534973145,7.289999999999889
2.3951759338378906,-3.3988900184631348,-5.059217929840088,7.299999999999889
2.322951316833496,-3.91518497467041,-5.139078140258789,7.309999999999889
1.930783748626709,-4.4673967361450195,-5.1504597663879395,7.319999999999888
1.574247121810913,-5.032362461090088,-5.058496475219727,7.329999999999888
1.3311543464660645,-5.467562675476074,-4.703807830810547,7.339999999999888
1.020466923713684,-5.702144145965576,-4.482534408569336,7.349999999999888
0.6747465133666992,-6.002313613891602,-4.365447521209717,7.3599999999998875
0.334628164768219,-6.237068176269531,-4.074981689453125,7.369999999999887
0.211189866065979,-6.1534423828125,-3.647317886352539,7.379999999999887
-0.16056764125823975,-5.785327434539795,-4.077849388122559,7.389999999999887
-1.0146064758300781,-5.885686874389648,-3.2139627933502197,7.399999999999887
-1.2963441610336304,-6.027221202850342,-2.308626174926758,7.4099999999998865
-1.4883079528808594,-6.2122111320495605,-2.0505354404449463,7.419999999999886
-1.5349109172821045,-6.487812042236328,-2.045224666595459,7.429999999999886
-1.5341511964797974,-6.750415802001953,-2.035140037536621,7.439999999999886
-1.6416511535644531,-6.9086480140686035,-2.064136266708374,7.449999999999886
-1.845486044883728,-6.928963661193848,-1.998490810394287,7.459999999999885
-1.9353671073913574,-6.880603313446045,-1.9964537620544434,7.469999999999885
-1.92086923122406,-6.901920795440674,-2.0941989421844482,7.479999999999885
-1.7540637254714966,-6.887153625488281,-2.141359806060791,7.489999999999885
-1.4542279243469238,-6.723518371582031,-2.188608407974243,7.4999999999998845
-1.218044638633728,-6.556623935699463,-2.090618371963501,7.509999999999884
-1.2087937593460083,-6.206816673278809,-1.934098482131958,7.519999999999884
-1.2188191413879395,-5.803147792816162,-1.652529239654541,7.529999999999884
-1.1791558265686035,-5.316714286804199,-1.3036744594573975,7.539999999999884
-1.1138375997543335,-4.728120803833008,-0.9524393081665039,7.5499999999998835
-0.9242081642150879,-4.106276512145996,-0.675713062286377,7.559999999999883
-0.8511360883712769,-3.3955116271972656,-0.3569159507751465,7.569999999999883
-0.7044212818145752,-2.499558925628662,0.022355079650878906,7.579999999999883
-0.6791934967041016,-1.4131441116333008,0.45164036750793457,7.589999999999883
-0.6333373785018921,-0.2383108139038086,0.9267933368682861,7.599999999999882
-0.6162601709365845,0.997715950012207,1.6022522449493408,7.609999999999882
-0.7801492214202881,2.533566474914551,2.5805323123931885,7.619999999999882
-0.965458869934082,4.10761833190918,3.7346351146698,7.629999999999882
-1.0374822616577148,5.732161521911621,5.058572292327881,7.6399999999998816
-1.2486923933029175,7.016688346862793,6.228921890258789,7.649999999999881
-2.158672571182251,7.882211685180664,6.819141864776611,7.659999999999881
-3.319316864013672,8.505904197692871,7.009496688842773,7.669999999999881
-4.117359638214111,9.110259056091309,7.089295387268066,7.679999999999881
-4.4144134521484375,9.585312843322754,6.973838806152344,7.6899999999998805
-4.376678466796875,9.763737678527832,6.714911937713623,7.69999999999988
-4.1002197265625,9.535194396972656,6.58032751083374,7.70999999999988
-3.556929111480713,8.657299041748047,6.576246738433838,7.71999999999988
-2.9316844940185547,7.179409027099609,6.387730121612549,7.72999999999988
-2.319937229156494,5.414633750915527,5.761641025543213,7.739999999999879
-1.875203251838684,3.753030776977539,5.127580642700195,7.749999999999879
-1.5716010332107544,2.318967819213867,4.600773811340332,7.759999999999879
-1.2379614114761353,1.025991439819336,4.177186965942383,7.769999999999879
-0.8185697793960571,-0.28447532653808594,3.7797176837921143,7.779999999999879
-0.270099401473999,-1.8066387176513672,3.2784314155578613,7.789999999999878
0.13221454620361328,-3.4736037254333496,2.695733070373535,7.799999999999878
0.1295006275177002,-4.835883617401123,2.2662413120269775,7.809999999999878
-0.41011834144592285,-5.396936416625977,2.0526201725006104,7.819999999999878
-1.17951238155365,-5.0316314697265625,1.8362298011779785,7.8299999999998775
-1.6636090278625488,-3.997781276702881,1.5905840396881104,7.839999999999877
-1.7506932020187378,-2.739536762237549,1.200732946395874,7.849999999999877
-1.4607508182525635,-1.3538060188293457,0.6476235389709473,7.859999999999877
-0.9989503622055054,-0.09967422485351562,-0.21700263023376465,7.869999999999877
-0.6816990375518799,0.9348688125610352,-1.495368242263794,7.879999999999876
-0.5813028812408447,1.9910507202148438,-3.035137891769409,7.889999999999876
-0.8112810850143433,3.3466930389404297,-4.543705463409424,7.899999999999876
-1.4336234331130981,4.913225173950195,-5.982606887817383,7.909999999999876
-2.187202215194702,6.512757301330566,-7.313616752624512,7.919999999999876
-3.104128360748291,7.952103614807129,-8.480871200561523,7.929999999999875
-3.621882677078247,8.760602951049805,-9.539491653442383,7.939999999999875
-3.979104995727539,8.926682472229004,-9.74484634399414,7.949999999999875
-4.6420488357543945,8.184547424316406,-9.279791831970215,7.959999999999875
-4.861413955688477,6.49384880065918,-8.81789779663086,7.9699999999998745
-4.136163711547852,4.660500526428223,-7.684511184692383,7.979999999999874
-3.2145962715148926,2.768291473388672,-6.239099502563477,7.989999999999874
-2.5841658115386963,0.7818574905395508,-5.569199085235596,7.999999999999874
