AccX,AccY,AccZ,SampleRate
1.3438470363616943,-0.00687408447265625,2.949413776397705,0
1.485747218132019,-0.08126068115234375,3.196789026260376,0.01
1.6644582748413086,-0.15261363983154297,3.252870559692383,0.02
1.8439525365829468,-0.3214111328125,3.217829465866089,0.03
1.9211795330047607,-0.40112781524658203,3.0746774673461914,0.04
1.962986946105957,-0.37522220611572266,2.9262216091156006,0.05
2.1273820400238037,-0.34660816192626953,2.834676742553711,0.060000000000000005
2.4606027603149414,-0.43703460693359375,2.80717134475708,0.07
2.6325364112854004,-0.1801462173461914,2.700197219848633,0.08
2.680999755859375,0.08398151397705078,2.609560489654541,0.09
2.7947375774383545,0.32182979583740234,2.5185387134552,0.09999999999999999
2.9901111125946045,0.7007293701171875,2.400836706161499,0.10999999999999999
3.077486038208008,1.124680519104004,2.277730703353882,0.11999999999999998
2.9888927936553955,1.5192298889160156,2.149022102355957,0.12999999999999998
2.849853754043579,1.9103784561157227,2.067121744155884,0.13999999999999999
2.687905788421631,2.2404661178588867,2.022362232208252,0.15
2.5721311569213867,2.4759435653686523,1.930666446685791,0.16
2.4883344173431396,2.722055435180664,1.8777364492416382,0.17
2.4990322589874268,2.9165725708007812,1.7673900127410889,0.18000000000000002
2.5878660678863525,3.0762853622436523,1.5442922115325928,0.19000000000000003
2.6667094230651855,3.246596336364746,1.3681577444076538,0.20000000000000004
2.7644052505493164,3.382025718688965,1.2267873287200928,0.21000000000000005
2.9050192832946777,3.3870534896850586,1.2351393699645996,0.22000000000000006
3.062511920928955,3.381603240966797,1.422490119934082,0.23000000000000007
3.0694878101348877,3.404110908508301,1.7058584690093994,0.24000000000000007
2.952402114868164,3.380526542663574,2.0713462829589844,0.25000000000000006
2.5295040607452393,3.526076316833496,2.480837821960449,0.26000000000000006
2.066577196121216,3.694695472717285,2.910402297973633,0.2700000000000001
1.7031651735305786,3.7741451263427734,3.405367851257324,0.2800000000000001
1.356645941734314,3.6953935623168945,3.886437177658081,0.2900000000000001
1.0018110275268555,3.559128761291504,4.233307838439941,0.3000000000000001
0.5795953273773193,3.4680986404418945,4.411434173583984,0.3100000000000001
0.08326947689056396,3.464949607849121,4.4120564460754395,0.3200000000000001
-0.37238824367523193,3.5443124771118164,4.195004940032959,0.3300000000000001
-0.8906601667404175,3.753535270690918,3.809357166290283,0.34000000000000014
-1.1034184694290161,3.9225292205810547,3.2735369205474854,0.35000000000000014
-0.9395791292190552,3.714231491088867,2.6400065422058105,0.36000000000000015
-0.6919475793838501,3.131524085998535,1.932597279548645,0.37000000000000016
-0.24365389347076416,2.5430498123168945,1.2676267623901367,0.38000000000000017
0.23056042194366455,1.8865671157836914,0.6457326412200928,0.3900000000000002
0.8162870407104492,1.343796730041504,0.18004882335662842,0.4000000000000002
1.349959135055542,0.7903175354003906,0.012822985649108887,0.4100000000000002
1.6675983667373657,0.3602619171142578,-0.12144672870635986,0.4200000000000002
1.9568015336990356,-0.034674644470214844,-0.5042543411254883,0.4300000000000002
2.0490150451660156,-0.6667375564575195,-0.8555018901824951,0.4400000000000002
2.114398241043091,-1.4608478546142578,-1.1230788230895996,0.45000000000000023
2.0923514366149902,-1.8299360275268555,-1.2224299907684326,0.46000000000000024
1.9190564155578613,-1.6061763763427734,-1.2415106296539307,0.47000000000000025
1.8083077669143677,-0.9950656890869141,-1.2865393161773682,0.48000000000000026
1.4982813596725464,0.4124155044555664,-1.4848120212554932,0.49000000000000027
0.7245827317237854,2.1420888900756836,-1.964494228363037,0.5000000000000002
-0.13065409660339355,3.3971195220947266,-2.3300962448120117,0.5100000000000002
-0.49516749382019043,4.462087631225586,-2.4827287197113037,0.5200000000000002
-0.5900061130523682,5.147433280944824,-2.6851539611816406,0.5300000000000002
-0.770403265953064,5.3932647705078125,-3.00126051902771,0.5400000000000003
-0.7026916742324829,5.171881675720215,-3.281161069869995,0.5500000000000003
-1.0513540506362915,5.065300941467285,-3.3436903953552246,0.5600000000000003
-1.8125340938568115,5.161928176879883,-3.102203845977783,0.5700000000000003
-2.805445671081543,5.332550048828125,-2.5130460262298584,0.5800000000000003
-3.8870067596435547,5.584577560424805,-1.699939250946045,0.5900000000000003
-4.694729328155518,5.664715766906738,-0.8167980909347534,0.6000000000000003
-5.244101524353027,5.580169677734375,-0.05914890766143799,0.6100000000000003
-5.4014482498168945,5.266085624694824,0.4644559621810913,0.6200000000000003
-5.20961856842041,4.961416244506836,0.724213719367981,0.6300000000000003
-5.004840850830078,4.548663139343262,0.8669259548187256,0.6400000000000003
-4.99152135848999,4.061122894287109,0.897904634475708,0.6500000000000004
-4.986608982086182,3.7760562896728516,0.74527907371521,0.6600000000000004
-4.763153553009033,3.6238527297973633,0.4615135192871094,0.6700000000000004
-4.266592979431152,3.6663990020751953,0.30510592460632324,0.6800000000000004
-3.74234676361084,3.3554887771606445,0.2505357265472412,0.6900000000000004
-3.26699161529541,3.0780906677246094,0.0205228328704834,0.7000000000000004
-2.6147098541259766,3.4028358459472656,-1.0955091714859009,0.7100000000000004
-1.4152315855026245,3.139681816101074,-2.531373977661133,0.7200000000000004
-0.20384901762008667,2.3123044967651367,-4.003603935241699,0.7300000000000004
0.41567090153694153,1.8897743225097656,-5.4160261154174805,0.7400000000000004
1.2209055423736572,1.4829216003417969,-7.010340213775635,0.7500000000000004
1.4610166549682617,0.8658304214477539,-8.810816764831543,0.7600000000000005
1.2304991483688354,0.369110107421875,-9.311906814575195,0.7700000000000005
0.7331565618515015,0.22856903076171875,-8.66666030883789,0.7800000000000005
0.5628682374954224,0.2187356948852539,-7.409238815307617,0.7900000000000005
0.8336461186408997,0.33979225158691406,-6.6624884605407715,0.8000000000000005
1.148834228515625,0.32349300384521484,-5.425734043121338,0.8100000000000005
1.6127219200134277,0.19275665283203125,-4.519143581390381,0.8200000000000005
1.8913495540618896,0.37222862243652344,-4.326925754547119,0.8300000000000005
2.1112234592437744,0.4275779724121094,-4.4462361335754395,0.8400000000000005
2.0043067932128906,0.1188497543334961,-4.898526668548584,0.8500000000000005
1.7843329906463623,-0.673222541809082,-5.649889945983887,0.8600000000000005
1.8019312620162964,-1.722221851348877,-6.7737135887146,0.8700000000000006
1.7810646295547485,-2.909335136413574,-7.6835527420043945,0.8800000000000006
1.5584146976470947,-4.020839691162109,-8.17732048034668,0.8900000000000006
1.3707629442214966,-5.069324016571045,-7.821654319763184,0.9000000000000006
1.0182217359542847,-5.968138217926025,-6.830589294433594,0.9100000000000006
0.5298083424568176,-6.373083591461182,-5.625598430633545,0.9200000000000006
-0.623748779296875,-6.163089752197266,-3.9530603885650635,0.9300000000000006
-0.2785937786102295,-6.548462390899658,-4.357842922210693,0.9400000000000006
0.14300739765167236,-6.920772552490234,-4.026520729064941,0.9500000000000006
0.15697240829467773,-7.067935943603516,-3.6315765380859375,0.9600000000000006
0.02891838550567627,-7.165640354156494,-3.1723697185516357,0.9700000000000006
-0.09369182586669922,-7.128654479980469,-2.8876469135284424,0.9800000000000006
-0.28177177906036377,-7.05845832824707,-2.4013936519622803,0.9900000000000007
-0.47907698154449463,-7.015633583068848,-1.8832969665527344,1.0000000000000007
-0.6697864532470703,-6.821268558502197,-1.4122810363769531,1.0100000000000007
-0.8707582950592041,-6.4921441078186035,-1.1178913116455078,1.0200000000000007
-1.1863564252853394,-6.0516767501831055,-1.3330564498901367,1.0300000000000007
-1.4656453132629395,-5.81020975112915,-1.4076237678527832,1.0400000000000007
-1.4126702547073364,-5.833614349365234,-1.639530897140503,1.0500000000000007
-1.4414360523223877,-5.783781051635742,-1.7974343299865723,1.0600000000000007
-1.3717608451843262,-5.731841087341309,-2.1761295795440674,1.0700000000000007
-1.3395980596542358,-5.641396522521973,-2.5318915843963623,1.0800000000000007
-1.1753337383270264,-5.500253677368164,-2.676140546798706,1.0900000000000007
-0.9079251289367676,-5.401370048522949,-2.7027437686920166,1.1000000000000008
-0.6380577087402344,-5.253557205200195,-2.5905468463897705,1.1100000000000008
-0.4855996370315552,-5.06866455078125,-2.349393367767334,1.1200000000000008
-0.45062923431396484,-4.79633092880249,-2.0225796699523926,1.1300000000000008
-0.42048847675323486,-4.462780952453613,-1.5766611099243164,1.1400000000000008
-0.5071231126785278,-4.098817348480225,-1.1266300678253174,1.1500000000000008
-0.43069005012512207,-3.840444564819336,-0.6248598098754883,1.1600000000000008
-0.6165792942047119,-3.3664422035217285,-0.1653151512145996,1.1700000000000008
-0.7306108474731445,-2.9343419075012207,0.2033991813659668,1.1800000000000008
-0.9338275194168091,-2.2943382263183594,0.681126594543457,1.1900000000000008
-1.2383227348327637,-1.5099544525146484,1.1729354858398438,1.2000000000000008
-1.556002140045166,-0.6780586242675781,1.698319911956787,1.2100000000000009
-1.799045443534851,0.46299076080322266,2.2458791732788086,1.2200000000000009
-1.8792166709899902,1.6720714569091797,3.034419536590576,1.2300000000000009
-1.8951905965805054,2.980428695678711,3.855347156524658,1.2400000000000009
-1.8907201290130615,3.998509407043457,4.3781890869140625,1.2500000000000009
-1.9222217798233032,5.241119384765625,4.635986328125,1.260000000000001
-2.3131375312805176,6.571639060974121,4.874843597412109,1.270000000000001
-2.9241702556610107,8.09267520904541,4.8427324295043945,1.280000000000001
-3.627075433731079,9.670233726501465,4.597579002380371,1.290000000000001
-4.169356346130371,11.155838966369629,4.319791793823242,1.300000000000001
-4.661555767059326,12.247566223144531,4.170912265777588,1.310000000000001
-4.995521545410156,12.38027572631836,4.30082368850708,1.320000000000001
-4.131531715393066,10.81301498413086,4.298341274261475,1.330000000000001
-3.037508010864258,8.594487190246582,4.467512130737305,1.340000000000001
-2.435354232788086,6.447151184082031,4.59321403503418,1.350000000000001
-2.083219528198242,4.607306480407715,4.696646690368652,1.360000000000001
-1.7235504388809204,2.932927131652832,4.966529369354248,1.370000000000001
-1.5474430322647095,1.2388238906860352,5.27577018737793,1.380000000000001
-1.229499340057373,-0.5429067611694336,5.344458103179932,1.390000000000001
-0.9440834522247314,-2.3890323638916016,4.969240188598633,1.400000000000001
-0.6614691019058228,-4.1178154945373535,4.203877925872803,1.410000000000001
-0.5624464750289917,-5.399057388305664,3.430999994277954,1.420000000000001
-0.8107929229736328,-5.970043659210205,2.839369535446167,1.430000000000001
-1.3976788520812988,-5.666762351989746,2.479682445526123,1.440000000000001
-2.2690157890319824,-4.662966728210449,2.2240664958953857,1.450000000000001
-2.666849136352539,-3.5438942909240723,1.8709807395935059,1.460000000000001
-2.6149492263793945,-2.2915639877319336,1.3311731815338135,1.470000000000001
-2.453824758529663,-1.1010494232177734,0.5706276893615723,1.480000000000001
-2.0418190956115723,-0.09972381591796875,-0.5000524520874023,1.490000000000001
-1.697159767150879,1.4280118942260742,-1.6871850490570068,1.500000000000001
-1.3332180976867676,3.1722421646118164,-3.2253847122192383,1.5100000000000011
-1.2478808164596558,4.886322975158691,-4.87711238861084,1.5200000000000011
-1.1511045694351196,6.338919639587402,-6.6669816970825195,1.5300000000000011
-1.4480454921722412,7.717559814453125,-8.455106735229492,1.5400000000000011
-2.083421230316162,8.749444007873535,-9.600799560546875,1.5500000000000012
-2.7353124618530273,9.734610557556152,-9.479133605957031,1.5600000000000012
-2.799504280090332,10.371641159057617,-8.097879409790039,1.5700000000000012
-2.299238443374634,10.193427085876465,-6.499501705169678,1.5800000000000012
-1.5148941278457642,8.33764934539795,-5.751206398010254,1.5900000000000012
-1.2964017391204834,5.419895172119141,-5.559289932250977,1.6000000000000012
-1.8284019231796265,2.610332489013672,-5.8547797203063965,1.6100000000000012
-2.5419113636016846,-0.10913658142089844,-6.585710048675537,1.6200000000000012
-2.6021318435668945,-2.150330066680908,-7.060639381408691,1.6300000000000012
-2.130232334136963,-3.5329456329345703,-6.977003574371338,1.6400000000000012
-1.5319288969039917,-4.427577495574951,-6.684523582458496,1.6500000000000012
-0.9596635103225708,-4.949957847595215,-6.125158309936523,1.6600000000000013
-0.48809003829956055,-5.155584335327148,-5.610318183898926,1.6700000000000013
-0.08458948135375977,-5.214076042175293,-5.108438014984131,1.6800000000000013
0.3228651285171509,-5.048573970794678,-4.539675712585449,1.6900000000000013
0.9170963764190674,-4.6209564208984375,-3.863405227661133,1.7000000000000013
1.440834879875183,-4.005671977996826,-3.162705659866333,1.7100000000000013
2.1068949699401855,-3.142871379852295,-2.7382924556732178,1.7200000000000013
2.6490707397460938,-2.0437707901000977,-2.710247039794922,1.7300000000000013
2.9293997287750244,-0.9700345993041992,-3.250577688217163,1.7400000000000013
2.8995468616485596,-0.09203720092773438,-4.177956581115723,1.7500000000000013
2.4008898735046387,0.39351749420166016,-5.077393531799316,1.7600000000000013
1.7335436344146729,0.6295680999755859,-5.839282989501953,1.7700000000000014
0.9705040454864502,0.4687824249267578,-6.281460285186768,1.7800000000000014
0.3792301416397095,0.2342538833618164,-6.291335582733154,1.7900000000000014
0.21022683382034302,0.3489694595336914,-6.200618743896484,1.8000000000000014
0.21602624654769897,0.6422004699707031,-5.976038455963135,1.8100000000000014
0.37599897384643555,1.1847648620605469,-5.4445576667785645,1.8200000000000014
0.6668241620063782,1.67425537109375,-4.374665260314941,1.8300000000000014
1.0337917804718018,1.9639081954956055,-2.758030414581299,1.8400000000000014
1.3671422004699707,1.8665904998779297,-1.1672194004058838,1.8500000000000014
1.241986632347107,1.4827547073364258,-0.10931050777435303,1.8600000000000014
0.5645886659622192,1.0925483703613281,0.032456398010253906,1.8700000000000014
0.4458615183830261,0.7896280288696289,-0.15103095769882202,1.8800000000000014
0.37592607736587524,0.2703208923339844,-0.15916115045547485,1.8900000000000015
0.14126098155975342,-0.37441253662109375,0.16539829969406128,1.9000000000000015
0.05494999885559082,-0.9748544692993164,0.660304844379425,1.9100000000000015
0.140655517578125,-1.378199577331543,0.9893902540206909,1.9200000000000015
0.26693224906921387,-1.6708412170410156,1.0819082260131836,1.9300000000000015
0.4412841796875,-1.8385767936706543,0.943273663520813,1.9400000000000015
0.6499568819999695,-1.9365148544311523,0.6434997320175171,1.9500000000000015
0.7763158679008484,-1.9910058975219727,0.400959312915802,1.9600000000000015
0.8446125984191895,-2.0068984031677246,0.14742562174797058,1.9700000000000015
0.8430054187774658,-1.8072996139526367,-0.18075355887413025,1.9800000000000015
0.904223620891571,-1.9135408401489258,-0.39060986042022705,1.9900000000000015
0.8010380864143372,-2.0239367485046387,-0.14080634713172913,2.0000000000000013
0.7513062357902527,-1.9806551933288574,0.2423250526189804,2.010000000000001
0.7128544449806213,-1.6713905334472656,0.7256786823272705,2.020000000000001
0.381547749042511,-1.3165626525878906,1.4567317962646484,2.0300000000000007
0.18670690059661865,-1.1938304901123047,2.2382359504699707,2.0400000000000005
0.6850730776786804,-1.453557014465332,2.6370651721954346,2.0500000000000003
1.3144255876541138,-1.7436580657958984,2.5518639087677,2.06
1.7931509017944336,-1.9252920150756836,2.1884617805480957,2.07
1.9305007457733154,-1.9722552299499512,1.8234341144561768,2.0799999999999996
2.080899953842163,-1.8680005073547363,1.5703829526901245,2.0899999999999994
2.1509101390838623,-1.5410699844360352,1.4089711904525757,2.099999999999999
2.0998215675354004,-1.063553810119629,1.2812561988830566,2.109999999999999
1.9657624959945679,-0.583949089050293,1.1898430585861206,2.1199999999999988
1.8705260753631592,-0.2553081512451172,1.09720778465271,2.1299999999999986
1.7684051990509033,-9.164810180664062E-4,0.9851023554801941,2.1399999999999983
1.754936933517456,0.10284709930419922,0.8759431838989258,2.149999999999998
1.6912331581115723,0.1781482696533203,0.7462694048881531,2.159999999999998
1.6060620546340942,0.1844167709350586,0.6681327819824219,2.1699999999999977
1.631213665008545,0.023795127868652344,0.6537643671035767,2.1799999999999975
1.613857626914978,-0.14557647705078125,0.7202115654945374,2.1899999999999973
1.5254578590393066,-0.32599830627441406,0.8939293026924133,2.199999999999997
1.4138094186782837,-0.4264993667602539,1.1227909326553345,2.209999999999997
1.343733310699463,-0.49486351013183594,1.4286612272262573,2.2199999999999966
1.1982474327087402,-0.42340564727783203,1.7398215532302856,2.2299999999999964
1.1213710308074951,-0.31264686584472656,1.9649074077606201,2.239999999999996
1.0249649286270142,-0.1434955596923828,2.1054978370666504,2.249999999999996
0.9210523962974548,0.15082454681396484,2.21317720413208,2.259999999999996
0.915073812007904,0.4983100891113281,2.33943247795105,2.2699999999999956
0.9615964293479919,0.829463005065918,2.452430486679077,2.2799999999999954
0.9290373921394348,1.1442642211914062,2.628506660461426,2.289999999999995
1.1408116817474365,1.2538814544677734,2.9104044437408447,2.299999999999995
1.0534050464630127,1.6701507568359375,3.0897693634033203,2.3099999999999947
0.9938527941703796,2.093578338623047,3.307614326477051,2.3199999999999945
1.0618767738342285,2.445039749145508,3.5348923206329346,2.3299999999999943
1.110520839691162,2.7098960876464844,3.6775665283203125,2.339999999999994
1.1271374225616455,3.0360889434814453,3.7921195030212402,2.349999999999994
1.3365217447280884,3.3729801177978516,3.812833309173584,2.3599999999999937
1.6645548343658447,3.6413965225219727,3.6623687744140625,2.3699999999999934
2.07248592376709,3.8292179107666016,3.426659107208252,2.3799999999999932
2.512120008468628,3.9219112396240234,2.9976119995117188,2.389999999999993
3.057112216949463,3.9790258407592773,2.4703919887542725,2.399999999999993
3.4458699226379395,4.00985050201416,2.0289530754089355,2.4099999999999926
3.7016563415527344,4.188775062561035,1.7164653539657593,2.4199999999999924
3.862154006958008,4.286137580871582,1.6774122714996338,2.429999999999992
3.989323139190674,4.350220680236816,1.925352692604065,2.439999999999992
4.1553497314453125,4.274005889892578,2.4355902671813965,2.4499999999999917
4.222081184387207,4.165715217590332,3.0633108615875244,2.4599999999999915
4.055690765380859,4.06131649017334,3.5432701110839844,2.4699999999999913
3.6661651134490967,3.908087730407715,3.848696231842041,2.479999999999991
3.235996723175049,3.703606605529785,4.0314717292785645,2.489999999999991
2.7133193016052246,3.4144058227539062,4.09549617767334,2.4999999999999907
2.259260416030884,3.0907936096191406,4.03513765335083,2.5099999999999905
1.7114477157592773,2.940670967102051,3.827738046646118,2.5199999999999902
0.950323224067688,2.8750009536743164,3.4740350246429443,2.52999999999999
0.22004163265228271,2.809741973876953,2.9366281032562256,2.53999999999999
-0.199171781539917,2.6398277282714844,2.466219663619995,2.5499999999999896
-0.36710262298583984,2.3155088424682617,1.988905668258667,2.5599999999999894
-0.25781726837158203,1.9065093994140625,1.406572699546814,2.569999999999989
0.24776530265808105,1.4870243072509766,0.7728831768035889,2.579999999999989
0.6993083953857422,0.8157491683959961,0.4054960012435913,2.5899999999999888
1.1164681911468506,0.09671688079833984,0.04584860801696777,2.5999999999999885
1.3080793619155884,-0.8298864364624023,-0.4765578508377075,2.6099999999999883
1.146637201309204,-1.887131690979004,-0.8993806838989258,2.619999999999988
1.124662160873413,-2.319021224975586,-1.2679342031478882,2.629999999999988
1.2038226127624512,-2.2666573524475098,-1.3982210159301758,2.6399999999999877
1.4396498203277588,-2.116896629333496,-1.4436554908752441,2.6499999999999875
1.4912309646606445,-1.1944036483764648,-1.5082029104232788,2.6599999999999873
1.198730230331421,0.4790525436401367,-1.6662063598632812,2.669999999999987
0.774944543838501,2.2811107635498047,-1.4839448928833008,2.679999999999987
0.18451237678527832,3.6564016342163086,-1.3793692588806152,2.6899999999999866
-0.0872645378112793,4.900979042053223,-1.464784860610962,2.6999999999999864
0.3991391658782959,5.744195938110352,-1.8515255451202393,2.709999999999986
0.8628919720649719,5.806334495544434,-2.164433479309082,2.719999999999986
0.65329909324646,5.707400321960449,-2.4372150897979736,2.7299999999999858
0.23491179943084717,5.629194259643555,-2.4517273902893066,2.7399999999999856
-0.35509419441223145,5.739166259765625,-2.245009422302246,2.7499999999999853
-1.1317096948623657,5.841213226318359,-1.9878097772598267,2.759999999999985
-1.9850283861160278,5.775507926940918,-1.7124760150909424,2.769999999999985
-2.808457136154175,5.681234359741211,-1.4848052263259888,2.7799999999999847
-3.5620882511138916,5.706696510314941,-1.3081583976745605,2.7899999999999845
-4.332036972045898,5.672170639038086,-1.1303666830062866,2.7999999999999843
-4.814476013183594,5.477021217346191,-0.8365219831466675,2.809999999999984
-5.164150714874268,5.2527265548706055,-0.643707275390625,2.819999999999984
-5.2234601974487305,4.910602569580078,-0.5145113468170166,2.8299999999999836
-5.118659496307373,4.656216621398926,-0.43066084384918213,2.8399999999999834
-5.0982346534729,4.589715957641602,-0.391437292098999,2.849999999999983
-4.987855434417725,4.452484130859375,-0.36800622940063477,2.859999999999983
-4.481910705566406,4.191767692565918,-0.20207905769348145,2.869999999999983
-3.954422950744629,3.8835268020629883,-0.10226798057556152,2.8799999999999826
-3.659292221069336,3.5959463119506836,-0.06982994079589844,2.8899999999999824
-3.0941104888916016,3.4528942108154297,-0.753697395324707,2.899999999999982
-1.6503362655639648,2.771718978881836,-1.9323927164077759,2.909999999999982
-0.3103957176208496,2.3412132263183594,-3.446810483932495,2.9199999999999817
0.5433962345123291,2.3939056396484375,-5.028428554534912,2.9299999999999815
0.832143247127533,1.9205589294433594,-6.510676383972168,2.9399999999999813
0.9032174944877625,1.1452217102050781,-8.594703674316406,2.949999999999981
0.8587976098060608,0.37297821044921875,-9.604155540466309,2.959999999999981
0.3659869432449341,0.024626731872558594,-9.635956764221191,2.9699999999999807
0.08811235427856445,-0.21129417419433594,-8.872857093811035,2.9799999999999804
0.1987026333808899,-0.1942424774169922,-7.919583320617676,2.9899999999999802
0.7277634739875793,-0.06372737884521484,-6.975864410400391,2.99999999999998
1.5465153455734253,-0.26747703552246094,-6.411046504974365,3.00999999999998
2.026841640472412,-0.5571146011352539,-6.005380630493164,3.0199999999999796
2.243950366973877,-0.7608671188354492,-6.228409767150879,3.0299999999999794
2.11779522895813,-0.9393024444580078,-6.518271446228027,3.039999999999979
1.765275001525879,-1.3804712295532227,-6.478463172912598,3.049999999999979
0.6548857092857361,-2.0197486877441406,-7.390563011169434,3.0599999999999787
1.1563552618026733,-3.6899609565734863,-8.829970359802246,3.0699999999999785
0.8476547598838806,-5.054910659790039,-8.932199478149414,3.0799999999999783
0.8865205645561218,-6.014810085296631,-8.47791862487793,3.089999999999978
0.9113090634346008,-6.538417816162109,-7.063094139099121,3.099999999999978
0.7801846265792847,-6.606922626495361,-5.536849498748779,3.1099999999999777
0.356035053730011,-6.533420562744141,-4.306053161621094,3.1199999999999775
-0.13809728622436523,-6.242389678955078,-3.587582588195801,3.1299999999999772
-0.6970969438552856,-6.091028213500977,-3.1154074668884277,3.139999999999977
-1.004773736000061,-6.024938106536865,-2.6571059226989746,3.149999999999977
-1.2099274396896362,-5.946619033813477,-2.439469814300537,3.1599999999999766
-1.302496314048767,-5.839799404144287,-2.280146837234497,3.1699999999999764
-1.4570220708847046,-5.82441520690918,-2.157397747039795,3.179999999999976
-1.6740436553955078,-5.788157939910889,-2.0522279739379883,3.189999999999976
-1.9088505506515503,-5.554193496704102,-1.8740592002868652,3.1999999999999758
-1.7981433868408203,-5.54547119140625,-1.8080310821533203,3.2099999999999755
-1.9215290546417236,-5.581666946411133,-2.022611379623413,3.2199999999999753
-2.061471939086914,-5.631038665771484,-2.1716978549957275,3.229999999999975
-2.1099724769592285,-5.793461322784424,-2.351621150970459,3.239999999999975
-1.9806010723114014,-5.974907875061035,-2.6084511280059814,3.2499999999999747
-1.9434852600097656,-6.129384994506836,-2.827877998352051,3.2599999999999745
-1.7042570114135742,-6.2111945152282715,-2.9336631298065186,3.2699999999999743
-1.3612815141677856,-6.370893478393555,-2.8781967163085938,3.279999999999974
-1.1155792474746704,-6.3284406661987305,-2.7310757637023926,3.289999999999974
-0.9214789867401123,-6.196078777313232,-2.552506685256958,3.2999999999999736
-0.6637964248657227,-6.107350826263428,-2.268766164779663,3.3099999999999734
-0.540937066078186,-5.9351806640625,-1.8944761753082275,3.319999999999973
-0.3808743953704834,-5.67711877822876,-1.470473289489746,3.329999999999973
-0.28905320167541504,-5.313930511474609,-1.0423533916473389,3.3399999999999728
-0.044890761375427246,-4.819034099578857,-0.5553288459777832,3.3499999999999726
-0.016105175018310547,-4.129881381988525,0.01642608642578125,3.3599999999999723
0.010510563850402832,-3.478120803833008,0.6864991188049316,3.369999999999972
-0.003139972686767578,-2.609591484069824,1.475320816040039,3.379999999999972
-0.230596661567688,-1.4732694625854492,2.125220775604248,3.3899999999999717
-0.5077321529388428,-0.07738876342773438,2.769641876220703,3.3999999999999715
-0.9905883073806763,1.6151847839355469,3.5178613662719727,3.4099999999999713
-1.4816638231277466,3.4041147232055664,4.394878387451172,3.419999999999971
-2.0006422996520996,4.999899864196777,5.0908122062683105,3.429999999999971
-2.671830654144287,6.302286148071289,5.276522636413574,3.4399999999999706
-3.4326608180999756,7.347936630249023,5.156976699829102,3.4499999999999704
-4.14617919921875,8.27159595489502,4.895195007324219,3.45999999999997
-4.787078857421875,9.288605690002441,4.898449897766113,3.46999999999997
-5.234981060028076,10.453568458557129,4.87325382232666,3.47999999999997
-5.304551124572754,11.34749698638916,4.737274169921875,3.4899999999999696
-4.903512001037598,11.3961820602417,4.485780239105225,3.4999999999999694
-4.171247959136963,10.265045166015625,4.2080535888671875,3.509999999999969
-3.3991665840148926,8.439972877502441,4.020336627960205,3.519999999999969
-2.5803780555725098,6.554540634155273,3.9988014698028564,3.5299999999999687
-1.8862534761428833,4.7779340744018555,4.080809593200684,3.5399999999999685
-1.387705683708191,3.0880565643310547,4.243847846984863,3.5499999999999683
-1.033787488937378,1.379124641418457,4.50606107711792,3.559999999999968
-0.694945216178894,-0.3304710388183594,4.83118200302124,3.569999999999968
-0.23000669479370117,-2.0631208419799805,5.152000427246094,3.5799999999999677
0.19867658615112305,-3.5850892066955566,5.326765537261963,3.5899999999999674
0.6020872592926025,-4.880147933959961,5.122582912445068,3.5999999999999672
0.8432435393333435,-5.924746513366699,4.894749641418457,3.609999999999967
0.6673635244369507,-6.480302810668945,4.708706855773926,3.619999999999967
0.07047712802886963,-6.210989475250244,4.556556224822998,3.6299999999999666
-0.6084909439086914,-5.345989227294922,4.193714141845703,3.6399999999999664
-0.9294490814208984,-4.456125736236572,3.667151689529419,3.649999999999966
-0.6152441501617432,-3.4441885948181152,2.9638171195983887,3.659999999999966
-0.1816847324371338,-2.215092182159424,1.9175474643707275,3.6699999999999657
0.28070998191833496,-0.816929817199707,0.5129761695861816,3.6799999999999655
0.9161179661750793,0.45643138885498047,-1.2827112674713135,3.6899999999999653
1.3960901498794556,1.7100582122802734,-3.3432445526123047,3.699999999999965
1.6501871347427368,3.024447441101074,-5.8195695877075195,3.709999999999965
1.4027154445648193,4.454180717468262,-8.36740493774414,3.7199999999999647
0.35914182662963867,6.262530326843262,-10.322668075561523,3.7299999999999645
-1.2983880043029785,8.308431625366211,-11.304000854492188,3.7399999999999642
-2.9827651977539062,9.945125579833984,-11.418681144714355,3.749999999999964
-4.03829288482666,10.973578453063965,-10.770456314086914,3.759999999999964
-5.186921119689941,11.39169692993164,-9.812776565551758,3.7699999999999636
-5.556560516357422,10.936119079589844,-8.259596824645996,3.7799999999999634
-4.494025707244873,8.956912994384766,-6.029661178588867,3.789999999999963
-3.3045759201049805,5.975981712341309,-4.337542533874512,3.799999999999963
-3.3307175636291504,2.8175458908081055,-4.275743007659912,3.8099999999999627
-3.527937650680542,0.25881004333496094,-4.746555328369141,3.8199999999999625
-3.5002036094665527,-1.681349754333496,-4.809513568878174,3.8299999999999623
-3.1063947677612305,-3.0293374061584473,-4.413136005401611,3.839999999999962
-2.437997817993164,-3.9456443786621094,-3.815549373626709,3.849999999999962
-1.7294280529022217,-4.605096817016602,-3.3145127296447754,3.8599999999999617
-1.0675475597381592,-4.771011829376221,-2.739335536956787,3.8699999999999615
-0.34788990020751953,-4.477280616760254,-2.0246667861938477,3.8799999999999613
0.6689662337303162,-4.075920581817627,-1.4916785955429077,3.889999999999961
1.5383918285369873,-3.471647262573242,-1.3811914920806885,3.899999999999961
2.109104633331299,-2.8250370025634766,-1.7635278701782227,3.9099999999999606
2.437530040740967,-2.332034111022949,-2.4337549209594727,3.9199999999999604
2.6419434547424316,-1.8341960906982422,-3.270456314086914,3.92999999999996
2.8008830547332764,-1.414327621459961,-4.363892555236816,3.93999999999996
2.929074764251709,-1.0110702514648438,-5.414484977722168,3.9499999999999598
2.981658458709717,-0.5841035842895508,-6.545092582702637,3.9599999999999596
2.8972959518432617,-0.20823383331298828,-7.504849910736084,3.9699999999999593
2.6653151512145996,0.15837669372558594,-8.160627365112305,3.979999999999959
1.9717146158218384,0.6929035186767578,-8.391613960266113,3.989999999999959
0.7144286036491394,1.0618038177490234,-8.187438011169434,3.9999999999999587
-0.4755070209503174,1.242258071899414,-7.656171798706055,4.009999999999959
-0.9126948118209839,1.4937286376953125,-6.795639514923096,4.019999999999959
-0.6478643417358398,1.6737661361694336,-4.851590633392334,4.0299999999999585
0.27123695611953735,1.730940818786621,-0.6020639538764954,4.039999999999958
0.925999104976654,1.519134521484375,2.87373423576355,4.049999999999958
0.9095439910888672,0.9653873443603516,3.011103630065918,4.059999999999958
0.7193493843078613,0.3843355178833008,1.654544711112976,4.069999999999958
0.08446371555328369,-0.21887779235839844,0.6919330358505249,4.079999999999957
-0.3154487609863281,-0.8658390045166016,0.1445409059524536,4.089999999999957
-0.457297682762146,-1.568678855895996,-0.06111544370651245,4.099999999999957
-0.16106975078582764,-2.071711540222168,0.09785044193267822,4.109999999999957
0.25404560565948486,-2.337064743041992,0.47133660316467285,4.119999999999957
0.40841859579086304,-2.3197855949401855,0.7014687061309814,4.129999999999956
0.247245192527771,-2.1949639320373535,0.8032230138778687,4.139999999999956
0.21817636489868164,-1.91973876953125,0.7547864317893982,4.149999999999956
0.3988940715789795,-2.0583791732788086,0.5422748327255249,4.159999999999956
0.24191570281982422,-2.1774353981018066,0.26034021377563477,4.1699999999999555
0.08191275596618652,-2.269773483276367,0.0902099460363388,4.179999999999955
0.09633362293243408,-2.2038121223449707,0.13893170654773712,4.189999999999955
-0.4244093894958496,-1.4487943649291992,0.5179915428161621,4.199999999999955
-0.44625914096832275,-1.3062801361083984,0.9850260615348816,4.209999999999955
0.15286993980407715,-1.6199846267700195,1.15748929977417,4.2199999999999545
0.8705732822418213,-1.9827747344970703,1.0458112955093384,4.229999999999954
1.3435074090957642,-2.2606401443481445,0.7794435620307922,4.239999999999954
1.591235876083374,-2.166736602783203,0.4653800129890442,4.249999999999954
1.5609272718429565,-1.7900896072387695,0.32538318634033203,4.259999999999954
1.5344419479370117,-1.2291889190673828,0.23235337436199188,4.269999999999953
1.6649541854858398,-0.7520561218261719,0.21983040869235992,4.279999999999953
1.7971742153167725,-0.4709186553955078,0.35028526186943054,4.289999999999953
1.8569867610931396,-0.3855009078979492,0.5450636148452759,4.299999999999953
1.8915958404541016,-0.17281627655029297,0.6827223896980286,4.3099999999999525
1.9675190448760986,0.011524200439453125,0.696671187877655,4.319999999999952
2.1344852447509766,0.15798091888427734,0.6974040865898132,4.329999999999952
2.200913190841675,0.15903949737548828,0.6973938941955566,4.339999999999952
2.1619157791137695,0.07231998443603516,0.6588729619979858,4.349999999999952
2.0200436115264893,-0.11156845092773438,0.7278607487678528,4.3599999999999515
1.900015115737915,-0.32065296173095703,0.949898362159729,4.369999999999951
1.7640868425369263,-0.4901714324951172,1.250899314880371,4.379999999999951
1.5719096660614014,-0.5316104888916016,1.5827741622924805,4.389999999999951
1.381242275238037,-0.41877079010009766,1.909153699874878,4.399999999999951
1.122904658317566,-0.21404075622558594,2.2005584239959717,4.40999999999995
0.9094335436820984,0.06563377380371094,2.484703540802002,4.41999999999995
0.7553322315216064,0.38182640075683594,2.7105774879455566,4.42999999999995
0.6224611401557922,0.7248010635375977,2.9060096740722656,4.43999999999995
0.582809329032898,1.017852783203125,3.146480083465576,4.4499999999999496
0.787619948387146,1.1127252578735352,3.440643787384033,4.459999999999949
0.6213395595550537,1.5521154403686523,3.5892221927642822,4.469999999999949
0.6067593097686768,1.9357986450195312,3.6345901489257812,4.479999999999949
0.7500244379043579,2.2586450576782227,3.607163906097412,4.489999999999949
0.9884315729141235,2.5132761001586914,3.638059377670288,4.4999999999999485
1.1778922080993652,2.7019758224487305,3.6627421379089355,4.509999999999948
1.3394505977630615,2.8510122299194336,3.698396682739258,4.519999999999948
1.570766568183899,2.9866809844970703,3.6905550956726074,4.529999999999948
1.8645936250686646,3.018146514892578,3.6802978515625,4.539999999999948
2.3507497310638428,2.945646286010742,3.605513572692871,4.549999999999947
3.042069435119629,2.917623519897461,3.4059720039367676,4.559999999999947
3.4961414337158203,2.895570755004883,3.0881597995758057,4.569999999999947
3.757944107055664,2.8886337280273438,2.706289768218994,4.579999999999947
3.9198625087738037,2.905977249145508,2.283886671066284,4.589999999999947
4.181748390197754,2.856637954711914,2.0633487701416016,4.599999999999946
4.368069648742676,2.743319511413574,2.0175621509552,4.609999999999946
4.657711029052734,2.7936553955078125,2.1437997817993164,4.619999999999946
4.878358840942383,2.845338821411133,2.350783348083496,4.629999999999946
4.805057525634766,2.994230270385742,2.5799145698547363,4.6399999999999455
4.475966453552246,3.0154333114624023,2.7718505859375,4.649999999999945
4.018322944641113,3.081155776977539,2.935541868209839,4.659999999999945
3.5577569007873535,3.131537437438965,3.0195250511169434,4.669999999999945
3.071258306503296,3.286015510559082,2.9960110187530518,4.679999999999945
2.3987531661987305,3.5321760177612305,2.8921430110931396,4.689999999999944
1.6694116592407227,3.8289318084716797,2.6969897747039795,4.699999999999944
0.8855845928192139,4.192709922790527,2.399777412414551,4.709999999999944
0.2629129886627197,4.334175109863281,2.0599708557128906,4.719999999999944
-0.011581897735595703,4.107958793640137,1.691729187965393,4.729999999999944
-0.018543243408203125,3.6078414916992188,1.0808602571487427,4.739999999999943
0.14179909229278564,2.9224185943603516,0.35181939601898193,4.749999999999943
0.241707444190979,1.9822969436645508,-0.3470202684402466,4.759999999999943
0.356960654258728,1.0315866470336914,-1.0531562566757202,4.769999999999943
0.47523605823516846,0.2690000534057617,-1.638389229774475,4.7799999999999425
0.6545127630233765,-0.6492929458618164,-2.164790630340576,4.789999999999942
0.792643666267395,-1.4616174697875977,-2.5959296226501465,4.799999999999942
0.7299422025680542,-1.940178394317627,-2.9532711505889893,4.809999999999942
0.4446054697036743,-1.9961929321289062,-3.0491833686828613,4.819999999999942
0.2317124605178833,-1.811220645904541,-2.9042322635650635,4.8299999999999415
0.3302321434020996,-1.0548076629638672,-2.699251174926758,4.839999999999941
0.5383789539337158,0.8757381439208984,-2.2042996883392334,4.849999999999941
0.6896970272064209,2.9966821670532227,-1.5244557857513428,4.859999999999941
0.6060609817504883,4.513785362243652,-0.5879592895507812,4.869999999999941
0.20824968814849854,5.446139335632324,-0.16604627668857574,4.87999999999994
-0.38465046882629395,5.920218467712402,-0.21151022613048553,4.88999999999994
-0.9604756832122803,6.055649757385254,-0.4854658842086792,4.89999999999994
-1.3459513187408447,6.101444244384766,-0.672779381275177,4.90999999999994
-1.5859310626983643,6.342432975769043,-0.6151899099349976,4.9199999999999395
-2.0256004333496094,6.752338409423828,-0.5303330421447754,4.929999999999939
-2.942208766937256,7.103886604309082,-0.46738630533218384,4.939999999999939
-4.0811052322387695,7.349379539489746,-0.5889981389045715,4.949999999999939
-4.990278720855713,7.266646385192871,-0.7873525619506836,4.959999999999939
-5.484521865844727,6.772428512573242,-0.9853370189666748,4.9699999999999385
-5.694889068603516,6.039446830749512,-1.1104345321655273,4.979999999999938
-5.811870574951172,5.199544906616211,-1.1109044551849365,4.989999999999938
-5.89879846572876,4.408132553100586,-1.0436456203460693,4.999999999999938
-5.913269996643066,3.6865415573120117,-0.9701785445213318,5.009999999999938
-5.922670364379883,3.4458742141723633,-1.0430121421813965,5.019999999999937
-5.566244125366211,3.123504638671875,-1.000750184059143,5.029999999999937
-4.993301868438721,2.7335357666015625,-0.722649335861206,5.039999999999937
-4.135648250579834,2.512293815612793,-0.32703614234924316,5.049999999999937
-3.1114330291748047,2.52097225189209,-0.024393320083618164,5.0599999999999365
-2.2956461906433105,2.7275876998901367,-0.08047962188720703,5.069999999999936
-1.6085703372955322,2.577023506164551,-0.6950914859771729,5.079999999999936
-0.9041483998298645,2.488483428955078,-2.217909336090088,5.089999999999936
0.5136637687683105,1.7643966674804688,-3.4690966606140137,5.099999999999936
1.961244821548462,0.9064044952392578,-5.804295063018799,5.1099999999999355
2.448005199432373,0.5546236038208008,-8.616182327270508,5.119999999999935
1.628671407699585,0.4991588592529297,-10.505119323730469,5.129999999999935
1.0016090869903564,0.18773555755615234,-10.192636489868164,5.139999999999935
0.9040927886962891,-0.35528564453125,-9.305218696594238,5.149999999999935
1.1449217796325684,-0.9191131591796875,-8.361906051635742,5.159999999999934
1.6175837516784668,-1.4059982299804688,-7.325206756591797,5.169999999999934
1.8312314748764038,-1.7142276763916016,-5.931765556335449,5.179999999999934
2.082437038421631,-2.0320959091186523,-4.649376392364502,5.189999999999934
2.124366283416748,-1.820894718170166,-4.088658809661865,5.199999999999934
2.1575894355773926,-1.4002408981323242,-3.8693783283233643,5.209999999999933
1.7276504039764404,-1.1251897811889648,-3.7745871543884277,5.219999999999933
1.2949734926223755,-1.320436954498291,-5.0840606689453125,5.229999999999933
1.664710521697998,-2.369290351867676,-5.935671806335449,5.239999999999933
1.8543858528137207,-3.40134859085083,-6.956666946411133,5.2499999999999325
1.7219960689544678,-4.45842981338501,-7.974338054656982,5.259999999999932
1.3504395484924316,-5.423621654510498,-7.979118347167969,5.269999999999932
1.0444083213806152,-6.107280254364014,-7.046213150024414,5.279999999999932
0.7960622310638428,-6.423015117645264,-6.0060529708862305,5.289999999999932
0.43288499116897583,-6.349047660827637,-4.93276834487915,5.299999999999931
0.18909811973571777,-6.16954231262207,-3.90802001953125,5.309999999999931
-0.274936318397522,-6.014903545379639,-3.134176731109619,5.319999999999931
-0.8922367095947266,-5.91478157043457,-2.4862141609191895,5.329999999999931
-1.3476598262786865,-5.982354164123535,-1.9681391716003418,5.339999999999931
-1.6293041706085205,-6.1484198570251465,-1.7542712688446045,5.34999999999993
-1.7320810556411743,-6.355466842651367,-1.7655901908874512,5.35999999999993
-2.0438337326049805,-6.557860374450684,-1.6963348388671875,5.36999999999993
-2.0699543952941895,-6.652385234832764,-1.6886463165283203,5.37999999999993
-2.0861265659332275,-6.727015972137451,-1.7842514514923096,5.3899999999999295
-2.23380708694458,-6.69993782043457,-1.8357315063476562,5.399999999999929
-2.421537399291992,-6.6639485359191895,-1.9514665603637695,5.409999999999929
-2.4295175075531006,-6.664157390594482,-1.8473238945007324,5.419999999999929
-2.4201388359069824,-6.518571853637695,-1.8894846439361572,5.429999999999929
-2.225274085998535,-6.372804641723633,-2.089956045150757,5.4399999999999284
-1.835353970527649,-6.209796905517578,-2.145066976547241,5.449999999999928
-1.5067394971847534,-6.089075088500977,-2.103074550628662,5.459999999999928
-1.153222918510437,-5.9624834060668945,-1.9188108444213867,5.469999999999928
-0.9759582281112671,-5.772342681884766,-1.7577054500579834,5.479999999999928
-0.9341738224029541,-5.415492057800293,-1.5627591609954834,5.489999999999927
-0.5208861827850342,-5.336676597595215,-1.2599146366119385,5.499999999999927
-0.1576138734817505,-4.963916778564453,-0.7870988845825195,5.509999999999927
0.15836739540100098,-4.4188995361328125,-0.4631929397583008,5.519999999999927
0.35835254192352295,-3.7345175743103027,-0.07375764846801758,5.5299999999999265
0.3568307161331177,-2.938858985900879,0.41591405868530273,5.539999999999926
0.2670191526412964,-1.9859051704406738,1.0691962242126465,5.549999999999926
0.08751583099365234,-0.9632844924926758,1.757357120513916,5.559999999999926
-0.2830919027328491,0.19264602661132812,2.4844298362731934,5.569999999999926
-0.8070247173309326,1.5124082565307617,3.260315418243408,5.5799999999999255
-1.1770836114883423,3.157529830932617,4.179786205291748,5.589999999999925
-1.5660209655761719,4.8888444900512695,5.173060417175293,5.599999999999925
-2.2596065998077393,6.51442813873291,5.86154842376709,5.609999999999925
-3.297084093093872,7.832852363586426,6.218491554260254,5.619999999999925
-4.181957244873047,8.85622501373291,6.224967002868652,5.629999999999924
-4.635320663452148,9.922125816345215,5.989933490753174,5.639999999999924
-4.819422245025635,10.920430183410645,5.760873317718506,5.649999999999924
-4.711850643157959,11.456526756286621,5.326202869415283,5.659999999999924
-4.304233551025391,11.092881202697754,4.973016262054443,5.6699999999999235
-3.805746078491211,9.62170696258545,4.515503883361816,5.679999999999923
-3.2304434776306152,7.712793350219727,4.192434310913086,5.689999999999923
-2.5999655723571777,5.834432601928711,4.0370588302612305,5.699999999999923
-1.903523325920105,4.060112953186035,4.029837131500244,5.709999999999923
-1.379983901977539,2.441558837890625,4.163113594055176,5.7199999999999225
-0.8143963813781738,0.8127326965332031,4.503200531005859,5.729999999999922
-0.24079740047454834,-0.8775968551635742,4.889495372772217,5.739999999999922
0.3003906011581421,-2.5369033813476562,4.998712062835693,5.749999999999922
0.6740502119064331,-4.1630706787109375,4.75804328918457,5.759999999999922
0.9606261849403381,-5.552755832672119,4.376117706298828,5.769999999999921
0.8736687898635864,-6.548577308654785,4.0758771896362305,5.779999999999921
0.5256648063659668,-6.738018989562988,3.8082642555236816,5.789999999999921
-0.1574934720993042,-6.022555828094482,3.43639874458313,5.799999999999921
-0.6095144748687744,-5.064344882965088,2.864478826522827,5.809999999999921
-0.5159215927124023,-4.000749588012695,2.0344607830047607,5.81999999999992
-0.327728271484375,-2.750819206237793,0.9064478874206543,5.82999999999992
-0.05716836452484131,-1.3791203498840332,-0.5814821720123291,5.83999999999992
0.20286500453948975,-0.0812692642211914,-2.192739725112915,5.84999999999992
0.49959784746170044,1.3430709838867188,-3.908475399017334,5.8599999999999195
0.45331257581710815,2.9563255310058594,-5.618930339813232,5.869999999999919
-0.12144505977630615,4.7544097900390625,-7.166162490844727,5.879999999999919
-1.1807715892791748,6.776212692260742,-8.409918785095215,5.889999999999919
-2.3900718688964844,8.930163383483887,-9.190980911254883,5.899999999999919
-3.6989729404449463,10.735539436340332,-9.171414375305176,5.909999999999918
-4.879156112670898,12.096457481384277,-8.695795059204102,5.919999999999918
-5.474800109863281,12.637396812438965,-7.768971920013428,5.929999999999918
-5.769280433654785,11.539237022399902,-6.672977447509766,5.939999999999918
-5.520603179931641,8.797263145446777,-5.489255428314209,5.949999999999918
-4.95473575592041,5.26336669921875,-4.809173583984375,5.959999999999917
-4.716534614562988,1.9359254837036133,-5.168460845947266,5.969999999999917
-4.184570789337158,-0.7479963302612305,-5.785080909729004,5.979999999999917
-3.4915945529937744,-2.6046648025512695,-5.9854607582092285,5.989999999999917
-2.98300838470459,-3.6611685752868652,-5.752071380615234,5.9999999999999165
-2.28647518157959,-4.109318256378174,-5.1396026611328125,6.009999999999916
-1.5813781023025513,-4.173793315887451,-4.480620384216309,6.019999999999916
-0.9582613706588745,-4.243597507476807,-3.9601869583129883,6.029999999999916
-0.31833767890930176,-4.31560754776001,-3.4150986671447754,6.039999999999916
0.3446723222732544,-4.045628547668457,-2.7140114307403564,6.0499999999999154
1.1827349662780762,-3.290313243865967,-2.353663444519043,6.059999999999915
2.0085153579711914,-2.324815273284912,-2.3941187858581543,6.069999999999915
2.5010766983032227,-1.5219612121582031,-2.851111888885498,6.079999999999915
2.5954227447509766,-0.9097623825073242,-3.552717924118042,6.089999999999915
2.370053291320801,-0.5256710052490234,-4.382334232330322,6.099999999999914
2.147770404815674,-0.3491086959838867,-5.165937423706055,6.109999999999914
2.041872262954712,-0.004725456237792969,-5.896576404571533,6.119999999999914
1.6901426315307617,0.1412057876586914,-6.5473103523254395,6.129999999999914
1.2437188625335693,-0.1372966766357422,-6.929540634155273,6.1399999999999135
1.112879991531372,-0.20859813690185547,-7.155023097991943,6.149999999999913
1.051795482635498,0.11061668395996094,-7.247528076171875,6.159999999999913
0.4640592336654663,0.6826152801513672,-7.300787448883057,6.169999999999913
-0.14697587490081787,1.1040315628051758,-7.094544887542725,6.179999999999913
-0.17669939994812012,1.562765121459961,-6.369141578674316,6.1899999999999125
0.10373878479003906,1.6969566345214844,-4.958262920379639,6.199999999999912
0.45073169469833374,1.3433313369750977,-1.6019983291625977,6.209999999999912
0.6992532014846802,0.5374336242675781,2.1678824424743652,6.219999999999912
0.6763879656791687,0.06909751892089844,3.0911970138549805,6.229999999999912
0.6319782733917236,-0.2861442565917969,2.064718723297119,6.239999999999911
0.4111841917037964,-0.657191276550293,1.302122950553894,6.249999999999911
0.17761874198913574,-1.1349678039550781,1.0594942569732666,6.259999999999911
0.0455855131149292,-1.5186843872070312,0.9425867795944214,6.269999999999911
0.4726390838623047,-1.904205322265625,0.839650571346283,6.2799999999999105
1.1283161640167236,-2.27703857421875,0.7334020733833313,6.28999999999991
1.3917471170425415,-2.498537063598633,0.5544631481170654,6.29999999999991
1.29665207862854,-2.3538427352905273,0.2909443974494934,6.30999999999991
1.182868242263794,-1.9773941040039062,0.07433339953422546,6.31999999999991
1.0792137384414673,-1.582265853881836,-0.20183387398719788,6.3299999999999095
1.1775786876678467,-1.4218015670776367,-0.420580118894577,6.339999999999909
1.0406732559204102,-1.4884147644042969,-0.48229992389678955,6.349999999999909
0.7907949090003967,-1.557027816772461,-0.28268593549728394,6.359999999999909
0.7084826827049255,-1.4505996704101562,0.15110456943511963,6.369999999999909
0.6613858938217163,-1.0089330673217773,0.8104254007339478,6.379999999999908
0.17640900611877441,-0.34722232818603516,1.5264923572540283,6.389999999999908
0.1359851360321045,-0.3744821548461914,2.074173927307129,6.399999999999908
0.5346566438674927,-0.6905746459960938,2.3228938579559326,6.409999999999908
1.0854908227920532,-0.9268398284912109,2.3024017810821533,6.419999999999908
1.2430131435394287,-0.9710245132446289,2.185272693634033,6.429999999999907
1.4089456796646118,-0.9143171310424805,2.0814332962036133,6.439999999999907
1.4560158252716064,-0.7521648406982422,1.9524049758911133,6.449999999999907
1.4845207929611206,-0.5277919769287109,1.8532476425170898,6.459999999999907
1.5880749225616455,-0.3775167465209961,1.8011009693145752,6.4699999999999065
1.6207904815673828,-0.24142169952392578,1.6674813032150269,6.479999999999906
1.657164454460144,-0.15766429901123047,1.4267299175262451,6.489999999999906
1.7432276010513306,-0.19542884826660156,1.0814414024353027,6.499999999999906
1.697303295135498,-0.17997074127197266,0.6964250206947327,6.509999999999906
1.6292312145233154,-0.211761474609375,0.41570207476615906,6.519999999999905
1.6586108207702637,-0.30980682373046875,0.2276318073272705,6.529999999999905
1.6464406251907349,-0.5456638336181641,0.1688022017478943,6.539999999999905
1.6162893772125244,-0.8330001831054688,0.1992349624633789,6.549999999999905
1.628027081489563,-1.0352792739868164,0.32211512327194214,6.559999999999905
1.4974640607833862,-1.083099365234375,0.6456261873245239,6.569999999999904
1.2653076648712158,-1.0937080383300781,1.0214473009109497,6.579999999999904
1.0703630447387695,-0.9833765029907227,1.4875411987304688,6.589999999999904
0.936574399471283,-0.7450170516967773,2.0122838020324707,6.599999999999904
0.7971808314323425,-0.42179203033447266,2.515936851501465,6.6099999999999035
0.6596059203147888,-0.08318519592285156,2.901773452758789,6.619999999999903
0.5647642612457275,0.2084789276123047,3.1947669982910156,6.629999999999903
0.6735002994537354,0.5009403228759766,3.362267017364502,6.639999999999903
0.9362885355949402,0.6051816940307617,3.529629707336426,6.649999999999903
0.986757218837738,1.0279359817504883,3.511056423187256,6.659999999999902
1.0013045072555542,1.490945816040039,3.4105687141418457,6.669999999999902
1.2206549644470215,1.900503158569336,3.323166847229004,6.679999999999902
1.3901329040527344,2.352025032043457,3.2918801307678223,6.689999999999902
1.4819183349609375,2.811716079711914,3.3125245571136475,6.699999999999902
1.461050271987915,3.2673377990722656,3.345071315765381,6.709999999999901
1.6278022527694702,3.567996025085449,3.3444175720214844,6.719999999999901
1.9123691320419312,3.716144561767578,3.387248992919922,6.729999999999901
2.4590210914611816,3.7119874954223633,3.3822808265686035,6.739999999999901
3.0510377883911133,3.591541290283203,3.2665820121765137,6.7499999999999005
3.593569755554199,3.452805519104004,3.022390365600586,6.7599999999999
4.036161422729492,3.3600330352783203,2.71122407913208,6.7699999999999
4.244236946105957,3.305750846862793,2.4072139263153076,6.7799999999999
4.422585487365723,3.198981285095215,2.2475147247314453,6.7899999999999
4.702276229858398,3.0615758895874023,2.22155499458313,6.7999999999998995
4.896369934082031,2.9584741592407227,2.3116908073425293,6.809999999999899
5.0671610832214355,2.8708419799804688,2.5215139389038086,6.819999999999899
5.073491096496582,2.765406608581543,2.739457607269287,6.829999999999899
4.649931907653809,2.7976303100585938,2.9227218627929688,6.839999999999899
4.20113468170166,2.9123048782348633,2.987429618835449,6.849999999999898
3.426118850708008,3.1092519760131836,2.9976608753204346,6.859999999999898
2.4783620834350586,3.3332996368408203,2.9458470344543457,6.869999999999898
1.3511757850646973,3.6202621459960938,2.8961760997772217,6.879999999999898
0.3709995746612549,3.9582347869873047,2.8265838623046875,6.8899999999998975
-0.5494499206542969,4.151201248168945,2.70512056350708,6.899999999999897
-1.3945635557174683,4.338044166564941,2.4659581184387207,6.909999999999897
-1.7734360694885254,4.308269500732422,2.112271785736084,6.919999999999897
-1.6405678987503052,3.8922243118286133,1.6807416677474976,6.929999999999897
-1.2023236751556396,3.0351028442382812,1.05478835105896,6.9399999999998965
-0.6916722059249878,2.1937427520751953,0.1700807809829712,6.949999999999896
-0.15244436264038086,1.38934326171875,-0.669356107711792,6.959999999999896
0.22805893421173096,0.7270421981811523,-1.2213865518569946,6.969999999999896
0.6197139024734497,-0.07725811004638672,-1.538549780845642,6.979999999999896
0.8194476962089539,-0.8933897018432617,-1.7729064226150513,6.989999999999895
0.6974557638168335,-1.6609177589416504,-1.8995412588119507,6.999999999999895
0.5831167697906494,-1.8078513145446777,-1.9753122329711914,7.009999999999895
0.5688998699188232,-1.66170072555542,-1.9210724830627441,7.019999999999895
0.7860020399093628,-1.1430683135986328,-1.709813117980957,7.0299999999998946
1.0842320919036865,-0.2947654724121094,-1.6677484512329102,7.039999999999894
1.1451034545898438,1.153778076171875,-1.664116621017456,7.049999999999894
0.9318580031394958,2.683500289916992,-1.4639812707901,7.059999999999894
0.4317817687988281,3.729935646057129,-1.0199893712997437,7.069999999999894
-0.12563276290893555,4.515383720397949,-0.7895761132240295,7.0799999999998935
-0.7698688507080078,4.979428291320801,-1.0381605625152588,7.089999999999893
-1.3350067138671875,5.131305694580078,-1.498774528503418,7.099999999999893
-1.7311880588531494,5.437368392944336,-1.8446300029754639,7.109999999999893
-1.7698386907577515,5.6586103439331055,-1.976434588432312,7.119999999999893
-2.2544233798980713,6.098925590515137,-1.9058947563171387,7.129999999999892
-3.334618091583252,6.6191205978393555,-1.4451383352279663,7.139999999999892
-4.6394195556640625,6.960537910461426,-0.7935589551925659,7.149999999999892
-5.690061569213867,7.006131172180176,-0.0410386323928833,7.159999999999892
-6.175372123718262,6.828316688537598,0.3810943365097046,7.169999999999892
-6.174928665161133,6.262792587280273,0.5631377696990967,7.179999999999891
-6.121026039123535,5.209726333618164,0.6209839582443237,7.189999999999891
-5.9725823402404785,4.198081016540527,0.6262063980102539,7.199999999999891
-5.634908199310303,3.363947868347168,0.7399135828018188,7.209999999999891
-5.254491806030273,2.7380638122558594,0.8026244640350342,7.2199999999998905
-4.480190753936768,2.3822460174560547,0.8843357563018799,7.22999999999989
-3.565852165222168,2.329404830932617,0.7830150127410889,7.23999999999989
-2.715094804763794,2.2579917907714844,0.643028974533081,7.24999999999989
-1.9723104238510132,1.986222267150879,0.027098417282104492,7.25999999999989
-1.2609933614730835,1.5266399383544922,-1.146532654762268,7.269999999999889
-0.4224863648414612,1.0590991973876953,-2.8329904079437256,7.279999999999889
0.9184499382972717,0.9353160858154297,-4.582022666931152,7.289999999999889
2.142453670501709,0.708500862121582,-6.846281051635742,7.299999999999889
2.7659783363342285,0.49257373809814453,-10.276899337768555,7.309999999999889
2.0560338497161865,0.11347103118896484,-10.470538139343262,7.319999999999888
1.6751716136932373,-0.3274202346801758,-10.382206916809082,7.329999999999888
1.6530307531356812,-0.9416418075561523,-10.013999938964844,7.339999999999888
1.8353760242462158,-1.5665345191955566,-8.477972030639648,7.349999999999888
1.9341737031936646,-1.7941150665283203,-6.714632511138916,7.3599999999998875
2.193246603012085,-1.8432025909423828,-5.680909156799316,7.369999999999887
2.5685436725616455,-1.9900012016296387,-4.992928504943848,7.379999999999887
2.580592632293701,-1.7073073387145996,-4.532464027404785,7.389999999999887
2.043858051300049,-1.298017978668213,-4.254486560821533,7.399999999999887
1.383286476135254,-1.109055519104004,-5.674320697784424,7.4099999999998865
1.8308091163635254,-1.4002771377563477,-6.566437721252441,7.419999999999886
1.7500953674316406,-2.0752687454223633,-6.766963958740234,7.429999999999886
1.635685682296753,-2.815617084503174,-6.6523847579956055,7.439999999999886
1.1471086740493774,-3.6881422996520996,-6.723260402679443,7.449999999999886
0.5722475647926331,-4.365968704223633,-5.983635425567627,7.459999999999885
0.12239181995391846,-4.821887016296387,-5.08333683013916,7.469999999999885
-0.1624201536178589,-4.976114273071289,-4.145277500152588,7.479999999999885
-0.4573150873184204,-4.8733296394348145,-3.380800485610962,7.489999999999885
-1.0115350484848022,-4.768241882324219,-2.846310615539551,7.4999999999998845
-1.5022571086883545,-4.652060508728027,-2.397510528564453,7.509999999999884
-1.758358120918274,-4.748068332672119,-1.8974440097808838,7.519999999999884
-1.9235155582427979,-4.791252136230469,-1.5680432319641113,7.529999999999884
-2.1602766513824463,-4.925400733947754,-1.509563684463501,7.539999999999884
-2.3702292442321777,-5.02128791809082,-1.57369065284729,7.5499999999998835
-2.422201633453369,-5.021512031555176,-1.6148748397827148,7.559999999999883
-2.3316798210144043,-5.090887546539307,-1.6316790580749512,7.569999999999883
-2.1684789657592773,-5.051883697509766,-1.6920490264892578,7.579999999999883
-1.963659644126892,-5.044892311096191,-2.0147695541381836,7.589999999999883
-1.7915102243423462,-5.1001739501953125,-2.414232015609741,7.599999999999882
-1.6187025308609009,-5.224401473999023,-2.742748975753784,7.609999999999882
-1.4597501754760742,-5.326357364654541,-2.993626356124878,7.619999999999882
-1.2574121952056885,-5.463371753692627,-3.1598544120788574,7.629999999999882
-0.89473557472229,-5.611549377441406,-3.157648801803589,7.6399999999998816
-0.618362545967102,-5.692081451416016,-2.972536087036133,7.649999999999881
-0.2535245418548584,-5.697814464569092,-2.7169249057769775,7.659999999999881
-0.030143022537231445,-5.76734733581543,-2.3981587886810303,7.669999999999881
0.11878883838653564,-5.85487699508667,-2.0141165256500244,7.679999999999881
0.20509839057922363,-5.950456142425537,-1.503035306930542,7.6899999999998805
0.18586444854736328,-5.855362892150879,-0.9894213676452637,7.69999999999988
0.2020207643508911,-6.086457252502441,-0.29331207275390625,7.70999999999988
0.20815157890319824,-5.918734550476074,0.16225290298461914,7.71999999999988
0.19328904151916504,-5.703739166259766,0.47578954696655273,7.72999999999988
0.10634267330169678,-5.294915676116943,0.7859272956848145,7.739999999999879
-0.2570446729660034,-4.55072546005249,1.0995206832885742,7.749999999999879
-0.6827903985977173,-3.623692512512207,1.4681618213653564,7.759999999999879
-1.0165140628814697,-2.388118267059326,1.8557155132293701,7.769999999999879
-1.438832402229309,-0.6559295654296875,2.289278268814087,7.779999999999879
-1.8380578756332397,1.4623689651489258,2.846625804901123,7.789999999999878
-2.066971778869629,3.6218395233154297,3.6060712337493896,7.799999999999878
-2.261861801147461,5.818116188049316,4.463869094848633,7.809999999999878
-2.701024293899536,7.746708869934082,5.125722885131836,7.819999999999878
-3.4863972663879395,9.259115219116211,5.4517316818237305,7.8299999999998775
-4.587850093841553,10.377217292785645,5.600693702697754,7.839999999999877
-5.295015335083008,11.292932510375977,5.495524883270264,7.849999999999877
-5.526397705078125,11.8558931350708,5.361212730407715,7.859999999999877
-5.187958717346191,11.532221794128418,5.350690841674805,7.869999999999877
-4.066031455993652,10.177535057067871,5.490334510803223,7.879999999999876
-2.830717086791992,8.180925369262695,5.5834527015686035,7.889999999999876
-1.8569505214691162,6.058516502380371,5.392194747924805,7.899999999999876
-1.5499409437179565,4.0037841796875,5.155218124389648,7.909999999999876
-1.4365278482437134,2.3106679916381836,5.060111045837402,7.919999999999876
-1.0844800472259521,0.8228721618652344,4.977316856384277,7.929999999999875
-0.610223650932312,-0.6974296569824219,4.756711483001709,7.939999999999875
-0.130784273147583,-2.308298110961914,4.345523834228516,7.949999999999875
0.25101959705352783,-3.7754974365234375,3.864030122756958,7.959999999999875
0.3463916778564453,-4.8026556968688965,3.515360116958618,7.9699999999998745
-0.025811433792114258,-5.039015769958496,3.2496984004974365,7.979999999999874
-0.3905978202819824,-4.643813133239746,2.982400417327881,7.989999999999874
-0.484006404876709,-3.9124860763549805,2.6722002029418945,7.999999999999874
