AccX,AccY,AccZ,SampleRate
-0.6381740570068359,-1.9756531715393066,-2.82138729095459,0.01
-1.438640832901001,-2.313957691192627,-2.7644710540771484,0.02
-1.786525845527649,-2.518409252166748,-2.3171095848083496,0.03
-1.664052963256836,-1.7968273162841797,-1.7829303741455078,0.04
-1.014310598373413,-0.20707035064697266,-1.2488572597503662,0.05
-0.05975925922393799,1.377370834350586,-0.8261027336120605,0.060000000000000005
0.6190363764762878,2.5711708068847656,-0.5427014827728271,0.07
0.958855152130127,3.6104860305786133,-0.5450935363769531,0.08
1.4829353094100952,4.320347785949707,-0.8502073287963867,0.09
1.7334917783737183,4.5624494552612305,-1.1832436323165894,0.09999999999999999
1.5566372871398926,4.595643043518066,-1.4769830703735352,0.10999999999999999
1.0423264503479004,4.800311088562012,-1.5958470106124878,0.11999999999999998
0.39289045333862305,5.224006652832031,-1.6287972927093506,0.12999999999999998
-0.5099246501922607,5.646455764770508,-1.5762304067611694,0.13999999999999999
-1.5098644495010376,6.077149391174316,-1.4409385919570923,0.15
-2.541790723800659,6.3582563400268555,-1.25703763961792,0.16
-3.344306707382202,6.463764190673828,-1.0780141353607178,0.17
-3.898188829421997,6.432306289672852,-0.9862704277038574,0.18000000000000002
-4.296933650970459,6.352749824523926,-1.014126181602478,0.19000000000000003
-4.753771781921387,6.146389961242676,-1.0354255437850952,0.20000000000000004
-5.190371513366699,5.8970537185668945,-1.0048017501831055,0.21000000000000005
-5.464438438415527,5.580595016479492,-0.8807092905044556,0.22000000000000006
-5.610646724700928,5.110589981079102,-0.6929535865783691,0.23000000000000007
-5.515010356903076,4.692517280578613,-0.5554349422454834,0.24000000000000007
-4.763801574707031,4.445727348327637,-0.4558377265930176,0.25000000000000006
-4.024996757507324,4.09724235534668,-0.3985414505004883,0.26000000000000006
-3.1002016067504883,3.7901430130004883,-0.4395561218261719,0.2700000000000001
-2.0281965732574463,3.6448917388916016,-0.5959377288818359,0.2800000000000001
-1.2660017013549805,3.818746566772461,-1.5460985898971558,0.2900000000000001
0.30840539932250977,3.11246395111084,-2.3850479125976562,0.3000000000000001
1.086315631866455,2.436145782470703,-3.2119898796081543,0.3100000000000001
1.0602256059646606,1.6275863647460938,-4.719054698944092,0.3200000000000001
0.39952343702316284,1.2211875915527344,-5.720762252807617,0.3300000000000001
0.41471168398857117,1.068807601928711,-6.936713218688965,0.34000000000000014
0.7856847047805786,0.7692527770996094,-7.58404016494751,0.35000000000000014
1.3778148889541626,0.2975778579711914,-7.7423906326293945,0.36000000000000015
1.5555808544158936,-0.13754558563232422,-7.659152030944824,0.37000000000000016
1.6254030466079712,-0.5865859985351562,-7.276283264160156,0.38000000000000017
2.077322483062744,-0.9256982803344727,-7.060930252075195,0.3900000000000002
2.137434959411621,-1.3499693870544434,-6.483702659606934,0.4000000000000002
1.8895962238311768,-1.891495704650879,-6.238640308380127,0.4100000000000002
1.8799834251403809,-2.5538206100463867,-6.04563045501709,0.4200000000000002
1.4064502716064453,-2.974827766418457,-5.720118522644043,0.4300000000000002
1.8493232727050781,-3.5229315757751465,-6.601016521453857,0.4400000000000002
2.3131721019744873,-4.352348804473877,-7.072230339050293,0.45000000000000023
2.7585132122039795,-4.961925506591797,-7.394253730773926,0.46000000000000024
2.8285326957702637,-5.337059497833252,-7.813958644866943,0.47000000000000025
2.3783631324768066,-5.940391540527344,-7.163005828857422,0.48000000000000026
2.084376335144043,-6.4694366455078125,-6.017107963562012,0.49000000000000027
1.6294317245483398,-6.7205047607421875,-4.790881633758545,0.5000000000000002
0.8996711373329163,-6.595669746398926,-3.5445761680603027,0.5100000000000002
0.031142830848693848,-6.439352512359619,-2.400813341140747,0.5200000000000002
-0.6658878326416016,-6.262338638305664,-1.7101128101348877,0.5300000000000002
-1.047931432723999,-6.237202167510986,-1.4408841133117676,0.5400000000000003
-1.3517392873764038,-6.191673755645752,-1.4160370826721191,0.5500000000000003
-1.4871106147766113,-6.230881690979004,-1.4495420455932617,0.5600000000000003
-1.760887622833252,-6.306947231292725,-1.345707893371582,0.5700000000000003
-1.861411690711975,-6.4884352684021,-1.4596915245056152,0.5800000000000003
-2.0532259941101074,-6.504179000854492,-1.550750732421875,0.5900000000000003
-2.2611656188964844,-6.42057466506958,-1.6293301582336426,0.6000000000000003
-2.5090341567993164,-6.342529296875,-1.6505696773529053,0.6100000000000003
-2.5864217281341553,-6.257604598999023,-1.6940765380859375,0.6200000000000003
-2.4064478874206543,-6.169881343841553,-1.9445319175720215,0.6300000000000003
-2.1462769508361816,-5.9495720863342285,-2.12754487991333,0.6400000000000003
-1.8734960556030273,-5.654055118560791,-2.1765456199645996,0.6500000000000004
-1.535558819770813,-5.338239669799805,-2.2185425758361816,0.6600000000000004
-1.1947606801986694,-5.006649017333984,-2.2012054920196533,0.6700000000000004
-0.9041235446929932,-4.656463146209717,-2.118105173110962,0.6800000000000004
-0.6686276197433472,-4.263333320617676,-1.8647725582122803,0.6900000000000004
-0.43800389766693115,-3.831627368927002,-1.4611620903015137,0.7000000000000004
-0.24819815158843994,-3.315570831298828,-0.9677743911743164,0.7100000000000004
-0.010874509811401367,-2.745969295501709,-0.3948702812194824,0.7200000000000004
0.015651822090148926,-2.086630344390869,0.12297248840332031,0.7300000000000004
0.16213834285736084,-1.310917854309082,0.724006175994873,0.7400000000000004
0.11874449253082275,-0.49502086639404297,1.3049492835998535,0.7500000000000004
-0.03371012210845947,0.3642740249633789,1.7978477478027344,0.7600000000000005
-0.19978928565979004,1.267960548400879,2.3472704887390137,0.7700000000000005
-0.5920072793960571,2.1638994216918945,3.0389437675476074,0.7800000000000005
-1.0332281589508057,2.908344268798828,3.8188552856445312,0.7900000000000005
-1.787445068359375,3.3360090255737305,4.56861686706543,0.8000000000000005
-2.602328300476074,3.679368019104004,4.989176273345947,0.8100000000000005
-3.3547630310058594,4.102075576782227,4.9499616622924805,0.8200000000000005
-3.5395379066467285,4.889133453369141,4.873597145080566,0.8300000000000005
-3.5862226486206055,5.717394828796387,4.780886650085449,0.8400000000000005
-3.6403496265411377,6.4290971755981445,4.579825401306152,0.8500000000000005
-3.7280731201171875,7.033820152282715,4.262600898742676,0.8600000000000005
-3.8472020626068115,7.411701202392578,3.7956268787384033,0.8700000000000006
-3.8566739559173584,7.48140811920166,3.202521800994873,0.8800000000000006
-3.5243849754333496,6.992321968078613,2.601705551147461,0.8900000000000006
-3.1201186180114746,5.926016807556152,2.24810528755188,0.9000000000000006
-2.568329095840454,4.651097297668457,2.328183174133301,0.9100000000000006
-2.008051872253418,3.4684324264526367,2.761568546295166,0.9200000000000006
-1.530091404914856,2.3651351928710938,3.329832077026367,0.9300000000000006
-1.2874834537506104,1.3260383605957031,3.9030158519744873,0.9400000000000006
-1.1173515319824219,0.21654224395751953,4.320043087005615,0.9500000000000006
-0.7992527484893799,-1.1286187171936035,4.421997547149658,0.9600000000000006
-0.3441276550292969,-2.5968265533447266,4.183720588684082,0.9700000000000006
-0.10540556907653809,-3.9224729537963867,3.96932053565979,0.9800000000000006
-0.35104238986968994,-4.756773948669434,3.7311270236968994,0.9900000000000007
-0.970456600189209,-4.964695930480957,3.5687170028686523,1.0000000000000007
-1.7185863256454468,-4.428424835205078,3.307558059692383,1.0100000000000007
-2.3559393882751465,-3.4533824920654297,2.822974443435669,1.0200000000000007
-2.6183295249938965,-2.383120536804199,2.3061270713806152,1.0300000000000007
-2.4482874870300293,-1.4200153350830078,1.6711111068725586,1.0400000000000007
-1.8114873170852661,-0.6848077774047852,0.736840009689331,1.0500000000000007
-1.1867464780807495,0.10958480834960938,-0.468273401260376,1.0600000000000007
-0.7128456830978394,1.3284454345703125,-2.2313239574432373,1.0700000000000007
-0.4421604871749878,3.0061349868774414,-4.355883598327637,1.0800000000000007
-0.23435986042022705,4.840032577514648,-6.813804626464844,1.0900000000000007
-0.5803180932998657,6.839434623718262,-8.928730010986328,1.1000000000000008
-1.7829748392105103,8.784737586975098,-10.626663208007812,1.1100000000000008
-2.7735719680786133,10.130672454833984,-11.72140121459961,1.1200000000000008
-2.9238533973693848,10.748506546020508,-11.760648727416992,1.1300000000000008
-2.9907941818237305,10.797185897827148,-10.343463897705078,1.1400000000000008
-2.0483431816101074,10.843945503234863,-7.958888053894043,1.1500000000000008
-0.6577572822570801,8.985969543457031,-5.732997894287109,1.1600000000000008
-0.2396172285079956,5.273816108703613,-4.991589546203613,1.1700000000000008
-1.0873992443084717,1.9150066375732422,-5.290083885192871,1.1800000000000008
-1.8453296422958374,-0.5217161178588867,-5.78852653503418,1.1900000000000008
-1.6743956804275513,-2.235316276550293,-5.886288642883301,1.2000000000000008
-0.9104218482971191,-3.3624391555786133,-5.425467491149902,1.2100000000000009
-0.2164829969406128,-3.93447208404541,-4.771716594696045,1.2200000000000009
0.43385469913482666,-4.269860744476318,-4.122429370880127,1.2300000000000009
1.0363656282424927,-4.385336399078369,-3.5408003330230713,1.2400000000000009
1.6493583917617798,-4.240279197692871,-3.046591281890869,1.2500000000000009
2.314647674560547,-3.5647096633911133,-2.6780853271484375,1.260000000000001
2.988966703414917,-2.8087735176086426,-2.6759963035583496,1.270000000000001
3.3440165519714355,-2.075077533721924,-3.034362316131592,1.280000000000001
3.2105369567871094,-1.2648124694824219,-3.6239099502563477,1.290000000000001
2.716466188430786,-0.5348520278930664,-4.244800090789795,1.300000000000001
2.1277008056640625,-0.12330818176269531,-4.743019104003906,1.310000000000001
1.5269396305084229,-6.580352783203125E-4,-5.028389930725098,1.320000000000001
1.2007436752319336,0.07291316986083984,-5.2471771240234375,1.330000000000001
0.9332325458526611,0.37532711029052734,-5.4434309005737305,1.340000000000001
0.7779499292373657,0.8398714065551758,-5.609494209289551,1.350000000000001
0.9029479622840881,1.1798439025878906,-5.553761959075928,1.360000000000001
1.0239142179489136,1.417414665222168,-5.375223636627197,1.370000000000001
0.996626079082489,1.541060447692871,-4.838400363922119,1.380000000000001
0.7476778030395508,1.5938453674316406,-3.8168559074401855,1.390000000000001
0.547768235206604,1.4367055892944336,-2.450294256210327,1.400000000000001
0.26911407709121704,0.9760303497314453,-1.4190716743469238,1.410000000000001
-0.22182536125183105,0.65411376953125,-0.9243314266204834,1.420000000000001
-0.6715373396873474,0.40592479705810547,-0.8115212917327881,1.430000000000001
-1.0718541145324707,-0.022365570068359375,-0.8670076131820679,1.440000000000001
-1.3259227275848389,-0.5374794006347656,-0.9807170033454895,1.450000000000001
-1.3126871585845947,-1.0702123641967773,-0.9509878754615784,1.460000000000001
-0.9485599398612976,-1.4868450164794922,-0.9128844141960144,1.470000000000001
-0.5607916116714478,-1.852177619934082,-0.9226893186569214,1.480000000000001
-0.3954930901527405,-2.092263698577881,-0.940958559513092,1.490000000000001
-0.27570074796676636,-2.197842597961426,-0.8682265281677246,1.500000000000001
-0.24238407611846924,-2.0711660385131836,-0.7559410929679871,1.5100000000000011
-0.17173099517822266,-2.0401782989501953,-0.5940171480178833,1.5200000000000011
-0.028514862060546875,-2.0497994422912598,-0.5497167110443115,1.5300000000000011
0.1729358434677124,-1.958848476409912,-0.6326791048049927,1.5400000000000011
0.48853835463523865,-2.066185474395752,-0.7285921573638916,1.5500000000000012
0.4710964858531952,-2.127622127532959,-0.5628927946090698,1.5600000000000012
0.5709753036499023,-2.15987491607666,-0.31839868426322937,1.5700000000000012
0.5594058036804199,-1.7659244537353516,0.11064405739307404,1.5800000000000012
0.0842180848121643,-1.0563983917236328,1.0127838850021362,1.5900000000000012
0.16382569074630737,-0.9691381454467773,1.769517421722412,1.6000000000000012
0.6588460206985474,-1.1614704132080078,2.016392946243286,1.6100000000000012
1.0788583755493164,-1.1906604766845703,1.8927959203720093,1.6200000000000012
1.357057809829712,-1.1716737747192383,1.8194000720977783,1.6300000000000012
1.2613551616668701,-1.0663585662841797,1.8167752027511597,1.6400000000000012
1.3159743547439575,-0.9106988906860352,1.9636214971542358,1.6500000000000012
1.4780597686767578,-0.7525539398193359,2.078472375869751,1.6600000000000013
1.6714648008346558,-0.5966625213623047,2.147390365600586,1.6700000000000013
1.7098596096038818,-0.36887264251708984,2.101287841796875,1.6800000000000013
1.7418162822723389,-0.212738037109375,1.983137607574463,1.6900000000000013
1.848788857460022,-0.0683908462524414,1.7664088010787964,1.7000000000000013
1.9544167518615723,-0.05775928497314453,1.4939868450164795,1.7100000000000013
1.9535205364227295,-0.01809215545654297,1.2734355926513672,1.7200000000000013
1.8868008852005005,-0.02594757080078125,1.0978107452392578,1.7300000000000013
1.8954389095306396,-0.0740518569946289,1.0442097187042236,1.7400000000000013
1.9436362981796265,-0.11686134338378906,1.0820664167404175,1.7500000000000013
1.9593621492385864,-0.1782379150390625,1.2408853769302368,1.7600000000000013
1.8493733406066895,-0.24373912811279297,1.4828674793243408,1.7700000000000014
1.7432210445404053,-0.4304351806640625,1.6957697868347168,1.7800000000000014
1.4927420616149902,-0.5229406356811523,1.841118574142456,1.7900000000000014
1.2800575494766235,-0.5357284545898438,1.9898772239685059,1.8000000000000014
1.045383095741272,-0.5550251007080078,2.162735939025879,1.8100000000000014
0.7548419833183289,-0.5187196731567383,2.2948215007781982,1.8200000000000014
0.796059787273407,-0.41969871520996094,2.383538246154785,1.8300000000000014
0.8222869038581848,-0.2675800323486328,2.4119527339935303,1.8400000000000014
0.9728344082832336,-0.1652231216430664,2.405935287475586,1.8500000000000014
0.9894134402275085,0.19822978973388672,2.324354410171509,1.8600000000000014
0.8692324757575989,0.5975685119628906,2.2913217544555664,1.8700000000000014
0.8342163562774658,0.9967689514160156,2.2995033264160156,1.8800000000000014
0.7353742122650146,1.3527021408081055,2.3752636909484863,1.8900000000000015
0.6486518979072571,1.6413764953613281,2.4610280990600586,1.9000000000000015
0.7243282794952393,1.941676139831543,2.511178970336914,1.9100000000000015
1.0843290090560913,2.153103828430176,2.508721351623535,1.9200000000000015
1.5706298351287842,2.3282670974731445,2.364691972732544,1.9300000000000015
2.202362537384033,2.5387096405029297,2.0205931663513184,1.9400000000000015
2.732839822769165,2.70755672454834,1.5877575874328613,1.9500000000000015
3.2427852153778076,2.8345537185668945,1.285573959350586,1.9600000000000015
3.5706796646118164,3.012704849243164,1.1616754531860352,1.9700000000000015
3.9281444549560547,3.2083206176757812,1.2263189554214478,1.9800000000000015
4.318982124328613,3.2588768005371094,1.4905709028244019,1.9900000000000015
4.802573204040527,3.3058223724365234,1.7860510349273682,2.0000000000000013
5.154179573059082,3.4258975982666016,2.17852520942688,2.010000000000001
5.266594409942627,3.7123680114746094,2.5631017684936523,2.020000000000001
4.97727108001709,3.992776870727539,2.93961763381958,2.0300000000000007
4.372504234313965,4.269321441650391,3.264277935028076,2.0400000000000005
3.797158718109131,4.393617630004883,3.517098903656006,2.0500000000000003
3.182699680328369,4.576170921325684,3.610706329345703,2.06
2.561340093612671,4.687768936157227,3.5392699241638184,2.07
1.854998230934143,4.809771537780762,3.3545804023742676,2.0799999999999996
1.186444878578186,4.915887832641602,3.1182162761688232,2.0899999999999994
0.5414658784866333,4.975024223327637,2.6885857582092285,2.099999999999999
-0.012995600700378418,4.991978645324707,2.1848812103271484,2.109999999999999
-0.2829926013946533,4.773236274719238,1.865214467048645,2.1199999999999988
-0.038451552391052246,4.170981407165527,1.5612956285476685,2.1299999999999986
0.49874842166900635,3.2813825607299805,1.173380732536316,2.1399999999999983
0.9677773118019104,2.3773536682128906,0.6206458806991577,2.149999999999998
1.2584547996520996,1.4540128707885742,-0.11335289478302002,2.159999999999998
1.470721960067749,0.5879545211791992,-0.9509983062744141,2.1699999999999977
1.6115630865097046,-0.3065147399902344,-1.726991057395935,2.1799999999999975
1.5738524198532104,-0.8175115585327148,-2.4130518436431885,2.1899999999999973
1.058527946472168,-0.9569711685180664,-2.9168407917022705,2.199999999999997
0.483410120010376,-1.2795400619506836,-2.978107452392578,2.209999999999997
0.01735985279083252,-1.86063814163208,-2.554076671600342,2.2199999999999966
-0.3515530824661255,-2.1035289764404297,-1.8910157680511475,2.2299999999999964
-0.8044946193695068,-1.1542692184448242,-1.411665439605713,2.239999999999996
-1.143332839012146,0.25650882720947266,-1.255069613456726,2.249999999999996
-1.3283017873764038,1.432215690612793,-1.2313885688781738,2.259999999999996
-1.1486284732818604,2.205202102661133,-1.242265224456787,2.2699999999999956
-0.873916506767273,2.711623191833496,-1.2662639617919922,2.2799999999999954
-0.45703864097595215,2.748483657836914,-1.3568689823150635,2.289999999999995
-0.42736542224884033,2.713322639465332,-1.4655238389968872,2.299999999999995
-0.714819073677063,2.9790773391723633,-1.451730728149414,2.3099999999999947
-1.1348180770874023,3.502063751220703,-1.3487259149551392,2.3199999999999945
-1.6362714767456055,4.262574195861816,-1.1318836212158203,2.3299999999999943
-2.4431416988372803,4.90616512298584,-0.7960324287414551,2.339999999999994
-3.2481689453125,5.399311065673828,-0.38907384872436523,2.349999999999994
-3.7441396713256836,5.663355827331543,-0.09399867057800293,2.3599999999999937
-3.9405157566070557,5.6988420486450195,-0.08273255825042725,2.3699999999999934
-3.9076757431030273,5.513538360595703,-0.264284610748291,2.3799999999999932
-3.764101505279541,5.294483184814453,-0.5327258110046387,2.389999999999993
-3.6596450805664062,5.041722297668457,-0.7354707717895508,2.399999999999993
-3.7250070571899414,4.647456169128418,-0.8146355152130127,2.4099999999999926
-3.6237783432006836,4.159452438354492,-0.7839111089706421,2.4199999999999924
-3.4187204837799072,3.568063735961914,-0.7669891119003296,2.429999999999992
-2.874791145324707,3.1530113220214844,-0.9517590999603271,2.439999999999992
-2.2550487518310547,3.0332584381103516,-1.2864307165145874,2.4499999999999917
-1.8552982807159424,3.0881919860839844,-1.775754451751709,2.4599999999999915
-1.5282912254333496,3.250260353088379,-2.8011374473571777,2.4699999999999913
-0.710357129573822,2.809786796569824,-3.386043071746826,2.479999999999991
0.031226694583892822,1.9665088653564453,-4.077593803405762,2.489999999999991
0.9186072945594788,1.4357004165649414,-4.924773216247559,2.4999999999999907
1.023329734802246,0.9206552505493164,-5.373299598693848,2.5099999999999905
1.0555684566497803,0.6638908386230469,-6.464780330657959,2.5199999999999902
1.2167221307754517,0.3717918395996094,-7.208192825317383,2.52999999999999
1.4798486232757568,0.026365280151367188,-7.582692623138428,2.53999999999999
1.1704102754592896,-0.20468807220458984,-7.175631523132324,2.5499999999999896
1.064793348312378,-0.3646259307861328,-6.630629539489746,2.5599999999999894
1.199939489364624,-0.5324592590332031,-6.368228435516357,2.569999999999989
1.5010795593261719,-0.8256568908691406,-6.032956600189209,2.579999999999989
1.7504674196243286,-1.058487892150879,-5.663064956665039,2.5899999999999888
1.6768670082092285,-1.4332785606384277,-5.291519641876221,2.5999999999999885
1.5639703273773193,-1.7672719955444336,-4.769670009613037,2.6099999999999883
1.0532748699188232,-2.0687761306762695,-4.686491012573242,2.619999999999988
1.197497844696045,-2.5000905990600586,-5.819157600402832,2.629999999999988
1.2449630498886108,-3.352311611175537,-6.189907073974609,2.6399999999999877
1.0562092065811157,-4.277957916259766,-6.211788177490234,2.6499999999999875
1.0923099517822266,-5.168876647949219,-6.321009635925293,2.6599999999999873
0.9428647756576538,-5.590387344360352,-5.973668098449707,2.669999999999987
0.7843804955482483,-5.804939270019531,-5.314294815063477,2.679999999999987
0.664858341217041,-5.8763837814331055,-4.367894172668457,2.6899999999999866
0.3591881990432739,-5.9518866539001465,-3.466309070587158,2.6999999999999864
0.18326711654663086,-5.977228164672852,-2.7742183208465576,2.709999999999986
0.07117152214050293,-5.893093109130859,-2.289111614227295,2.719999999999986
-0.10425150394439697,-5.7717390060424805,-2.1063060760498047,2.7299999999999858
-0.518364429473877,-5.520538330078125,-1.954970359802246,2.7399999999999856
-0.7096155881881714,-5.386310577392578,-1.8492491245269775,2.7499999999999853
-0.8911608457565308,-5.340531349182129,-1.7315077781677246,2.759999999999985
-0.9985758066177368,-5.1726884841918945,-1.7071690559387207,2.769999999999985
-1.302566409111023,-4.861116409301758,-1.7648468017578125,2.7799999999999847
-1.5424420833587646,-4.835989475250244,-1.764066219329834,2.7899999999999845
-1.6940888166427612,-4.864426612854004,-1.8371803760528564,2.7999999999999843
-1.8075555562973022,-4.86431360244751,-2.054412603378296,2.809999999999984
-1.992632508277893,-4.878360271453857,-2.1863925457000732,2.819999999999984
-2.0650177001953125,-4.99970817565918,-2.2307636737823486,2.8299999999999836
-1.9078032970428467,-5.309462547302246,-2.091887950897217,2.8399999999999834
-1.779654860496521,-5.477208137512207,-1.9661734104156494,2.849999999999983
-1.5994484424591064,-5.5193071365356445,-1.8590595722198486,2.859999999999983
-1.4724137783050537,-5.538104057312012,-1.6588702201843262,2.869999999999983
-1.3268592357635498,-5.5139665603637695,-1.3185384273529053,2.8799999999999826
-1.2898139953613281,-5.374897003173828,-0.8863999843597412,2.8899999999999824
-1.349635362625122,-5.1759490966796875,-0.37688207626342773,2.899999999999982
-1.137632966041565,-4.842981338500977,0.11222410202026367,2.909999999999982
-0.9353978633880615,-4.456926345825195,0.5639400482177734,2.9199999999999817
-0.9426246881484985,-3.876114845275879,0.8941407203674316,2.9299999999999815
-1.004410982131958,-3.150226593017578,1.245779037475586,2.9399999999999813
-1.0495636463165283,-2.192406177520752,1.54594087600708,2.949999999999981
-1.081169843673706,-1.008819580078125,1.7829625606536865,2.959999999999981
-1.181195616722107,0.6385231018066406,2.071007490158081,2.9699999999999807
-1.3087286949157715,2.4300241470336914,2.4908361434936523,2.9799999999999804
-1.6683902740478516,4.383033752441406,3.0574681758880615,2.9899999999999802
-2.216947555541992,6.193747520446777,3.5289201736450195,2.99999999999998
-2.752657651901245,7.422523498535156,3.7369868755340576,3.00999999999998
-3.055469036102295,8.371532440185547,3.946378469467163,3.0199999999999796
-3.2006947994232178,9.208537101745605,4.1490325927734375,3.0299999999999794
-3.6143078804016113,9.914388656616211,4.346564769744873,3.039999999999979
-3.9693851470947266,10.237476348876953,4.513103485107422,3.049999999999979
-3.90109920501709,9.933338165283203,4.544862747192383,3.0599999999999787
-3.310330867767334,8.82228946685791,4.350420951843262,3.0699999999999785
-2.5565505027770996,7.313148498535156,4.1541547775268555,3.0799999999999783
-1.967095971107483,5.718684196472168,4.0222272872924805,3.089999999999978
-1.4971063137054443,4.160360336303711,4.001127243041992,3.099999999999978
-1.162598729133606,2.769397735595703,3.952866792678833,3.1099999999999777
-0.9891172647476196,1.5645713806152344,4.014388561248779,3.1199999999999775
-1.0790601968765259,0.43299102783203125,4.071585655212402,3.1299999999999772
-0.9825930595397949,-0.7597551345825195,4.051395416259766,3.139999999999977
-0.6355166435241699,-2.15755558013916,3.983783483505249,3.149999999999977
-0.07600164413452148,-3.6696133613586426,3.8195550441741943,3.1599999999999766
0.24391043186187744,-4.9923481941223145,3.6359684467315674,3.1699999999999764
0.051912784576416016,-5.624250888824463,3.462651252746582,3.179999999999976
-0.5001140832901001,-5.420924663543701,3.145810842514038,3.189999999999976
-1.219441294670105,-4.53458309173584,2.761343002319336,3.1999999999999758
-1.5649079084396362,-3.5309247970581055,2.382526397705078,3.2099999999999755
-1.5973154306411743,-2.406040668487549,2.0061044692993164,3.2199999999999753
-1.3329747915267944,-1.4026188850402832,1.5862698554992676,3.229999999999975
-0.8476381301879883,-0.49982261657714844,0.991072416305542,3.239999999999975
-0.3178366422653198,0.5849895477294922,0.06767702102661133,3.2499999999999747
-0.005340218544006348,1.9636287689208984,-1.4168343544006348,3.2599999999999745
0.1926804780960083,3.4573020935058594,-3.2486374378204346,3.2699999999999743
0.35435229539871216,4.925893783569336,-5.033085823059082,3.279999999999974
-0.09411287307739258,6.458222389221191,-6.690820693969727,3.289999999999974
-1.1851128339767456,8.136662483215332,-7.890905857086182,3.2999999999999736
-2.1041431427001953,9.269774436950684,-8.483169555664062,3.3099999999999734
-2.7014284133911133,9.776061058044434,-8.557537078857422,3.319999999999973
-2.7003209590911865,9.258089065551758,-8.271751403808594,3.329999999999973
-2.713409900665283,7.92803955078125,-7.838801383972168,3.3399999999999728
-2.840412139892578,6.069122314453125,-6.915450572967529,3.3499999999999726
-3.1080143451690674,3.624319076538086,-6.317486763000488,3.3599999999999723
-3.514376163482666,1.1826982498168945,-6.296505928039551,3.369999999999972
-3.777858018875122,-0.8046483993530273,-6.538840293884277,3.379999999999972
-3.408207654953003,-2.373845100402832,-6.497529029846191,3.3899999999999717
-2.8417887687683105,-3.32621431350708,-6.146305561065674,3.3999999999999715
-2.229647397994995,-3.6164941787719727,-5.475239276885986,3.4099999999999713
-1.681701421737671,-3.634873390197754,-4.643550395965576,3.419999999999971
-1.0565571784973145,-3.682614326477051,-3.834073543548584,3.429999999999971
-0.42111271619796753,-3.6421289443969727,-2.964174270629883,3.4399999999999706
0.3580833673477173,-3.2953853607177734,-2.030972480773926,3.4499999999999704
1.1872299909591675,-2.6277332305908203,-1.3358397483825684,3.45999999999997
1.9523253440856934,-1.469620704650879,-1.0606486797332764,3.46999999999997
2.6455130577087402,-0.4243278503417969,-1.2986648082733154,3.47999999999997
2.9260447025299072,0.32443714141845703,-2.03576922416687,3.4899999999999696
2.5650217533111572,0.9597854614257812,-3.1692824363708496,3.4999999999999694
1.7183091640472412,1.301344871520996,-4.421233177185059,3.509999999999969
0.7196613550186157,1.1615934371948242,-5.41166877746582,3.519999999999969
0.08520489931106567,0.6611537933349609,-5.991920471191406,3.5299999999999687
-0.31368905305862427,0.317047119140625,-6.179853916168213,3.5399999999999685
-0.3451114296913147,0.4184093475341797,-6.251343727111816,3.5499999999999683
-0.09521317481994629,0.4387025833129883,-6.329331398010254,3.559999999999968
0.6086466908454895,0.3997306823730469,-6.341347694396973,3.569999999999968
1.2594927549362183,0.4691629409790039,-6.261248588562012,3.5799999999999677
1.6534937620162964,0.5729837417602539,-5.913839340209961,3.5899999999999674
1.533120036125183,0.6513357162475586,-4.908505439758301,3.5999999999999672
1.1034886837005615,0.4454011917114258,-3.4111568927764893,3.609999999999967
0.2687881588935852,0.014438629150390625,-1.7108367681503296,3.619999999999967
-0.5464447140693665,-0.16625213623046875,-0.3001466989517212,3.6299999999999666
-0.9921362996101379,-0.2290477752685547,0.691157341003418,3.6399999999999664
-1.2348558902740479,-0.37279224395751953,0.9586319327354431,3.649999999999966
-1.1481750011444092,-0.6237211227416992,1.0339447259902954,3.659999999999966
-0.7941721081733704,-0.9123325347900391,1.0341601371765137,3.6699999999999657
-0.4385632872581482,-1.3557720184326172,1.0047755241394043,3.6799999999999655
-0.006950795650482178,-1.7912826538085938,0.9941359758377075,3.6899999999999653
0.34327954053878784,-2.1040902137756348,0.8494890928268433,3.699999999999965
0.5622608661651611,-2.179562568664551,0.5973165035247803,3.709999999999965
0.6643591523170471,-2.056267738342285,0.266303151845932,3.7199999999999647
0.6874558925628662,-1.9210195541381836,-0.10752402245998383,3.7299999999999645
0.815453827381134,-1.8264765739440918,-0.4473104476928711,3.7399999999999642
1.1204472780227661,-1.8657994270324707,-0.7122406959533691,3.749999999999964
1.3567214012145996,-2.07460880279541,-0.8923311829566956,3.759999999999964
1.5108799934387207,-2.172837257385254,-0.7197962999343872,3.7699999999999636
1.5921860933303833,-1.9500036239624023,-0.3616977632045746,3.7799999999999634
1.1855467557907104,-1.4447145462036133,0.31667789816856384,3.789999999999963
0.8071821331977844,-1.2838926315307617,1.2757059335708618,3.799999999999963
1.1142747402191162,-1.4097461700439453,1.8252604007720947,3.8099999999999627
1.4865546226501465,-1.4560861587524414,1.8411797285079956,3.8199999999999625
1.7586145401000977,-1.406336784362793,1.6721477508544922,3.8299999999999623
1.9901586771011353,-1.3945837020874023,1.5637867450714111,3.839999999999962
2.128366708755493,-1.2773761749267578,1.4440991878509521,3.849999999999962
2.146772861480713,-0.9473037719726562,1.2580639123916626,3.8599999999999617
2.0742850303649902,-0.5385398864746094,1.2237026691436768,3.8699999999999615
1.8918126821517944,-0.16353607177734375,1.2390353679656982,3.8799999999999613
1.769038200378418,-0.09959220886230469,1.302510142326355,3.889999999999961
1.7205836772918701,-0.07365894317626953,1.3356878757476807,3.899999999999961
1.6822978258132935,-0.004311561584472656,1.4081363677978516,3.9099999999999606
1.5854089260101318,-0.046939849853515625,1.4888126850128174,3.9199999999999604
1.5427143573760986,-0.074615478515625,1.6279149055480957,3.92999999999996
1.4899975061416626,-0.1614065170288086,1.7680776119232178,3.93999999999996
1.520721673965454,-0.3071632385253906,1.9143645763397217,3.9499999999999598
1.488940954208374,-0.4328575134277344,2.040544033050537,3.9599999999999596
1.4738035202026367,-0.5910978317260742,2.1773736476898193,3.9699999999999593
1.410698413848877,-0.6622810363769531,2.295910120010376,3.979999999999959
1.4285987615585327,-0.6034870147705078,2.36492919921875,3.989999999999959
1.4053113460540771,-0.4866065979003906,2.425039052963257,3.9999999999999587
1.390685796737671,-0.268707275390625,2.461794376373291,4.009999999999959
1.3509531021118164,-0.08621978759765625,2.568472385406494,4.019999999999959
1.4250985383987427,0.10158824920654297,2.687458038330078,4.0299999999999585
1.5798615217208862,0.27320194244384766,2.794426918029785,4.039999999999958
1.4776331186294556,0.6150140762329102,2.850503921508789,4.049999999999958
1.4268789291381836,0.9210062026977539,2.8286235332489014,4.059999999999958
1.542291283607483,1.1743354797363281,2.752007484436035,4.069999999999958
1.6465505361557007,1.5183372497558594,2.643836498260498,4.079999999999957
1.6144990921020508,1.828322410583496,2.5037617683410645,4.089999999999957
1.5121279954910278,2.161482810974121,2.458516836166382,4.099999999999957
1.4916032552719116,2.5439319610595703,2.517810821533203,4.109999999999957
1.5355920791625977,2.7483530044555664,2.648297071456909,4.119999999999957
1.6394569873809814,2.8682146072387695,2.7710797786712646,4.129999999999956
1.8895037174224854,2.8748512268066406,2.8308489322662354,4.139999999999956
2.300342082977295,2.715683937072754,2.7696428298950195,4.149999999999956
2.7262320518493652,2.589186668395996,2.629755973815918,4.159999999999956
3.1386470794677734,2.552556037902832,2.4609034061431885,4.1699999999999555
3.3720510005950928,2.6101932525634766,2.2434539794921875,4.179999999999955
3.5045523643493652,2.713923454284668,2.120896339416504,4.189999999999955
3.6646804809570312,2.8661060333251953,2.2661473751068115,4.199999999999955
3.8044943809509277,3.1028528213500977,2.582411766052246,4.209999999999955
3.923872470855713,3.3980722427368164,2.8702473640441895,4.2199999999999545
3.8576886653900146,3.6227617263793945,3.1211495399475098,4.229999999999954
3.644371747970581,3.78896427154541,3.2443671226501465,4.239999999999954
3.181290626525879,4.028107643127441,3.1939139366149902,4.249999999999954
2.674593210220337,4.134268760681152,3.0789122581481934,4.259999999999954
2.1632814407348633,4.217507362365723,2.943798065185547,4.269999999999953
1.4948973655700684,4.275320053100586,2.7874176502227783,4.279999999999953
0.7251058220863342,4.31717586517334,2.5847792625427246,4.289999999999953
-0.02359139919281006,4.450547218322754,2.2749226093292236,4.299999999999953
-0.767797589302063,4.440911293029785,1.998234510421753,4.3099999999999525
-1.1820873022079468,4.204729080200195,1.6726022958755493,4.319999999999952
-1.221320629119873,3.672819137573242,1.2895922660827637,4.329999999999952
-0.7154628038406372,2.8669309616088867,0.8183388710021973,4.339999999999952
0.08197402954101562,1.9356698989868164,0.27866995334625244,4.349999999999952
0.8043034672737122,0.9104042053222656,-0.2583552598953247,4.3599999999999515
1.1740182638168335,0.09766769409179688,-0.919636607170105,4.369999999999951
1.5693681240081787,-0.70782470703125,-1.584591031074524,4.379999999999951
1.5648306608200073,-1.567647933959961,-2.197713851928711,4.389999999999951
1.1904399394989014,-2.0077266693115234,-2.5159826278686523,4.399999999999951
0.6810075640678406,-2.016233444213867,-2.5827016830444336,4.40999999999995
0.45260918140411377,-1.7340807914733887,-2.473475217819214,4.41999999999995
0.39270734786987305,-1.4997406005859375,-1.9405370950698853,4.42999999999995
0.009659767150878906,-0.5542526245117188,-1.165969729423523,4.43999999999995
-0.22181260585784912,1.0560941696166992,-0.7446385622024536,4.4499999999999496
-0.13117992877960205,2.7657718658447266,-0.49275723099708557,4.459999999999949
-0.06184518337249756,3.9189043045043945,-0.6169143915176392,4.469999999999949
0.16975831985473633,4.205174446105957,-0.6330742835998535,4.479999999999949
0.20000195503234863,4.218716621398926,-0.6511887907981873,4.489999999999949
-0.14950311183929443,4.139133453369141,-0.71347975730896,4.4999999999999485
-0.7755975723266602,4.188773155212402,-0.7704334259033203,4.509999999999948
-1.3835222721099854,4.628026008605957,-0.8175112009048462,4.519999999999948
-2.05181884765625,5.250781059265137,-0.8627488613128662,4.529999999999948
-2.7446446418762207,5.777065277099609,-0.8855633735656738,4.539999999999948
-3.304706335067749,6.063521385192871,-0.8627911806106567,4.549999999999947
-3.570133686065674,6.024319648742676,-0.8400073051452637,4.559999999999947
-3.6685538291931152,5.8056440353393555,-0.8027065396308899,4.569999999999947
-3.735015630722046,5.455303192138672,-0.7692881226539612,4.579999999999947
-3.9452872276306152,5.114249229431152,-0.7916163206100464,4.589999999999947
-4.159367561340332,4.84183406829834,-0.7489732503890991,4.599999999999946
-4.210824012756348,4.560940742492676,-0.6088731288909912,4.609999999999946
-4.164815902709961,4.055797576904297,-0.5418425798416138,4.619999999999946
-3.8893463611602783,3.5153303146362305,-0.714637279510498,4.629999999999946
-3.008946418762207,3.3370065689086914,-1.3222801685333252,4.6399999999999455
-2.3127479553222656,3.0732879638671875,-1.9192545413970947,4.649999999999945
-1.9375026226043701,2.776616096496582,-2.8109214305877686,4.659999999999945
-1.0572247505187988,2.4905595779418945,-3.681135416030884,4.669999999999945
-0.14703547954559326,1.8023109436035156,-4.339173316955566,4.679999999999945
0.6649845242500305,1.1595382690429688,-4.97425651550293,4.689999999999944
0.9314572811126709,0.9776744842529297,-5.283259391784668,4.699999999999944
1.1005491018295288,0.7571067810058594,-5.875786781311035,4.709999999999944
1.4575657844543457,0.12851715087890625,-6.852573394775391,4.719999999999944
1.2650294303894043,-0.1353778839111328,-7.22039270401001,4.729999999999944
1.1134674549102783,-0.3050670623779297,-7.214978218078613,4.739999999999943
1.2241032123565674,-0.21259689331054688,-7.065839767456055,4.749999999999943
1.8405482769012451,-0.4888792037963867,-6.808039665222168,4.759999999999943
2.3600263595581055,-0.8324298858642578,-6.153779983520508,4.769999999999943
2.455040216445923,-1.0624346733093262,-5.407191753387451,4.7799999999999425
2.614952802658081,-1.3834915161132812,-5.089310646057129,4.789999999999942
2.54422926902771,-1.5819487571716309,-4.837228775024414,4.799999999999942
2.3973429203033447,-2.086697578430176,-5.545652866363525,4.809999999999942
2.614579200744629,-2.7345919609069824,-6.206942558288574,4.819999999999942
2.5387253761291504,-3.474832057952881,-6.604467391967773,4.8299999999999415
2.156475305557251,-4.388380527496338,-6.793944358825684,4.839999999999941
1.8195393085479736,-4.826639175415039,-6.775876522064209,4.849999999999941
1.3906748294830322,-5.06107234954834,-6.3102946281433105,4.859999999999941
1.05930495262146,-5.318737030029297,-5.2709059715271,4.869999999999941
0.7873555421829224,-5.613302230834961,-4.2116289138793945,4.87999999999994
0.47113728523254395,-5.800284385681152,-3.2654213905334473,4.88999999999994
0.0661383867263794,-5.7970685958862305,-2.5010476112365723,4.89999999999994
-0.2819643020629883,-5.750120639801025,-2.162348508834839,4.90999999999994
-0.6714484691619873,-5.774744987487793,-1.9330527782440186,4.9199999999999395
-0.9809067249298096,-5.83555793762207,-1.654996395111084,4.929999999999939
-1.380675196647644,-5.904179573059082,-1.5290884971618652,4.939999999999939
-1.643023133277893,-5.939922332763672,-1.4644861221313477,4.949999999999939
-1.8892979621887207,-5.825342178344727,-1.451979160308838,4.959999999999939
-1.9823460578918457,-5.672207832336426,-1.502096176147461,4.9699999999999385
-2.103518009185791,-5.50119686126709,-1.6733145713806152,4.979999999999938
-2.152156114578247,-5.519692420959473,-1.772688388824463,4.989999999999938
-2.0902037620544434,-5.607481956481934,-1.7793445587158203,4.999999999999938
-2.049337387084961,-5.668610095977783,-1.7461934089660645,5.009999999999938
-1.9434123039245605,-5.712581634521484,-1.709059238433838,5.019999999999937
-1.726827621459961,-5.7392354011535645,-1.6105008125305176,5.029999999999937
-1.4191429615020752,-5.7459716796875,-1.4435811042785645,5.039999999999937
-1.0999034643173218,-5.636835098266602,-1.1824851036071777,5.049999999999937
-0.968207836151123,-5.526289939880371,-0.9020764827728271,5.0599999999999365
-0.8880640268325806,-5.382765293121338,-0.5193510055541992,5.069999999999936
-0.7828096151351929,-5.2513837814331055,-0.06810855865478516,5.079999999999936
-0.7692539691925049,-5.009816646575928,0.3462405204772949,5.089999999999936
-0.7607465982437134,-4.672160625457764,0.6303634643554688,5.099999999999936
-0.8235722780227661,-4.154153347015381,0.8793706893920898,5.1099999999999355
-0.9896485805511475,-3.5294418334960938,1.0975656509399414,5.119999999999935
-1.1706565618515015,-2.6467247009277344,1.33455228805542,5.129999999999935
-1.3906892538070679,-1.4742298126220703,1.6487796306610107,5.139999999999935
-1.6784827709197998,0.012980461120605469,1.8631699085235596,5.149999999999935
-1.8734192848205566,1.6729412078857422,2.136540174484253,5.159999999999934
-1.9340696334838867,3.492783546447754,2.6611013412475586,5.169999999999934
-2.0393199920654297,5.286382675170898,3.4087116718292236,5.179999999999934
-2.3239991664886475,6.8572998046875,3.98500657081604,5.189999999999934
-2.9708333015441895,7.951540946960449,4.417415618896484,5.199999999999934
-3.5872902870178223,8.763022422790527,4.643566131591797,5.209999999999933
-3.685046911239624,9.363739013671875,4.660618305206299,5.219999999999933
-3.5897116661071777,9.708317756652832,4.638162612915039,5.229999999999933
-3.3433327674865723,9.44975471496582,4.66966438293457,5.239999999999933
-2.9240448474884033,8.506521224975586,4.70805025100708,5.2499999999999325
-2.3769497871398926,7.153163909912109,4.757253646850586,5.259999999999932
-1.8079681396484375,5.706942558288574,4.783379554748535,5.269999999999932
-1.2482901811599731,4.236690521240234,4.7425312995910645,5.279999999999932
-0.9118850231170654,2.7852611541748047,4.633457183837891,5.289999999999932
-0.8575942516326904,1.4862966537475586,4.509764194488525,5.299999999999931
-0.9319069385528564,0.1789560317993164,4.399041175842285,5.309999999999931
-0.8667252063751221,-1.2734594345092773,4.147028923034668,5.319999999999931
-0.7693507671356201,-2.7226362228393555,3.732949733734131,5.329999999999931
-0.7325143814086914,-3.8743185997009277,3.3984241485595703,5.339999999999931
-1.178844690322876,-4.303320407867432,3.2011897563934326,5.34999999999993
-1.8098180294036865,-3.9296631813049316,3.049484968185425,5.35999999999993
-2.4635825157165527,-2.9151878356933594,2.9119129180908203,5.36999999999993
-2.7591662406921387,-1.7206783294677734,2.707214117050171,5.37999999999993
-2.7598137855529785,-0.4765949249267578,2.2299513816833496,5.3899999999999295
-2.5108768939971924,0.3518562316894531,1.5021545886993408,5.399999999999929
-1.999598503112793,1.1038503646850586,0.5907852649688721,5.409999999999929
-1.5739909410476685,2.258342742919922,-0.6885907649993896,5.419999999999929
-1.269956111907959,3.8102855682373047,-2.5010132789611816,5.429999999999929
-1.019428014755249,5.612055778503418,-4.533100605010986,5.4399999999999284
-0.590786337852478,7.085283279418945,-6.4541168212890625,5.449999999999928
-0.8939095735549927,8.416434288024902,-8.334192276000977,5.459999999999928
-1.4403027296066284,9.197585105895996,-9.628730773925781,5.469999999999928
-1.9992570877075195,9.434172630310059,-10.02615737915039,5.479999999999928
-1.9941807985305786,8.736116409301758,-9.46591854095459,5.489999999999927
-1.9540133476257324,7.135848045349121,-8.50804328918457,5.499999999999927
-2.1680185794830322,4.980834007263184,-7.6140031814575195,5.509999999999927
-2.393317937850952,2.6637964248657227,-6.869207859039307,5.519999999999927
-2.751563787460327,0.5083932876586914,-6.602840423583984,5.5299999999999265
-3.053605556488037,-1.2662534713745117,-6.585239410400391,5.539999999999926
-2.813706636428833,-2.488546371459961,-6.483699321746826,5.549999999999926
-2.3085556030273438,-3.360039710998535,-6.162407875061035,5.559999999999926
-1.6801528930664062,-3.9815382957458496,-5.578935623168945,5.569999999999926
-1.0528483390808105,-4.3460164070129395,-4.903683662414551,5.5799999999999255
-0.5051064491271973,-4.5348286628723145,-4.106086730957031,5.589999999999925
0.03092736005783081,-4.667237758636475,-3.0891988277435303,5.599999999999925
0.6395076513290405,-4.680545330047607,-1.916734218597412,5.609999999999925
1.3133084774017334,-4.387740612030029,-0.7077360153198242,5.619999999999925
2.1339221000671387,-3.3842835426330566,0.07407259941101074,5.629999999999924
2.8505444526672363,-1.9357900619506836,0.09120845794677734,5.639999999999924
3.2338979244232178,-0.5608024597167969,-0.5287349224090576,5.649999999999924
3.4152286052703857,0.4262990951538086,-1.776500940322876,5.659999999999924
2.9023420810699463,0.8548707962036133,-3.263598918914795,5.6699999999999235
1.9235193729400635,0.9606637954711914,-4.628743648529053,5.679999999999923
0.7291860580444336,0.744598388671875,-5.61915397644043,5.689999999999923
-0.2572098970413208,0.5059823989868164,-6.191293716430664,5.699999999999923
-0.5427539944648743,0.6010885238647461,-6.394772529602051,5.709999999999923
-0.5965046882629395,0.7592964172363281,-6.313147068023682,5.7199999999999225
-0.5912018418312073,0.822484016418457,-5.8759379386901855,5.729999999999922
-0.08306962251663208,0.8909187316894531,-5.220669269561768,5.739999999999922
0.5138631463050842,0.9331731796264648,-4.130970478057861,5.749999999999922
0.9721858501434326,0.779022216796875,-2.8676741123199463,5.759999999999922
1.3048033714294434,0.38753604888916016,-1.8785219192504883,5.769999999999921
0.9579763412475586,0.016824722290039062,-1.2570396661758423,5.779999999999921
0.5680043697357178,-0.2807130813598633,-1.1221935749053955,5.789999999999921
0.2187749743461609,-0.5817766189575195,-1.014754056930542,5.799999999999921
-0.14288830757141113,-0.8697986602783203,-0.7072654962539673,5.809999999999921
-0.287696897983551,-1.1880254745483398,-0.23448921740055084,5.81999999999992
-0.20360374450683594,-1.5006647109985352,0.30695635080337524,5.82999999999992
-0.13940900564193726,-1.81976318359375,0.7774584293365479,5.83999999999992
-0.05940234661102295,-2.078425884246826,1.0251061916351318,5.84999999999992
-0.02854853868484497,-2.2217793464660645,0.9958011507987976,5.8599999999999195
0.012562394142150879,-2.175874710083008,0.7738569378852844,5.869999999999919
0.07301020622253418,-2.036620616912842,0.42188018560409546,5.879999999999919
0.24383282661437988,-1.8399677276611328,0.016431190073490143,5.889999999999919
0.4159202575683594,-1.961287498474121,-0.2609422206878662,5.899999999999919
0.3867000937461853,-2.015143394470215,-0.2862043082714081,5.909999999999918
0.580528736114502,-2.1426100730895996,-0.17473351955413818,5.919999999999918
0.529681921005249,-1.8031435012817383,0.05200977623462677,5.929999999999918
0.07945412397384644,-0.9662904739379883,0.7123440504074097,5.939999999999918
-0.009662508964538574,-0.8473892211914062,1.6304640769958496,5.949999999999918
0.4125300645828247,-1.1537790298461914,2.0930445194244385,5.959999999999917
0.921951949596405,-1.397139549255371,2.0126500129699707,5.969999999999917
1.503701090812683,-1.5775833129882812,1.695887565612793,5.979999999999917
1.8966007232666016,-1.6258964538574219,1.2120680809020996,5.989999999999917
2.0596089363098145,-1.4084177017211914,0.7523863911628723,5.9999999999999165
2.1934239864349365,-1.0594558715820312,0.397651731967926,6.009999999999916
2.141777992248535,-0.7132015228271484,0.15700536966323853,6.019999999999916
2.040802001953125,-0.3912496566772461,0.1305598020553589,6.029999999999916
1.9123690128326416,-0.11742782592773438,0.42145368456840515,6.039999999999916
1.809525966644287,-0.023064613342285156,0.9443069696426392,6.0499999999999154
1.7254998683929443,0.11455440521240234,1.465287685394287,6.059999999999915
1.71335768699646,0.20699214935302734,1.8507039546966553,6.069999999999915
1.6873962879180908,0.20898914337158203,2.0868029594421387,6.079999999999915
1.669380784034729,0.19246768951416016,2.1380767822265625,6.089999999999915
1.6403303146362305,0.17425823211669922,2.088564872741699,6.099999999999914
1.650712490081787,0.1472759246826172,1.993512511253357,6.109999999999914
1.5454607009887695,0.08531665802001953,1.958112359046936,6.119999999999914
1.432642936706543,0.09844112396240234,1.9602980613708496,6.129999999999914
1.2333358526229858,0.16025543212890625,2.0594897270202637,6.1399999999999135
1.1530824899673462,0.28981590270996094,2.197967529296875,6.149999999999913
1.2472704648971558,0.35558032989501953,2.3992857933044434,6.159999999999913
1.1640088558197021,0.6373348236083984,2.5744524002075195,6.169999999999913
1.103959560394287,0.8477773666381836,2.8139424324035645,6.179999999999913
1.1989495754241943,1.037149429321289,3.057215690612793,6.1899999999999125
1.3080487251281738,1.2005910873413086,3.2388381958007812,6.199999999999912
1.407591700553894,1.4408140182495117,3.3508174419403076,6.209999999999912
1.482967734336853,1.728830337524414,3.457090377807617,6.219999999999912
1.4639976024627686,2.0404300689697266,3.576411247253418,6.229999999999912
1.4144099950790405,2.3442773818969727,3.7349436283111572,6.239999999999911
1.4385056495666504,2.513491630554199,3.9424052238464355,6.249999999999911
1.5091160535812378,2.6197595596313477,4.160360336303711,6.259999999999911
1.69278883934021,2.7083702087402344,4.209031581878662,6.269999999999911
2.0157389640808105,2.7480106353759766,4.121291160583496,6.2799999999999105
2.6003336906433105,2.6763925552368164,3.898749589920044,6.28999999999991
3.2364883422851562,2.601067543029785,3.5501198768615723,6.29999999999991
3.8526480197906494,2.5649032592773438,3.1202664375305176,6.30999999999991
4.357408046722412,2.553384780883789,2.7122278213500977,6.31999999999991
4.665925025939941,2.690852165222168,2.4157655239105225,6.3299999999999095
4.872760772705078,2.855380058288574,2.292621612548828,6.339999999999909
5.132693767547607,2.9444265365600586,2.347059965133667,6.349999999999909
5.3209428787231445,3.077885627746582,2.4512276649475098,6.359999999999909
5.324830055236816,3.243825912475586,2.6154110431671143,6.369999999999909
5.223659515380859,3.20782470703125,2.8176987171173096,6.379999999999908
4.675510883331299,3.189756393432617,2.874898910522461,6.389999999999908
3.8933377265930176,3.2368688583374023,2.88313889503479,6.399999999999908
3.039985418319702,3.3462772369384766,2.8525733947753906,6.409999999999908
2.0964155197143555,3.5916996002197266,2.726578712463379,6.419999999999908
1.3334729671478271,3.826986312866211,2.491955280303955,6.429999999999907
0.7616244554519653,3.7844390869140625,2.2864420413970947,6.439999999999907
0.4416154623031616,3.421597480773926,2.0543198585510254,6.449999999999907
0.19721496105194092,2.832394599914551,1.721061110496521,6.459999999999907
0.17752063274383545,2.218173027038574,1.0993404388427734,6.4699999999999065
0.13330602645874023,1.6268339157104492,0.3727304935455322,6.479999999999906
0.23860657215118408,0.8146562576293945,-0.29863476753234863,6.489999999999906
0.3474407196044922,-0.09825992584228516,-0.9658135175704956,6.499999999999906
0.35714972019195557,-0.4732818603515625,-1.6363298892974854,6.509999999999906
0.12943947315216064,-0.9132146835327148,-2.032212734222412,6.519999999999905
0.053406476974487305,-1.507843017578125,-2.1947121620178223,6.529999999999905
-0.12173569202423096,-1.763308048248291,-2.1537437438964844,6.539999999999905
-0.3631540536880493,-1.5784597396850586,-1.7876838445663452,6.549999999999905
-0.49413788318634033,-0.6300458908081055,-1.212695598602295,6.559999999999905
-0.6230676174163818,1.4352893829345703,-0.8787558674812317,6.569999999999904
-0.6170309782028198,3.5927553176879883,-0.7027600407600403,6.579999999999904
-0.529089093208313,5.133923530578613,-0.4904616177082062,6.589999999999904
-0.12199139595031738,5.905806541442871,-0.5274918079376221,6.599999999999904
0.4749399423599243,5.80399227142334,-0.7597029805183411,6.6099999999999035
0.6066247820854187,5.338878631591797,-0.9551198482513428,6.619999999999903
0.14544880390167236,5.065502166748047,-1.0674066543579102,6.629999999999903
-0.5466405153274536,5.196198463439941,-1.1044907569885254,6.639999999999903
-1.4123562574386597,5.5819501876831055,-1.009515404701233,6.649999999999903
-2.4542152881622314,6.04768180847168,-0.8238652944564819,6.659999999999902
-3.499948501586914,6.356553077697754,-0.6328467130661011,6.669999999999902
-4.314934253692627,6.4563446044921875,-0.5270380973815918,6.679999999999902
-4.763293743133545,6.292540550231934,-0.4722965955734253,6.689999999999902
-4.994447708129883,5.777102470397949,-0.45030808448791504,6.699999999999902
-5.085736274719238,5.058754920959473,-0.4778100252151489,6.709999999999901
-5.147739887237549,4.407806396484375,-0.4700284004211426,6.719999999999901
-5.088016033172607,3.8882789611816406,-0.29091930389404297,6.729999999999901
-4.645718574523926,3.439946174621582,-0.10908269882202148,6.739999999999901
-3.9050679206848145,3.1609201431274414,-0.03232216835021973,6.7499999999999005
-3.129693031311035,2.9866418838500977,-0.23322367668151855,6.7599999999999
-2.3184821605682373,2.8498239517211914,-0.6915732622146606,6.7699999999999
-1.7176450490951538,2.7212343215942383,-1.2311866283416748,6.7799999999999
-1.415938138961792,2.3993473052978516,-1.7787134647369385,6.7899999999999
-1.1331733465194702,2.3743772506713867,-2.8794105052948,6.7999999999998995
0.16542506217956543,1.9706487655639648,-3.6121411323547363,6.809999999999899
0.9566256999969482,1.366006851196289,-4.04326057434082,6.819999999999899
1.3022775650024414,0.9640884399414062,-4.6629180908203125,6.829999999999899
1.2306981086730957,0.9538936614990234,-5.355249881744385,6.839999999999899
1.0498712062835693,0.8072309494018555,-6.337688446044922,6.849999999999898
0.7224329113960266,0.4556999206542969,-6.500210762023926,6.859999999999898
0.7617373466491699,0.12484455108642578,-6.583741188049316,6.869999999999898
0.9855796098709106,-0.2305431365966797,-6.911191940307617,6.879999999999898
0.7431660890579224,-0.2759866714477539,-6.563070297241211,6.8899999999998975
0.9440410137176514,-0.45231151580810547,-6.3060302734375,6.899999999999897
1.5143698453903198,-0.6880521774291992,-6.633020401000977,6.909999999999897
1.4391610622406006,-0.6441860198974609,-7.17802619934082,6.919999999999897
1.689932107925415,-0.8019609451293945,-7.466587066650391,6.929999999999897
1.954609751701355,-1.5486993789672852,-7.577508926391602,6.9399999999998965
2.105135679244995,-2.2261223793029785,-7.484832763671875,6.949999999999896
1.9604977369308472,-2.7240891456604004,-7.392769813537598,6.959999999999896
1.6007623672485352,-3.4734725952148438,-7.217386722564697,6.969999999999896
1.3933019638061523,-4.216689109802246,-6.651154518127441,6.979999999999896
1.085837960243225,-4.8616557121276855,-6.039569854736328,6.989999999999895
0.6083587408065796,-5.433806419372559,-5.27076530456543,6.999999999999895
0.11648213863372803,-5.724120140075684,-4.426888942718506,7.009999999999895
-0.2768542766571045,-5.782002925872803,-3.594890832901001,7.019999999999895
-0.7346932888031006,-5.7809929847717285,-2.957785129547119,7.0299999999998946
-1.4888408184051514,-5.643274307250977,-2.3188602924346924,7.039999999999894
-1.6258317232131958,-5.483442306518555,-2.94905161857605,7.049999999999894
-1.1159312725067139,-5.576059341430664,-3.097849130630493,7.059999999999894
-0.8766298294067383,-5.662863731384277,-2.9956130981445312,7.069999999999894
-0.8007564544677734,-5.76816987991333,-2.7000088691711426,7.0799999999998935
-0.7663171291351318,-5.784566879272461,-2.479079484939575,7.089999999999893
-0.826082706451416,-5.829262733459473,-2.2207131385803223,7.099999999999893
-0.9054863452911377,-5.968782424926758,-2.069030284881592,7.109999999999893
-1.0517656803131104,-5.973000526428223,-2.1152994632720947,7.119999999999893
-1.2863361835479736,-5.896557331085205,-2.276350736618042,7.129999999999892
-1.432163119316101,-5.799169540405273,-2.418292284011841,7.139999999999892
-1.443780541419983,-5.852977752685547,-2.3760194778442383,7.149999999999892
-1.436044692993164,-5.930817604064941,-2.441622018814087,7.159999999999892
-1.3109976053237915,-5.998760223388672,-2.5006320476531982,7.169999999999892
-1.2363438606262207,-6.020565509796143,-2.436295509338379,7.179999999999891
-1.1235277652740479,-5.981541633605957,-2.2228047847747803,7.189999999999891
-1.0253515243530273,-5.914738655090332,-1.8848235607147217,7.199999999999891
-1.0737855434417725,-5.774439811706543,-1.4491918087005615,7.209999999999891
-0.9890443086624146,-5.527227401733398,-0.8009872436523438,7.2199999999998905
-0.9266133308410645,-5.132504463195801,-0.09315681457519531,7.22999999999989
-0.8622101545333862,-4.630681037902832,0.492342472076416,7.23999999999989
-0.9894591569900513,-4.025999069213867,1.0601119995117188,7.24999999999989
-1.1761161088943481,-3.351313591003418,1.6356472969055176,7.25999999999989
-1.3566049337387085,-2.402486801147461,2.1005172729492188,7.269999999999889
-1.3972386121749878,-1.183424949645996,2.4772610664367676,7.279999999999889
-1.4937348365783691,0.3262147903442383,2.938232421875,7.289999999999889
-1.5510445833206177,2.048825263977051,3.425741195678711,7.299999999999889
-1.849575400352478,3.9636049270629883,3.93113112449646,7.309999999999889
-2.18754243850708,5.611518859863281,4.389376163482666,7.319999999999888
-2.652407169342041,7.005093574523926,4.553175926208496,7.329999999999888
-2.9856603145599365,8.05937671661377,4.362720489501953,7.339999999999888
-3.411278247833252,9.033782005310059,4.226461410522461,7.349999999999888
-4.071725845336914,10.074091911315918,4.321849822998047,7.3599999999998875
-4.5983099937438965,10.906725883483887,4.548120975494385,7.369999999999887
-4.799841403961182,11.042779922485352,4.743771076202393,7.379999999999887
-4.242588043212891,9.812432289123535,4.706974029541016,7.389999999999887
-3.4548606872558594,7.847662925720215,4.585750579833984,7.399999999999887
-2.771487236022949,5.844223976135254,4.61726188659668,7.4099999999998865
-2.351987600326538,4.085949897766113,4.583666801452637,7.419999999999886
-2.0905368328094482,2.6772823333740234,4.658634185791016,7.429999999999886
-1.8362849950790405,1.4618520736694336,4.723883628845215,7.439999999999886
-1.568340539932251,0.16126155853271484,4.592348575592041,7.449999999999886
-1.1606141328811646,-1.3422942161560059,4.313756465911865,7.459999999999885
-0.7061259746551514,-3.0391287803649902,3.8481762409210205,7.469999999999885
-0.5790170431137085,-4.534049034118652,3.317333221435547,7.479999999999885
-0.8417315483093262,-5.336737632751465,3.0056517124176025,7.489999999999885
-1.564115047454834,-5.190001487731934,2.8708956241607666,7.4999999999998845
-2.141723155975342,-4.217487812042236,2.790334701538086,7.509999999999884
-2.35947847366333,-2.911182403564453,2.8159947395324707,7.519999999999884
-2.1259267330169678,-1.6526641845703125,2.621948480606079,7.529999999999884
-1.721459984779358,-0.5718784332275391,1.9274940490722656,7.539999999999884
-1.1531778573989868,0.3163614273071289,0.9470477104187012,7.5499999999998835
-0.3833620548248291,1.5790596008300781,-0.1396958827972412,7.559999999999883
0.39288508892059326,3.2557296752929688,-1.6445109844207764,7.569999999999883
1.111238718032837,5.48043155670166,-3.441848039627075,7.579999999999883
1.2715777158737183,7.880034446716309,-5.757312774658203,7.589999999999883
0.8238246440887451,9.709936141967773,-7.9620442390441895,7.599999999999882
-0.19681251049041748,10.943097114562988,-9.752678871154785,7.609999999999882
-1.1965596675872803,11.456169128417969,-10.705994606018066,7.619999999999882
-1.727744460105896,11.366414070129395,-10.497344970703125,7.629999999999882
-1.5784975290298462,9.952801704406738,-9.601797103881836,7.6399999999998816
-1.5060850381851196,7.120617866516113,-8.826647758483887,7.649999999999881
-1.57418954372406,3.6388912200927734,-8.59084701538086,7.659999999999881
-2.0853967666625977,0.7571306228637695,-8.366658210754395,7.669999999999881
-2.5576281547546387,-1.3372902870178223,-7.9684343338012695,7.679999999999881
-2.235903739929199,-2.4827423095703125,-7.2776384353637695,7.6899999999998805
-1.7001147270202637,-2.981344699859619,-6.394046783447266,7.69999999999988
-0.9603486061096191,-3.349841594696045,-5.403416633605957,7.70999999999988
-0.32047760486602783,-3.776644229888916,-4.283982276916504,7.71999999999988
0.2463856339454651,-4.182253837585449,-3.2191781997680664,7.72999999999988
0.822180986404419,-4.454013347625732,-2.0209579467773438,7.739999999999879
1.6217364072799683,-4.221624374389648,-0.8040933609008789,7.749999999999879
2.37892484664917,-3.390451431274414,-0.15569734573364258,7.759999999999879
2.957508087158203,-2.173813819885254,-0.5572996139526367,7.769999999999879
3.1578750610351562,-0.9442625045776367,-1.7253563404083252,7.779999999999879
2.809169292449951,0.10344314575195312,-3.1405911445617676,7.789999999999878
2.1049067974090576,0.7394094467163086,-4.451572418212891,7.799999999999878
1.0925978422164917,0.8291740417480469,-5.379216194152832,7.809999999999878
0.07296419143676758,0.7875890731811523,-5.8035478591918945,7.819999999999878
-0.5585193037986755,0.6752834320068359,-6.0677947998046875,7.8299999999998775
-0.9112934470176697,0.5934553146362305,-6.281340599060059,7.839999999999877
-0.8750272393226624,0.5400161743164062,-6.033927917480469,7.849999999999877
-0.869018018245697,0.5674314498901367,-5.581585884094238,7.859999999999877
-0.8092502951622009,0.5721197128295898,-4.76616907119751,7.869999999999877
-0.4929935932159424,0.34026622772216797,-3.3695473670959473,7.879999999999876
0.47088247537612915,0.04608345031738281,-1.7433730363845825,7.889999999999876
1.1942260265350342,-0.36797428131103516,-0.45123517513275146,7.899999999999876
0.9248625040054321,-0.43317604064941406,0.07812988758087158,7.909999999999876
0.1389959454536438,-0.49685001373291016,-0.09170502424240112,7.919999999999876
-0.1828022599220276,-0.7625465393066406,-0.5257625579833984,7.929999999999875
0.1511790156364441,-1.3259859085083008,-0.8169803023338318,7.939999999999875
0.7585991621017456,-1.8760147094726562,-0.9847171306610107,7.949999999999875
1.3108878135681152,-2.1447954177856445,-1.182558536529541,7.959999999999875
1.4621963500976562,-2.364706516265869,-1.314307689666748,7.9699999999998745
1.3276923894882202,-2.449979305267334,-1.1147072315216064,7.979999999999874
1.1154199838638306,-2.3699512481689453,-0.7317937016487122,7.989999999999874
0.9548164010047913,-2.0818867683410645,-0.3810161352157593,7.999999999999874
