AccX,AccY,AccZ,SampleRate
1.0089417695999146,-0.28801441192626953,0.9030143618583679,0
1.0331590175628662,-0.8987741470336914,0.4545227885246277,0.01
1.1928373575210571,-1.359395980834961,0.2521175742149353,0.02
1.3818804025650024,-1.725240707397461,0.27594664692878723,0.03
1.2114529609680176,-1.7529983520507812,0.2316935956478119,0.04
0.8346901535987854,-1.6084880828857422,0.16060543060302734,0.05
0.44492971897125244,-1.363936424255371,-0.030385524034500122,0.060000000000000005
0.13819432258605957,-1.4686689376831055,-0.02685616910457611,0.07
-0.007919669151306152,-1.6183767318725586,0.1185593456029892,0.08
-0.08118152618408203,-1.7077302932739258,0.29853272438049316,0.09
-0.026225805282592773,-1.7176599502563477,0.7256117463111877,0.09999999999999999
-0.30730772018432617,-1.137115478515625,1.2553045749664307,0.10999999999999999
-0.25972092151641846,-0.8513011932373047,1.7001721858978271,0.11999999999999998
-0.03498244285583496,-0.9982089996337891,1.9167438745498657,0.12999999999999998
0.4757789969444275,-1.4862308502197266,1.8607635498046875,0.13999999999999999
0.8224051594734192,-1.8034272193908691,1.5450658798217773,0.15
1.009956955909729,-1.8307008743286133,1.1920711994171143,0.16
1.0340015888214111,-1.563873291015625,0.9687658548355103,0.17
1.0097949504852295,-1.2209415435791016,0.8386864066123962,0.18000000000000002
0.87114417552948,-0.9071226119995117,0.8373576402664185,0.19000000000000003
0.6881614923477173,-0.6389989852905273,1.0009546279907227,0.20000000000000004
0.4540930390357971,-0.49046993255615234,1.1865789890289307,0.21000000000000005
0.28633469343185425,-0.3991079330444336,1.2896455526351929,0.22000000000000006
0.206157386302948,-0.40779876708984375,1.3364847898483276,0.23000000000000007
0.19664692878723145,-0.4183464050292969,1.313065528869629,0.24000000000000007
0.34183210134506226,-0.5405416488647461,1.2223155498504639,0.25000000000000006
0.424358606338501,-0.6952056884765625,1.083906888961792,0.26000000000000006
0.47317755222320557,-0.82965087890625,0.8453711867332458,0.2700000000000001
0.5147858262062073,-0.9056253433227539,0.6573961973190308,0.2800000000000001
0.4584299325942993,-0.9327707290649414,0.5530608892440796,0.2900000000000001
0.4309925436973572,-0.8657627105712891,0.5127840042114258,0.3000000000000001
0.3894343972206116,-0.7692899703979492,0.5718904137611389,0.3100000000000001
0.3695071339607239,-0.6601600646972656,0.7010365724563599,0.3200000000000001
0.43811357021331787,-0.4882192611694336,0.8568145036697388,0.3300000000000001
0.5882211923599243,-0.27747535705566406,1.0673725605010986,0.34000000000000014
0.5685953497886658,0.010161399841308594,1.2891721725463867,0.35000000000000014
0.4674571752548218,0.4317646026611328,1.6005730628967285,0.36000000000000015
0.47342240810394287,0.8436651229858398,1.965538501739502,0.37000000000000016
0.49022090435028076,1.229095458984375,2.2740683555603027,0.38000000000000017
0.43350428342819214,1.556884765625,2.5617291927337646,0.3900000000000002
0.5110291838645935,1.748082160949707,2.7439894676208496,0.4000000000000002
0.6411740779876709,1.9173822402954102,2.917825937271118,0.4100000000000002
0.730583131313324,2.198370933532715,3.1037256717681885,0.4200000000000002
0.6976566910743713,2.514141082763672,3.35376238822937,0.4300000000000002
0.7907466888427734,2.7569751739501953,3.6296544075012207,0.4400000000000002
1.0478192567825317,2.941338539123535,3.907768487930298,0.45000000000000023
1.2199902534484863,3.019455909729004,4.04225492477417,0.46000000000000024
1.5681140422821045,3.1132259368896484,3.9824538230895996,0.47000000000000025
2.241042137145996,3.2869911193847656,3.8206872940063477,0.48000000000000026
2.9258840084075928,3.4687395095825195,3.512923240661621,0.49000000000000027
3.5172557830810547,3.6509580612182617,3.041459321975708,0.5000000000000002
4.000128269195557,3.78792667388916,2.422553777694702,0.5100000000000002
4.485856056213379,3.8533096313476562,1.883790135383606,0.5200000000000002
4.875023365020752,3.8712081909179688,1.4886001348495483,0.5300000000000002
5.099550247192383,3.849163055419922,1.3562648296356201,0.5400000000000003
5.194246292114258,3.768498420715332,1.4940310716629028,0.5500000000000003
5.01676082611084,3.653458595275879,1.7702643871307373,0.5600000000000003
4.317261695861816,3.4945554733276367,2.074186325073242,0.5700000000000003
3.5764636993408203,3.2369308471679688,2.2701799869537354,0.5800000000000003
2.9824559688568115,2.9956445693969727,2.381702423095703,0.5900000000000003
2.5114200115203857,2.6872615814208984,2.397867202758789,0.6000000000000003
1.5797117948532104,2.557971954345703,2.2519803047180176,0.6100000000000003
0.5306812524795532,2.7362451553344727,2.0831363201141357,0.6200000000000003
-0.47258079051971436,2.865306854248047,1.9352949857711792,0.6300000000000003
-1.2625155448913574,2.9882287979125977,1.702309489250183,0.6400000000000003
-1.774832010269165,2.9831886291503906,1.4626799821853638,0.6500000000000004
-1.8751932382583618,2.87697696685791,1.4027870893478394,0.6600000000000004
-1.624820351600647,2.6485595703125,1.2158311605453491,0.6700000000000004
-1.1588878631591797,2.384364128112793,1.0033667087554932,0.6800000000000004
-0.7452876567840576,1.9291496276855469,0.706787645816803,0.6900000000000004
-0.36585867404937744,1.1494083404541016,0.23443955183029175,0.7000000000000004
0.1485508680343628,0.2154998779296875,-0.4000537395477295,0.7100000000000004
0.6906243562698364,-0.4921598434448242,-1.2323155403137207,0.7200000000000004
0.807116687297821,-1.3177127838134766,-1.9300200939178467,0.7300000000000004
0.5202098488807678,-1.7969179153442383,-2.465507984161377,0.7400000000000004
-0.005666851997375488,-2.115997791290283,-2.5993378162384033,0.7500000000000004
-0.5035065412521362,-2.1069493293762207,-2.5268948078155518,0.7600000000000005
-1.1081781387329102,-1.3919458389282227,-2.308763027191162,0.7700000000000005
-1.9079322814941406,-0.31601524353027344,-2.1803085803985596,0.7800000000000005
-1.996595025062561,1.1014881134033203,-1.7810288667678833,0.7900000000000005
-1.5284459590911865,2.143406867980957,-1.417640209197998,0.8000000000000005
-1.3025606870651245,3.1829652786254883,-1.3014276027679443,0.8100000000000005
-1.2141273021697998,4.111688613891602,-1.4698126316070557,0.8200000000000005
-0.8039387464523315,4.5775909423828125,-1.7414486408233643,0.8300000000000005
-0.4743208885192871,5.056445121765137,-1.943291425704956,0.8400000000000005
-0.5523041486740112,5.545310974121094,-2.087002754211426,0.8500000000000005
-0.9334532022476196,5.974445343017578,-2.134087562561035,0.8600000000000005
-1.6856060028076172,6.427265167236328,-2.065737247467041,0.8700000000000006
-2.810044765472412,7.061220169067383,-1.9857202768325806,0.8800000000000006
-3.954183578491211,7.586743354797363,-1.8258569240570068,0.8900000000000006
-4.784575462341309,7.898881912231445,-1.551274061203003,0.9000000000000006
-4.776472091674805,7.613480567932129,-1.1920607089996338,0.9100000000000006
-4.549589157104492,6.899204254150391,-0.9199081659317017,0.9200000000000006
-4.51463508605957,6.031947135925293,-0.7825274467468262,0.9300000000000006
-4.773871898651123,5.205898284912109,-0.6696126461029053,0.9400000000000006
-5.06587553024292,4.485873222351074,-0.6139504909515381,0.9500000000000006
-5.235035419464111,3.7760496139526367,-0.4027547836303711,0.9600000000000006
-4.9041290283203125,3.4658803939819336,-0.22902822494506836,0.9700000000000006
-4.3057708740234375,3.049881935119629,-0.21420025825500488,0.9800000000000006
-3.694788694381714,2.764002799987793,-0.8755581378936768,0.9900000000000007
-2.6245641708374023,2.403080940246582,-2.2300233840942383,1.0000000000000007
-1.7833364009857178,1.793630599975586,-4.906510829925537,1.0100000000000007
-1.085550308227539,1.7732791900634766,-7.821890354156494,1.0200000000000007
0.21966823935508728,1.2187328338623047,-9.241106033325195,1.0300000000000007
0.9905182123184204,0.7045841217041016,-9.611581802368164,1.0400000000000007
1.0712125301361084,0.13494396209716797,-9.510684967041016,1.0500000000000007
0.6814038157463074,-0.13408374786376953,-8.77684211730957,1.0600000000000007
0.781665027141571,-0.4738922119140625,-6.999356269836426,1.0700000000000007
1.477637767791748,-0.7029705047607422,-5.5824432373046875,1.0800000000000007
2.6457622051239014,-0.9883928298950195,-4.970681190490723,1.0900000000000007
3.244171142578125,-1.2124528884887695,-4.750163555145264,1.1000000000000008
3.6208574771881104,-1.4301934242248535,-4.764869689941406,1.1100000000000008
3.750979423522949,-1.5661988258361816,-4.7158918380737305,1.1200000000000008
3.566776990890503,-1.6197319030761719,-4.5763325691223145,1.1300000000000008
2.8309268951416016,-1.6138300895690918,-4.611120223999023,1.1400000000000008
1.9967385530471802,-2.0339365005493164,-5.619754314422607,1.1500000000000008
1.967332124710083,-2.9740991592407227,-6.414158344268799,1.1600000000000008
1.5519766807556152,-3.926290988922119,-6.816611289978027,1.1700000000000008
1.3390111923217773,-4.809026718139648,-7.169952869415283,1.1800000000000008
0.8901189565658569,-5.396007537841797,-7.00493049621582,1.1900000000000008
0.7587290406227112,-5.639091968536377,-6.220011234283447,1.2000000000000008
0.5261091589927673,-5.7244391441345215,-5.4695000648498535,1.2100000000000009
0.33388662338256836,-5.625136375427246,-4.653958797454834,1.2200000000000009
0.09503936767578125,-5.4524688720703125,-4.016528606414795,1.2300000000000009
-0.20494747161865234,-5.257265090942383,-3.7766737937927246,1.2400000000000009
-0.6310347318649292,-5.181105136871338,-3.5321013927459717,1.2500000000000009
-0.8511912822723389,-5.1385698318481445,-3.1412501335144043,1.260000000000001
-1.0212732553482056,-5.096843719482422,-2.775970697402954,1.270000000000001
-1.2968202829360962,-4.992108345031738,-2.337660312652588,1.280000000000001
-1.4337810277938843,-5.121163368225098,-1.9696626663208008,1.290000000000001
-1.4082545042037964,-5.337759017944336,-1.796337366104126,1.300000000000001
-1.4286186695098877,-5.424013137817383,-1.6600394248962402,1.310000000000001
-1.4715015888214111,-5.489530563354492,-1.6763191223144531,1.320000000000001
-1.3436578512191772,-5.509682655334473,-1.9080982208251953,1.330000000000001
-1.4008125066757202,-5.469440460205078,-2.095167636871338,1.340000000000001
-1.3441870212554932,-5.4466552734375,-2.6190454959869385,1.350000000000001
-1.1865688562393188,-5.378597259521484,-2.719867706298828,1.360000000000001
-1.229946494102478,-5.4560747146606445,-2.975011110305786,1.370000000000001
-1.1586581468582153,-5.53026008605957,-3.0977871417999268,1.380000000000001
-1.076034665107727,-5.493557929992676,-2.990340232849121,1.390000000000001
-0.9564650058746338,-5.539640426635742,-2.75829815864563,1.400000000000001
-0.7699694633483887,-5.752039909362793,-2.315807819366455,1.410000000000001
-0.5483715534210205,-5.89370059967041,-1.7564983367919922,1.420000000000001
-0.48511457443237305,-5.9452338218688965,-1.219282627105713,1.430000000000001
-0.5508038997650146,-6.016345024108887,-0.6754255294799805,1.440000000000001
-0.5625753402709961,-6.063660621643066,-0.13174962997436523,1.450000000000001
-0.6432182788848877,-6.034279823303223,0.3620762825012207,1.460000000000001
-0.9439618587493896,-5.808110237121582,0.6411252021789551,1.470000000000001
-1.3238688707351685,-5.181455612182617,0.9085817337036133,1.480000000000001
-1.8027280569076538,-4.2879180908203125,1.2187600135803223,1.490000000000001
-2.3359298706054688,-3.143260955810547,1.5385613441467285,1.500000000000001
-2.967869758605957,-1.4639678001403809,2.0723705291748047,1.5100000000000011
-3.354584217071533,0.6323633193969727,2.7567138671875,1.5200000000000011
-3.499627113342285,3.341615676879883,3.4941976070404053,1.5300000000000011
-3.577432155609131,6.383807182312012,4.250053882598877,1.5400000000000011
-3.840425968170166,9.089888572692871,4.77714729309082,1.5500000000000012
-4.6338605880737305,11.229900360107422,4.79032039642334,1.5600000000000012
-5.495682716369629,13.149001121520996,4.586643695831299,1.5700000000000012
-5.776363849639893,14.726082801818848,4.5378031730651855,1.5800000000000012
-5.3603010177612305,15.766319274902344,4.398563385009766,1.5900000000000012
-4.740750789642334,15.429024696350098,4.215838432312012,1.6000000000000012
-4.089531898498535,13.304193496704102,4.279477596282959,1.6100000000000012
-3.378096103668213,10.628388404846191,5.055704116821289,1.6200000000000012
-2.2477073669433594,8.066761016845703,5.891839504241943,1.6300000000000012
-1.0645266771316528,5.411526679992676,6.011571407318115,1.6400000000000012
-0.3490360975265503,3.0014476776123047,5.5761823654174805,1.6500000000000012
0.058444857597351074,1.1059703826904297,5.307307243347168,1.6600000000000013
0.37781310081481934,-0.5030231475830078,5.098626613616943,1.6700000000000013
0.5728814601898193,-2.0965757369995117,5.009499549865723,1.6800000000000013
0.7383264303207397,-3.701605796813965,4.919772148132324,1.6900000000000013
0.680975079536438,-5.134566307067871,4.7016472816467285,1.7000000000000013
0.1781320571899414,-6.123936653137207,4.535738945007324,1.7100000000000013
-0.47081470489501953,-6.3032450675964355,4.328339576721191,1.7200000000000013
-0.9534081220626831,-5.549919605255127,3.7535953521728516,1.7300000000000013
-0.977510929107666,-4.458581447601318,2.997227907180786,1.7400000000000013
-0.40069353580474854,-3.1857810020446777,2.173292636871338,1.7500000000000013
0.18943965435028076,-1.6222858428955078,1.046090841293335,1.7600000000000013
0.6433870792388916,0.11201763153076172,-0.34827685356140137,1.7700000000000014
1.0326985120773315,1.6380233764648438,-1.8539624214172363,1.7800000000000014
1.317766547203064,3.216750144958496,-3.459047794342041,1.7900000000000014
1.5435023307800293,4.600240707397461,-5.160339832305908,1.8000000000000014
1.2895814180374146,5.932599067687988,-6.818742752075195,1.8100000000000014
0.7279229760169983,7.000800132751465,-8.275360107421875,1.8200000000000014
0.3618983030319214,7.625120162963867,-9.085366249084473,1.8300000000000014
-0.45956265926361084,7.906966209411621,-9.076029777526855,1.8400000000000014
-1.3860162496566772,7.919893264770508,-8.083303451538086,1.8500000000000014
-2.197827100753784,7.394780158996582,-6.806893348693848,1.8600000000000014
-3.023974657058716,6.151152610778809,-6.04091739654541,1.8700000000000014
-4.031701564788818,4.053997993469238,-6.110797882080078,1.8800000000000014
-4.755472183227539,1.5640201568603516,-6.540554523468018,1.8900000000000015
-4.816726207733154,-0.4048624038696289,-5.795632362365723,1.9000000000000015
-4.316615581512451,-2.043736457824707,-4.911091327667236,1.9100000000000015
-3.810122013092041,-3.482527732849121,-4.732434272766113,1.9200000000000015
-3.04996395111084,-4.4009928703308105,-4.702304840087891,1.9300000000000015
-2.401218891143799,-4.765903949737549,-4.8599982261657715,1.9400000000000015
-1.7791266441345215,-4.928560733795166,-4.985085487365723,1.9500000000000015
-1.42720365524292,-4.88154935836792,-4.837410926818848,1.9600000000000015
-1.2024531364440918,-4.6705780029296875,-4.517792224884033,1.9700000000000015
-0.9100184440612793,-4.269424915313721,-3.869197368621826,1.9800000000000015
-0.5175523161888123,-3.539356231689453,-3.0317234992980957,1.9900000000000015
0.21641725301742554,-2.5352883338928223,-2.4107930660247803,2.0000000000000013
1.0906959772109985,-1.3163909912109375,-2.046247959136963,2.010000000000001
1.9167816638946533,-0.19962501525878906,-2.379879951477051,2.020000000000001
2.3972249031066895,0.5439472198486328,-3.3750784397125244,2.0300000000000007
2.345700263977051,0.9686946868896484,-4.646617889404297,2.0400000000000005
1.9946959018707275,1.2697324752807617,-5.841066837310791,2.0500000000000003
1.544234037399292,1.0918655395507812,-6.802162170410156,2.06
1.2397443056106567,0.8449716567993164,-7.583942413330078,2.07
0.8913774490356445,0.8780965805053711,-8.069650650024414,2.0799999999999996
0.49230602383613586,1.1975736618041992,-8.282439231872559,2.0899999999999994
-0.041936516761779785,1.6993951797485352,-7.94937801361084,2.099999999999999
-0.6193143129348755,1.9471702575683594,-7.2526445388793945,2.109999999999999
-0.8186904788017273,1.9784669876098633,-6.006623268127441,2.1199999999999988
-0.12557560205459595,1.9217338562011719,-3.6031336784362793,2.1299999999999986
0.9766185879707336,1.4057626724243164,-0.15065157413482666,2.1399999999999983
1.6875176429748535,0.6534223556518555,1.8756539821624756,2.149999999999998
1.4408135414123535,0.09333992004394531,2.054025888442993,2.159999999999998
0.8391865491867065,-0.1954965591430664,1.5967849493026733,2.1699999999999977
0.35644012689590454,-0.5455532073974609,1.2658772468566895,2.1799999999999975
0.11064404249191284,-0.8754205703735352,1.010904312133789,2.1899999999999973
7.831454277038574E-4,-1.1756229400634766,0.8570224046707153,2.199999999999997
0.16835683584213257,-1.477309226989746,0.789364755153656,2.209999999999997
0.4011574983596802,-1.7613744735717773,0.7192708253860474,2.2199999999999966
0.5733737945556641,-1.910731315612793,0.6973652243614197,2.2299999999999964
0.7222363352775574,-1.966235637664795,0.6863840818405151,2.239999999999996
0.6276888847351074,-1.7393455505371094,0.5114763379096985,2.249999999999996
0.4449508786201477,-1.3477907180786133,0.23489439487457275,2.259999999999996
0.5199284553527832,-1.291285514831543,-0.11435028910636902,2.2699999999999956
0.3418552875518799,-1.2464561462402344,-0.30686286091804504,2.2799999999999954
0.1912030577659607,-1.2753849029541016,-0.21140238642692566,2.289999999999995
0.04220104217529297,-0.988215446472168,0.2765090763568878,2.299999999999995
-0.3953125476837158,-0.8038539886474609,0.9438143968582153,2.3099999999999947
-0.15033620595932007,-0.9803333282470703,1.4435110092163086,2.3199999999999945
0.45661765336990356,-1.536172866821289,1.7019543647766113,2.3299999999999943
0.8872576951980591,-1.9257330894470215,1.6358778476715088,2.339999999999994
1.1444087028503418,-2.1277036666870117,1.383479356765747,2.349999999999994
1.2783851623535156,-2.001336097717285,1.1467784643173218,2.3599999999999937
1.375171422958374,-1.6834392547607422,0.9078173041343689,2.3699999999999934
1.4869933128356934,-1.4373512268066406,0.7763984203338623,2.3799999999999932
1.5655951499938965,-1.3252029418945312,0.6307917237281799,2.389999999999993
1.6969311237335205,-1.2775201797485352,0.4855680763721466,2.399999999999993
1.7473132610321045,-1.2535600662231445,0.4056349992752075,2.4099999999999926
1.7598862648010254,-1.0452823638916016,0.3917223811149597,2.4199999999999924
1.5958521366119385,-0.7366056442260742,0.3778032064437866,2.429999999999992
1.4466215372085571,-0.5571346282958984,0.3193833827972412,2.439999999999992
1.2450733184814453,-0.48989009857177734,0.27011898159980774,2.4499999999999917
1.1492003202438354,-0.5346221923828125,0.13980132341384888,2.4599999999999915
1.022796630859375,-0.5930204391479492,0.1254536509513855,2.4699999999999913
0.7082015872001648,-0.6530132293701172,0.19612574577331543,2.479999999999991
0.5552425980567932,-0.7335901260375977,0.2895634174346924,2.489999999999991
0.4207049012184143,-0.75323486328125,0.6933726668357849,2.4999999999999907
0.15869152545928955,-0.6664638519287109,1.1254112720489502,2.5099999999999905
-0.10883557796478271,-0.47335052490234375,1.5471991300582886,2.5199999999999902
-0.26722252368927,-0.20987987518310547,1.9006540775299072,2.52999999999999
-0.30212485790252686,0.15255355834960938,2.278202533721924,2.53999999999999
-0.28279078006744385,0.4870920181274414,2.6788768768310547,2.5499999999999896
-0.28296959400177,0.8582963943481445,3.0633368492126465,2.5599999999999894
-0.20419883728027344,1.1512451171875,3.420663595199585,2.569999999999989
-0.13495194911956787,1.406484603881836,3.7255935668945312,2.579999999999989
0.006007671356201172,1.7290573120117188,3.9413275718688965,2.5899999999999888
0.39801084995269775,1.96331787109375,4.112743854522705,2.5999999999999885
0.6963923573493958,2.23345947265625,4.162415027618408,2.6099999999999883
1.0393340587615967,2.522336006164551,4.1349196434021,2.619999999999988
1.330365777015686,2.709963798522949,4.065251350402832,2.629999999999988
1.5396592617034912,2.83669376373291,3.964804172515869,2.6399999999999877
1.797712802886963,2.9740114212036133,3.804856777191162,2.6499999999999875
2.2619311809539795,3.114535331726074,3.5758583545684814,2.6599999999999873
2.7551467418670654,3.2126407623291016,3.256013870239258,2.669999999999987
3.1695809364318848,3.2298355102539062,2.8590266704559326,2.679999999999987
3.58414363861084,3.244884490966797,2.3820133209228516,2.6899999999999866
4.020254135131836,3.264833450317383,1.9707317352294922,2.6999999999999864
4.415436267852783,3.182204246520996,1.6810169219970703,2.709999999999986
4.819511890411377,3.1504745483398438,1.5671780109405518,2.719999999999986
5.026082992553711,3.069565773010254,1.6242622137069702,2.7299999999999858
5.144883155822754,3.0571107864379883,1.7587229013442993,2.7399999999999856
5.075045585632324,3.158694267272949,1.9505757093429565,2.7499999999999853
4.679486274719238,3.2545909881591797,2.212522029876709,2.759999999999985
4.060323715209961,3.2920312881469727,2.5087831020355225,2.769999999999985
3.5457603931427,3.259084701538086,2.810065507888794,2.7799999999999847
3.0651230812072754,3.225174903869629,3.0865681171417236,2.7899999999999845
2.3995752334594727,3.3145313262939453,3.274627208709717,2.7999999999999843
1.4806277751922607,3.5339269638061523,3.3726420402526855,2.809999999999984
0.4958159923553467,3.871095657348633,3.34344482421875,2.819999999999984
-0.24019217491149902,4.1513671875,3.073543071746826,2.8299999999999836
-0.7553062438964844,4.298337936401367,2.6075737476348877,2.8399999999999834
-0.9730525016784668,4.2643537521362305,2.0646097660064697,2.849999999999983
-1.0659551620483398,3.8223609924316406,1.5007472038269043,2.859999999999983
-0.7013553380966187,2.982295036315918,0.9425168037414551,2.869999999999983
-0.2455071210861206,2.14862060546875,0.4403367042541504,2.8799999999999826
0.17208516597747803,1.2209386825561523,-0.08866846561431885,2.8899999999999824
0.36188066005706787,0.15671157836914062,-0.5533307790756226,2.899999999999982
0.49327552318573,-0.6321296691894531,-1.1059863567352295,2.909999999999982
0.4140104055404663,-1.3198785781860352,-1.6320029497146606,2.9199999999999817
0.09685647487640381,-1.9203743934631348,-1.9700958728790283,2.9299999999999815
-0.32117760181427,-2.4042797088623047,-1.9318656921386719,2.9399999999999813
-0.8219784498214722,-2.2545509338378906,-1.7292847633361816,2.949999999999981
-0.9880566596984863,-1.6242427825927734,-1.3868117332458496,2.959999999999981
-1.1314111948013306,-0.2740764617919922,-0.9700431823730469,2.9699999999999807
-1.233342170715332,1.3461065292358398,-0.6628599166870117,2.9799999999999804
-1.0909481048583984,2.736431121826172,-0.5653428435325623,2.9899999999999802
-0.9810543060302734,3.8417863845825195,-0.580322265625,2.99999999999998
-0.7101120948791504,4.724128723144531,-1.0320518016815186,3.00999999999998
-0.2314690351486206,4.632762908935547,-1.8843809366226196,3.0199999999999796
-0.2825392484664917,4.5823469161987305,-2.5167312622070312,3.0299999999999794
-0.5648095607757568,4.742212295532227,-2.858273506164551,3.039999999999979
-0.8719865083694458,5.083096504211426,-2.846312999725342,3.049999999999979
-1.4612739086151123,5.503992080688477,-2.580233097076416,3.0599999999999787
-2.4412615299224854,5.877636909484863,-2.106654644012451,3.0699999999999785
-3.4800572395324707,6.100882530212402,-1.5396240949630737,3.0799999999999783
-4.425015926361084,6.23603630065918,-1.1408882141113281,3.089999999999978
-5.0592570304870605,6.226224899291992,-1.0258582830429077,3.099999999999978
-5.403896331787109,6.110470771789551,-0.9733160734176636,3.1099999999999777
-5.524649143218994,5.963510513305664,-0.9146367311477661,3.1199999999999775
-5.792150497436523,5.663664817810059,-0.854021430015564,3.1299999999999772
-5.863899230957031,5.534048080444336,-0.7540426254272461,3.139999999999977
-5.611932277679443,5.208591461181641,-0.51387619972229,3.149999999999977
-5.115911483764648,4.773232460021973,-0.1364889144897461,3.1599999999999766
-4.431240558624268,4.239392280578613,0.15351390838623047,3.1699999999999764
-3.711949348449707,3.589859962463379,0.11653733253479004,3.179999999999976
-2.8429062366485596,3.1926755905151367,-0.26524901390075684,3.189999999999976
-1.776869297027588,2.9394731521606445,-0.8704438209533691,3.1999999999999758
-0.966387152671814,2.8038625717163086,-2.0292530059814453,3.2099999999999755
0.005430877208709717,2.3180856704711914,-3.3280727863311768,3.2199999999999753
0.7131449580192566,1.7944831848144531,-4.561595439910889,3.229999999999975
1.1897797584533691,1.2224225997924805,-6.056008338928223,3.239999999999975
1.717341423034668,0.8437261581420898,-7.774945259094238,3.2499999999999747
1.8205006122589111,0.46619701385498047,-8.450847625732422,3.2599999999999745
1.2359155416488647,-0.04548072814941406,-7.835445404052734,3.2699999999999743
0.8718128800392151,-0.3733358383178711,-7.216967582702637,3.279999999999974
1.4521480798721313,-0.5289716720581055,-7.056110382080078,3.289999999999974
2.2890377044677734,-0.9689321517944336,-6.590579986572266,3.2999999999999736
2.8738207817077637,-1.5303125381469727,-5.897514343261719,3.3099999999999734
3.312424659729004,-1.9765238761901855,-5.466906547546387,3.319999999999973
2.7068519592285156,-2.2011356353759766,-5.3009233474731445,3.329999999999973
2.8822457790374756,-2.6108579635620117,-6.675281524658203,3.3399999999999728
2.8992600440979004,-3.3365378379821777,-7.398148059844971,3.3499999999999726
2.4550538063049316,-4.36566686630249,-7.8243513107299805,3.3599999999999723
1.8366305828094482,-5.377593517303467,-8.095014572143555,3.369999999999972
1.071689486503601,-6.210720062255859,-7.65158224105835,3.379999999999972
0.6381629705429077,-6.459761619567871,-6.997894287109375,3.3899999999999717
0.4951099455356598,-6.432566165924072,-6.008234024047852,3.3999999999999715
0.294964075088501,-6.209292888641357,-5.408759593963623,3.4099999999999713
-0.01136934757232666,-5.68625545501709,-4.662429332733154,3.419999999999971
-0.34060001373291016,-5.331084728240967,-4.192223072052002,3.429999999999971
-0.45793819427490234,-5.1206207275390625,-3.770191192626953,3.4399999999999706
-0.42159605026245117,-5.069494724273682,-3.420217990875244,3.4499999999999704
-0.19855499267578125,-5.088783264160156,-3.694945812225342,3.45999999999997
-0.5392204523086548,-5.154964447021484,-3.57212495803833,3.46999999999997
-1.0994505882263184,-5.307243347167969,-3.0178656578063965,3.47999999999997
-1.400425910949707,-5.505489349365234,-2.5508525371551514,3.4899999999999696
-1.6935901641845703,-5.726210594177246,-2.1800448894500732,3.4999999999999694
-1.7793924808502197,-5.976553440093994,-1.9798953533172607,3.509999999999969
-1.7743582725524902,-6.1583051681518555,-1.6591250896453857,3.519999999999969
-1.8015131950378418,-6.29978084564209,-1.5296356678009033,3.5299999999999687
-1.9587819576263428,-6.469386577606201,-1.7909414768218994,3.5399999999999685
-1.6334871053695679,-6.292956352233887,-1.989586353302002,3.5499999999999683
-1.6463645696640015,-6.183938980102539,-2.219644546508789,3.559999999999968
-1.465989589691162,-6.194258213043213,-2.3334264755249023,3.569999999999968
-1.0831053256988525,-6.225368499755859,-2.300307035446167,3.5799999999999677
-0.9025791883468628,-6.190982341766357,-2.178022623062134,3.5899999999999674
-0.7310340404510498,-6.0741424560546875,-1.938340663909912,3.5999999999999672
-0.5567030906677246,-5.943976402282715,-1.5314249992370605,3.609999999999967
-0.5640223026275635,-5.738081932067871,-1.0771846771240234,3.619999999999967
-0.47290360927581787,-5.458763122558594,-0.5037689208984375,3.6299999999999666
-0.3285102844238281,-5.017328262329102,0.016600608825683594,3.6399999999999664
-0.16084861755371094,-4.489810943603516,0.5721759796142578,3.649999999999966
-0.19589531421661377,-3.703373432159424,1.2484679222106934,3.659999999999966
-0.4678744077682495,-2.6140527725219727,1.9386205673217773,3.6699999999999657
-0.9390674829483032,-1.0532422065734863,2.5851569175720215,3.6799999999999655
-1.3397523164749146,1.0260696411132812,3.2342915534973145,3.6899999999999653
-1.8753926753997803,3.4412450790405273,3.9320263862609863,3.699999999999965
-2.2196996212005615,5.881715774536133,4.508142471313477,3.709999999999965
-2.6478147506713867,7.754142761230469,4.789755821228027,3.7199999999999647
-3.150448799133301,8.86106014251709,4.635393142700195,3.7299999999999645
-3.7527170181274414,9.380819320678711,4.430662155151367,3.7399999999999642
-4.383332252502441,10.007612228393555,4.514707565307617,3.749999999999964
-4.792106628417969,10.94665813446045,4.8251190185546875,3.759999999999964
-5.02349328994751,11.620664596557617,5.012115001678467,3.7699999999999636
-4.719904899597168,11.048492431640625,4.972723484039307,3.7799999999999634
-4.262176513671875,9.311494827270508,4.871115207672119,3.789999999999963
-3.892765522003174,7.265676498413086,4.62703275680542,3.799999999999963
-3.4448776245117188,5.391033172607422,4.276360034942627,3.8099999999999627
-3.040773391723633,3.823009490966797,3.868539810180664,3.8199999999999625
-2.723695755004883,2.701958656311035,3.6195669174194336,3.8299999999999623
-2.381681442260742,1.8023242950439453,3.567817211151123,3.839999999999962
-1.9030117988586426,0.8151893615722656,3.574512004852295,3.849999999999962
-1.2816970348358154,-0.5371255874633789,3.5970842838287354,3.8599999999999617
-0.6793369054794312,-2.0968098640441895,3.557157516479492,3.8699999999999615
-0.28712546825408936,-3.583890914916992,3.356940507888794,3.8799999999999613
-0.1446056365966797,-4.570377826690674,3.147531270980835,3.889999999999961
-0.3436238765716553,-4.834705352783203,3.0829687118530273,3.899999999999961
-0.7268507480621338,-4.2657952308654785,2.997349500656128,3.9099999999999606
-0.9940230846405029,-3.0349693298339844,2.8135218620300293,3.9199999999999604
-0.9158816337585449,-1.576770305633545,2.543299913406372,3.92999999999996
-0.7547075748443604,-0.25621604919433594,2.100902557373047,3.93999999999996
-0.6652313470840454,0.9231653213500977,1.3624436855316162,3.9499999999999598
-0.48745810985565186,2.1214351654052734,0.31736111640930176,3.9599999999999596
-0.49567341804504395,3.4954099655151367,-0.9958720207214355,3.9699999999999593
-0.29550158977508545,4.922998428344727,-2.5410218238830566,3.979999999999959
-0.17195558547973633,6.464552879333496,-4.374500751495361,3.989999999999959
-0.4646275043487549,7.740181922912598,-6.30400276184082,3.9999999999999587
-0.9865663051605225,8.5059814453125,-8.013935089111328,4.009999999999959
-1.7251331806182861,8.748934745788574,-8.897163391113281,4.019999999999959
-2.2849745750427246,8.48119831085205,-8.416657447814941,4.0299999999999585
-2.271763801574707,7.473029136657715,-7.424192428588867,4.039999999999958
-1.7642043828964233,5.637988090515137,-7.017366409301758,4.049999999999958
-1.6717389822006226,3.1246871948242188,-7.084429740905762,4.059999999999958
-2.2161149978637695,0.6383562088012695,-7.483508110046387,4.069999999999958
-2.677823066711426,-1.442568302154541,-7.661056041717529,4.079999999999957
-2.8628830909729004,-3.037686824798584,-7.622701644897461,4.089999999999957
-2.776553153991699,-3.915672779083252,-7.342353820800781,4.099999999999957
-2.6782941818237305,-4.326266765594482,-6.693830490112305,4.109999999999957
-2.2094051837921143,-4.679065227508545,-6.043248653411865,4.119999999999957
-1.4479097127914429,-4.949860095977783,-5.350533485412598,4.129999999999956
-0.8348350524902344,-5.114194869995117,-4.734015941619873,4.139999999999956
-0.18445515632629395,-5.095232009887695,-3.964647054672241,4.149999999999956
0.5205003619194031,-4.832830905914307,-2.9936840534210205,4.159999999999956
1.27985680103302,-4.209651470184326,-1.9541574716567993,4.1699999999999555
2.0331461429595947,-3.190192222595215,-1.2504624128341675,4.179999999999955
2.705040693283081,-1.9082159996032715,-1.3042539358139038,4.189999999999955
3.001491069793701,-0.4818744659423828,-2.0443692207336426,4.199999999999955
2.837594985961914,0.5289335250854492,-3.382035255432129,4.209999999999955
1.8332998752593994,0.7866926193237305,-4.773550033569336,4.2199999999999545
0.7979700565338135,0.6540555953979492,-5.726943016052246,4.229999999999954
-0.02753579616546631,0.7246627807617188,-6.163323402404785,4.239999999999954
-0.6459372639656067,1.0575828552246094,-6.221898555755615,4.249999999999954
-0.8555339574813843,1.314697265625,-6.05056619644165,4.259999999999954
-0.6918363571166992,1.5529975891113281,-6.1515212059021,4.269999999999953
-0.11543679237365723,2.011220932006836,-6.552690505981445,4.279999999999953
0.5314080715179443,2.4999351501464844,-6.679332733154297,4.289999999999953
0.6153228878974915,2.720099449157715,-6.742287635803223,4.299999999999953
0.12854528427124023,2.5903711318969727,-6.449209213256836,4.3099999999999525
-0.4272894859313965,2.1146020889282227,-4.350424766540527,4.319999999999952
0.2111455798149109,1.3274497985839844,-0.46802014112472534,4.329999999999952
0.7455796003341675,0.49413013458251953,2.732388973236084,4.339999999999952
1.0558902025222778,0.17493438720703125,2.7716965675354004,4.349999999999952
1.1919487714767456,0.10002422332763672,1.8348134756088257,4.3599999999999515
1.1403536796569824,-0.1511077880859375,1.2782540321350098,4.369999999999951
1.2977324724197388,-0.5372915267944336,0.7729626893997192,4.379999999999951
1.3911970853805542,-1.015355110168457,0.3301302194595337,4.389999999999951
1.622924566268921,-1.6809024810791016,0.22858065366744995,4.399999999999951
2.0569043159484863,-2.273141860961914,0.40928220748901367,4.40999999999995
2.277865409851074,-2.5293307304382324,0.7883044481277466,4.41999999999995
2.1522836685180664,-2.5409932136535645,1.2082659006118774,4.42999999999995
1.7880804538726807,-2.241680145263672,1.4811909198760986,4.43999999999995
1.430452585220337,-1.7512736320495605,1.60226309299469,4.4499999999999496
0.6372077465057373,-1.3975658416748047,1.6877306699752808,4.459999999999949
0.26490527391433716,-1.4074935913085938,1.8623895645141602,4.469999999999949
0.5199667811393738,-1.5699529647827148,2.1185429096221924,4.479999999999949
0.46991318464279175,-1.4039802551269531,2.2173807621002197,4.489999999999949
0.5148854851722717,-1.3881568908691406,2.4680228233337402,4.4999999999999485
0.5588529109954834,-1.527146339416504,2.5396549701690674,4.509999999999948
1.0181821584701538,-1.7155437469482422,2.4349517822265625,4.519999999999948
1.6350091695785522,-2.0129966735839844,2.220747232437134,4.529999999999948
1.6863234043121338,-2.0178427696228027,1.57985520362854,4.539999999999948
1.758047342300415,-1.8000035285949707,0.9555717706680298,4.549999999999947
1.7393560409545898,-1.5823516845703125,0.5623533725738525,4.559999999999947
1.7474008798599243,-1.2908143997192383,0.47991999983787537,4.569999999999947
1.873154878616333,-1.0832090377807617,0.6819164752960205,4.579999999999947
1.8460859060287476,-0.889988899230957,0.8312215805053711,4.589999999999947
1.7543258666992188,-0.7254295349121094,0.855738639831543,4.599999999999946
1.4417721033096313,-0.5225419998168945,0.7495449185371399,4.609999999999946
1.138527750968933,-0.40319252014160156,0.6904286742210388,4.619999999999946
0.8909153938293457,-0.4436063766479492,0.7262898683547974,4.629999999999946
0.6060290336608887,-0.5549707412719727,0.8046714663505554,4.6399999999999455
0.2983044981956482,-0.6223344802856445,0.8992602229118347,4.649999999999945
0.15261554718017578,-0.7436380386352539,0.9977724552154541,4.659999999999945
0.09778571128845215,-0.9449491500854492,1.1621794700622559,4.669999999999945
-0.007108330726623535,-1.0515451431274414,1.3416820764541626,4.679999999999945
-0.12611353397369385,-1.0348682403564453,1.4492461681365967,4.689999999999944
-0.13729846477508545,-0.8735923767089844,1.6323798894882202,4.699999999999944
-0.13163185119628906,-0.5750808715820312,1.8402657508850098,4.709999999999944
-0.10666370391845703,-0.1633777618408203,2.1540632247924805,4.719999999999944
0.011774778366088867,0.24427223205566406,2.5234646797180176,4.729999999999944
0.1565091609954834,0.6622371673583984,2.8048596382141113,4.739999999999943
0.36783909797668457,1.0306587219238281,2.9812114238739014,4.749999999999943
0.4946485757827759,1.2920074462890625,3.0564093589782715,4.759999999999943
0.7955105900764465,1.5394868850708008,3.031715154647827,4.769999999999943
1.3670032024383545,1.4645757675170898,3.0805065631866455,4.7799999999999425
1.5052653551101685,1.732081413269043,3.0008206367492676,4.789999999999942
1.5415338277816772,2.125947952270508,2.9980595111846924,4.799999999999942
1.45267653465271,2.540414810180664,3.0409862995147705,4.809999999999942
1.2995269298553467,2.8937339782714844,3.1173348426818848,4.819999999999942
1.3112901449203491,3.2263450622558594,3.2075395584106445,4.8299999999999415
1.5145652294158936,3.440095901489258,3.299121856689453,4.839999999999941
1.8885263204574585,3.5302743911743164,3.3436429500579834,4.849999999999941
2.3070626258850098,3.5734634399414062,3.3190109729766846,4.859999999999941
2.617274761199951,3.5958194732666016,3.2007522583007812,4.869999999999941
2.844978094100952,3.6544618606567383,3.0268139839172363,4.87999999999994
3.058790683746338,3.83768367767334,2.8693532943725586,4.88999999999994
3.339035987854004,4.021031379699707,2.8227853775024414,4.89999999999994
3.4786648750305176,4.144858360290527,2.8624331951141357,4.90999999999994
3.71856427192688,4.1377410888671875,2.982759475708008,4.9199999999999395
3.929327964782715,4.014406204223633,3.065208911895752,4.929999999999939
3.960613250732422,3.79422664642334,3.153088331222534,4.939999999999939
3.5974388122558594,3.7115707397460938,3.164767026901245,4.949999999999939
3.108506917953491,3.7278995513916016,3.1281750202178955,4.959999999999939
2.8415639400482178,3.6684656143188477,2.977639675140381,4.9699999999999385
2.684964656829834,3.604983329772949,2.7165606021881104,4.979999999999938
2.206115245819092,3.496549606323242,2.3792872428894043,4.989999999999938
1.5891423225402832,3.49591064453125,2.0313217639923096,4.999999999999938
0.8790062665939331,3.5070810317993164,1.6430706977844238,5.009999999999938
0.41056525707244873,3.2718896865844727,1.34089994430542,5.019999999999937
0.3539687395095825,2.8770036697387695,1.06938898563385,5.029999999999937
0.4702930450439453,2.3468189239501953,0.813647985458374,5.039999999999937
0.7121460437774658,1.5406808853149414,0.4699857234954834,5.049999999999937
0.7853796482086182,0.7269754409790039,0.028183937072753906,5.0599999999999365
0.584662675857544,-0.5193758010864258,-0.2857499122619629,5.069999999999936
0.5369303226470947,-1.334207534790039,-0.8603430986404419,5.079999999999936
0.10814714431762695,-1.801483154296875,-1.3716065883636475,5.089999999999936
-0.5035167932510376,-2.0599865913391113,-1.7079904079437256,5.099999999999936
-0.758804202079773,-2.008486747741699,-1.9289844036102295,5.1099999999999355
-0.9670119285583496,-1.1363286972045898,-1.6937297582626343,5.119999999999935
-1.0293848514556885,0.602299690246582,-0.7619785666465759,5.129999999999935
-0.761987566947937,2.8647613525390625,-0.012467235326766968,5.139999999999935
-0.2688788175582886,5.305329322814941,0.3496260344982147,5.149999999999935
0.5007396936416626,7.004451751708984,0.17881250381469727,5.159999999999934
0.7904163599014282,7.263958930969238,-0.34501296281814575,5.169999999999934
0.940251886844635,6.683012962341309,-1.0279202461242676,5.179999999999934
0.6690685749053955,5.977571487426758,-1.5333073139190674,5.189999999999934
0.2397778034210205,5.640542984008789,-2.0300848484039307,5.199999999999934
-0.16554689407348633,5.439806938171387,-2.482719898223877,5.209999999999933
-0.8851054906845093,5.274909973144531,-2.882538318634033,5.219999999999933
-1.7025623321533203,5.466343879699707,-3.0992987155914307,5.229999999999933
-2.4400715827941895,5.547616958618164,-3.0820257663726807,5.239999999999933
-3.0358052253723145,5.37553596496582,-2.9182779788970947,5.2499999999999325
-3.4335176944732666,5.120184898376465,-2.6445069313049316,5.259999999999932
-3.7370452880859375,4.843809127807617,-2.284580707550049,5.269999999999932
-3.8852391242980957,4.460261344909668,-1.8692399263381958,5.279999999999932
-4.175842761993408,4.093721389770508,-1.4450432062149048,5.289999999999932
-4.370686054229736,3.7819910049438477,-0.9912668466567993,5.299999999999931
-4.365818500518799,3.5627832412719727,-0.5543328523635864,5.309999999999931
-3.983062267303467,3.3397836685180664,-0.2617456912994385,5.319999999999931
-3.457794666290283,3.143362045288086,0.15178418159484863,5.329999999999931
-2.672110080718994,3.092665672302246,0.22087979316711426,5.339999999999931
-1.9928383827209473,3.0032081604003906,-0.1181178092956543,5.34999999999993
-1.6918540000915527,2.7913618087768555,-0.7769663333892822,5.35999999999993
-1.2559551000595093,2.273299217224121,-1.5576797723770142,5.36999999999993
-0.7988266944885254,2.07869815826416,-3.204821825027466,5.37999999999993
-0.05504339933395386,1.9435663223266602,-4.699045181274414,5.3899999999999295
0.26899731159210205,1.2002620697021484,-5.859236717224121,5.399999999999929
0.2516902685165405,0.6370296478271484,-7.230504989624023,5.409999999999929
-0.100186288356781,0.556584358215332,-7.796466827392578,5.419999999999929
0.3120574653148651,0.3290224075317383,-8.450273513793945,5.429999999999929
0.45957839488983154,0.01403045654296875,-8.808124542236328,5.4399999999999284
0.28653407096862793,-0.44922637939453125,-8.006911277770996,5.449999999999928
0.524694561958313,-1.1333246231079102,-7.2031569480896,5.459999999999928
1.0615545511245728,-1.7438678741455078,-6.856305122375488,5.469999999999928
1.6323184967041016,-2.148791790008545,-6.685801029205322,5.479999999999928
2.16035532951355,-2.5440993309020996,-6.226773738861084,5.489999999999927
2.205761671066284,-2.9540305137634277,-5.763879776000977,5.499999999999927
2.2083466053009033,-3.7796521186828613,-6.940207004547119,5.509999999999927
3.110950469970703,-4.981006622314453,-7.944609642028809,5.519999999999927
3.035447597503662,-5.381745338439941,-8.265962600708008,5.5299999999999265
2.061511278152466,-5.697566986083984,-7.435129165649414,5.539999999999926
1.3969229459762573,-6.150125503540039,-6.501191139221191,5.549999999999926
1.227497935295105,-6.183011054992676,-5.628040313720703,5.559999999999926
1.110975742340088,-5.8857421875,-5.125724792480469,5.569999999999926
0.7409470677375793,-5.593990325927734,-4.816440105438232,5.5799999999999255
0.2571781873703003,-5.435323238372803,-4.26420259475708,5.589999999999925
0.11757457256317139,-5.310018539428711,-3.7341463565826416,5.599999999999925
0.173132061958313,-5.0290751457214355,-3.8223073482513428,5.609999999999925
-0.5365990400314331,-4.83967399597168,-3.8438143730163574,5.619999999999925
-1.0921820402145386,-4.911130905151367,-2.6202340126037598,5.629999999999924
-1.367540955543518,-4.923673629760742,-1.8977766036987305,5.639999999999924
-1.452288031578064,-5.0733795166015625,-1.516411304473877,5.649999999999924
-1.5359104871749878,-5.185272216796875,-1.306776523590088,5.659999999999924
-1.5805673599243164,-5.165721893310547,-1.2170684337615967,5.6699999999999235
-1.5551910400390625,-5.179283618927002,-1.2481601238250732,5.679999999999923
-1.6204674243927002,-5.2039594650268555,-1.300335168838501,5.689999999999923
-1.606353759765625,-5.2463579177856445,-1.5034475326538086,5.699999999999923
-1.4593937397003174,-5.248302936553955,-1.8149974346160889,5.709999999999923
-1.2147619724273682,-5.204471588134766,-2.098999500274658,5.7199999999999225
-0.9589025974273682,-5.193600654602051,-2.2170770168304443,5.729999999999922
-0.6801576614379883,-5.272983551025391,-2.1837587356567383,5.739999999999922
-0.42870020866394043,-5.3133225440979,-2.0803325176239014,5.749999999999922
-0.22603559494018555,-5.321674346923828,-1.8972713947296143,5.759999999999922
-0.10778164863586426,-5.3695220947265625,-1.656229019165039,5.769999999999921
6.496906280517578E-4,-5.353536605834961,-1.3407857418060303,5.779999999999921
0.03736567497253418,-5.495776176452637,-0.8890273571014404,5.789999999999921
-0.11441850662231445,-5.362884521484375,-0.5235981941223145,5.799999999999921
-0.3027111291885376,-5.114760875701904,-0.1561903953552246,5.809999999999921
-0.5136861801147461,-4.678930282592773,0.20313596725463867,5.81999999999992
-0.6904557943344116,-3.8370413780212402,0.7424507141113281,5.82999999999992
-1.1288508176803589,-2.682133674621582,1.3959929943084717,5.83999999999992
-1.4551770687103271,-1.3428339958190918,2.1738979816436768,5.84999999999992
-1.4983621835708618,0.2561149597167969,2.930037260055542,5.8599999999999195
-1.2468434572219849,2.0444908142089844,3.7588961124420166,5.869999999999919
-0.7841527462005615,3.954324722290039,4.468230247497559,5.879999999999919
-0.6531012058258057,6.12009334564209,5.17625617980957,5.889999999999919
-1.191863775253296,8.182869911193848,5.564340591430664,5.899999999999919
-2.6113474369049072,9.903033256530762,5.542260646820068,5.909999999999918
-4.276137351989746,11.356600761413574,5.2920122146606445,5.919999999999918
-5.59065580368042,12.550634384155273,4.945871353149414,5.929999999999918
-6.0396728515625,13.04811954498291,4.534551620483398,5.939999999999918
-5.586922645568848,12.180267333984375,4.429263114929199,5.949999999999918
-4.497178554534912,10.188859939575195,4.999796390533447,5.959999999999917
-3.3934836387634277,7.869696617126465,5.513552188873291,5.969999999999917
-2.6764822006225586,5.606965065002441,5.525068283081055,5.979999999999917
-2.188169479370117,3.6250038146972656,5.147293567657471,5.989999999999917
-1.9570518732070923,1.9806404113769531,4.973313808441162,5.9999999999999165
-1.826300024986267,0.48874855041503906,4.978787422180176,6.009999999999916
-1.6044907569885254,-0.9856386184692383,4.790352821350098,6.019999999999916
-1.0695478916168213,-2.627208709716797,4.364067077636719,6.029999999999916
-0.5182896852493286,-4.23496150970459,3.872509002685547,6.039999999999916
-0.3693314790725708,-5.488387107849121,3.5352611541748047,6.0499999999999154
-0.8950467109680176,-5.692387104034424,3.3310980796813965,6.059999999999915
-1.4407925605773926,-4.937148094177246,3.0293822288513184,6.069999999999915
-1.7419490814208984,-3.769515037536621,2.574708938598633,6.079999999999915
-1.7147531509399414,-2.460864543914795,2.01206374168396,6.089999999999915
-1.6330760717391968,-0.9548377990722656,1.3265202045440674,6.099999999999914
-1.5435893535614014,0.37929344177246094,0.388289213180542,6.109999999999914
-1.2794526815414429,1.3598670959472656,-0.9620141983032227,6.119999999999914
-0.8783469200134277,2.1990175247192383,-2.510986089706421,6.129999999999914
-0.6327391862869263,3.212510108947754,-4.031126976013184,6.1399999999999135
-0.8098354339599609,4.462776184082031,-5.601278781890869,6.149999999999913
-0.9857511520385742,5.746147155761719,-6.969243049621582,6.159999999999913
-1.0041266679763794,6.951748847961426,-8.120375633239746,6.169999999999913
-1.1620802879333496,7.888864517211914,-8.73416805267334,6.179999999999913
-1.5058133602142334,8.110136985778809,-8.5738525390625,6.1899999999999125
-1.7760876417160034,7.682564735412598,-7.956974029541016,6.199999999999912
-1.9167897701263428,6.433727264404297,-7.699377059936523,6.209999999999912
-2.207777976989746,4.403326034545898,-7.566875457763672,6.219999999999912
-2.332127094268799,2.1135635375976562,-7.190152168273926,6.229999999999912
-2.793091297149658,0.06996631622314453,-6.798655033111572,6.239999999999911
-3.129019260406494,-1.575578212738037,-6.328102111816406,6.249999999999911
-2.747833251953125,-2.7665982246398926,-5.832613468170166,6.259999999999911
-2.1387221813201904,-3.401017665863037,-5.3809590339660645,6.269999999999911
-1.4285744428634644,-3.795046806335449,-4.979976177215576,6.2799999999999105
-0.6553282737731934,-3.9893932342529297,-4.330445766448975,6.28999999999991
-0.022539734840393066,-3.8667473793029785,-3.8752846717834473,6.29999999999991
0.46343696117401123,-3.5682005882263184,-3.4642810821533203,6.30999999999991
1.0009007453918457,-3.1554369926452637,-3.008603811264038,6.31999999999991
1.7877544164657593,-2.580010414123535,-2.498934030532837,6.3299999999999095
2.566300630569458,-1.6954212188720703,-2.1985321044921875,6.339999999999909
3.0619313716888428,-0.5059814453125,-2.415238857269287,6.349999999999909
3.4067764282226562,0.6326198577880859,-3.1165826320648193,6.359999999999909
3.39608097076416,1.5133743286132812,-4.23679256439209,6.369999999999909
3.140484571456909,2.1519851684570312,-5.544016361236572,6.379999999999908
3.082101345062256,2.3345556259155273,-6.731395721435547,6.389999999999908
3.058751106262207,2.3683366775512695,-7.879796981811523,6.399999999999908
2.894497871398926,2.4900646209716797,-8.513240814208984,6.409999999999908
2.282613754272461,2.6317930221557617,-8.522106170654297,6.419999999999908
1.4615873098373413,2.541354179382324,-8.175837516784668,6.429999999999907
0.671073317527771,2.2037763595581055,-7.3793463706970215,6.439999999999907
0.2799654006958008,1.6591625213623047,-5.766981601715088,6.449999999999907
0.9320158958435059,0.9425535202026367,-1.9206016063690186,6.459999999999907
2.3663206100463867,0.11833000183105469,1.6447030305862427,6.4699999999999065
2.361690044403076,-0.602569580078125,2.687285900115967,6.479999999999906
1.7896074056625366,-1.066518783569336,2.2458243370056152,6.489999999999906
1.0553648471832275,-1.4692583084106445,1.7231576442718506,6.499999999999906
0.1025855541229248,-1.5787363052368164,1.4299182891845703,6.509999999999906
-0.6011561155319214,-1.7183189392089844,1.3445243835449219,6.519999999999905
-0.781460165977478,-1.8858208656311035,1.40440833568573,6.529999999999905
-0.8945744037628174,-2.150628089904785,1.509603500366211,6.539999999999905
-1.063994288444519,-2.385960578918457,1.4527125358581543,6.549999999999905
-0.9172986745834351,-2.5654654502868652,1.3920561075210571,6.559999999999905
-0.986263632774353,-2.567178249359131,1.1252930164337158,6.569999999999904
-0.9125134944915771,-2.472531318664551,0.8454911708831787,6.579999999999904
-0.6782968044281006,-2.379645347595215,0.6953988671302795,6.589999999999904
-1.0429691076278687,-2.1907095909118652,0.473305881023407,6.599999999999904
-1.202734112739563,-1.862870693206787,0.1561625897884369,6.6099999999999035
-0.8530594110488892,-1.8193941116333008,-0.02348923310637474,6.619999999999903
-0.5198943614959717,-1.890066146850586,0.00650038942694664,6.629999999999903
-0.15752696990966797,-1.9862184524536133,0.17897717654705048,6.639999999999903
0.07341361045837402,-2.064810276031494,0.3309232294559479,6.649999999999903
0.3707770109176636,-2.066164016723633,0.3878483176231384,6.659999999999902
0.6647647619247437,-1.971290111541748,0.44252148270606995,6.669999999999902
0.8428354263305664,-1.6344690322875977,0.561730146408081,6.679999999999902
1.1656639575958252,-1.3835830688476562,0.7075443863868713,6.689999999999902
1.4490010738372803,-1.1348180770874023,0.7579506635665894,6.699999999999902
1.59218430519104,-0.8643178939819336,0.678948163986206,6.709999999999901
1.685976505279541,-0.708465576171875,0.6231316328048706,6.719999999999901
1.703897476196289,-0.5882654190063477,0.6739405989646912,6.729999999999901
1.7126449346542358,-0.3650026321411133,0.7004554271697998,6.739999999999901
1.8366916179656982,-0.15111541748046875,0.5983667969703674,6.7499999999999005
1.7912687063217163,0.015211105346679688,0.40924572944641113,6.7599999999999
1.676616907119751,-0.02133941650390625,0.19620639085769653,6.7699999999999
1.5311838388442993,-0.11693191528320312,0.07228720188140869,6.7799999999999
1.3792365789413452,-0.22829341888427734,0.07145613431930542,6.7899999999999
1.3098304271697998,-0.37912654876708984,0.20346695184707642,6.7999999999998995
1.232513189315796,-0.5333042144775391,0.42079228162765503,6.809999999999899
1.1044498682022095,-0.5854282379150391,0.7572047114372253,6.819999999999899
0.896919846534729,-0.5617961883544922,1.0812000036239624,6.829999999999899
0.8230268955230713,-0.41216087341308594,1.3709743022918701,6.839999999999899
0.674790620803833,-0.033761024475097656,1.702655553817749,6.849999999999898
0.5337035655975342,0.4320669174194336,2.108839750289917,6.859999999999898
0.3181426525115967,0.8320941925048828,2.5359063148498535,6.869999999999898
0.12344181537628174,1.1136474609375,3.066533088684082,6.879999999999898
0.19620203971862793,1.458521842956543,3.5489697456359863,6.8899999999998975
0.48424482345581055,1.7398109436035156,4.113569736480713,6.899999999999897
0.5903409719467163,2.1030216217041016,4.483264923095703,6.909999999999897
0.8013271689414978,2.439910888671875,4.893109321594238,6.919999999999897
0.9612693190574646,2.7737607955932617,5.24053955078125,6.929999999999897
1.2035377025604248,3.0058555603027344,5.593263626098633,6.9399999999998965
1.467433214187622,3.1858577728271484,5.758645057678223,6.949999999999896
1.6801681518554688,3.313211441040039,5.747990131378174,6.959999999999896
2.0037245750427246,3.3492984771728516,5.561148166656494,6.969999999999896
2.488158941268921,3.339508056640625,5.205609321594238,6.979999999999896
3.1290102005004883,3.2840099334716797,4.71321439743042,6.989999999999895
3.7257795333862305,3.2237348556518555,4.130319118499756,6.999999999999895
4.317087173461914,3.1230545043945312,3.531973361968994,7.009999999999895
4.876492500305176,3.0300722122192383,2.9622621536254883,7.019999999999895
5.195100784301758,2.9378042221069336,2.484769582748413,7.0299999999998946
5.467884063720703,2.9348669052124023,2.0819311141967773,7.039999999999894
5.688836097717285,2.861208915710449,1.8705034255981445,7.049999999999894
5.914410591125488,2.7578325271606445,1.7804714441299438,7.059999999999894
6.08889102935791,2.7445297241210938,1.85621976852417,7.069999999999894
6.135540008544922,2.895482063293457,1.9407771825790405,7.0799999999998935
5.841216087341309,3.1649169921875,1.962378740310669,7.089999999999893
4.846306800842285,3.475438117980957,1.926572322845459,7.099999999999893
3.702968120574951,3.8571910858154297,1.8665515184402466,7.109999999999893
2.624309778213501,4.328722953796387,1.8851797580718994,7.119999999999893
1.709976077079773,4.839811325073242,1.9043478965759277,7.129999999999892
0.9001184701919556,5.0752716064453125,1.9400925636291504,7.139999999999892
0.204015851020813,4.835058212280273,1.879441261291504,7.149999999999892
-0.3029841184616089,4.406732559204102,1.4864633083343506,7.159999999999892
-0.5464136600494385,3.744770050048828,0.7849551439285278,7.169999999999892
-0.4523351192474365,3.0211334228515625,-0.0755547285079956,7.179999999999891
-0.2558845281600952,2.118589401245117,-0.7532107830047607,7.189999999999891
-0.11118018627166748,0.7988986968994141,-1.0941215753555298,7.199999999999891
0.24255001544952393,-0.03737640380859375,-1.6924095153808594,7.209999999999891
0.337565541267395,-0.4639549255371094,-2.288832426071167,7.2199999999998905
0.038782715797424316,-1.0471181869506836,-2.3545596599578857,7.22999999999989
-0.1670147180557251,-1.2357845306396484,-2.236799478530884,7.23999999999989
-0.3323488235473633,-0.8430147171020508,-2.1381428241729736,7.24999999999989
-0.9111266136169434,0.5854778289794922,-1.876509666442871,7.25999999999989
-1.1122599840164185,2.221851348876953,-1.5579233169555664,7.269999999999889
-0.9501180648803711,3.621797561645508,-1.0498995780944824,7.279999999999889
-0.732201099395752,4.737761497497559,-0.8773206472396851,7.289999999999889
-0.39426302909851074,5.339774131774902,-0.9987930059432983,7.299999999999889
0.04372823238372803,5.449641227722168,-1.5231164693832397,7.309999999999889
0.2718937397003174,5.173283576965332,-2.1575379371643066,7.319999999999888
-0.2626546621322632,5.19943904876709,-2.4731037616729736,7.329999999999888
-1.363096833229065,5.522256851196289,-2.40242862701416,7.339999999999888
-2.3908495903015137,5.892168045043945,-2.1212940216064453,7.349999999999888
-3.3804726600646973,5.997908592224121,-1.6450408697128296,7.3599999999998875
-4.258258819580078,6.167160987854004,-1.1886708736419678,7.369999999999887
-5.0652079582214355,6.287528038024902,-0.9474173188209534,7.379999999999887
-5.6206865310668945,6.2780303955078125,-0.9046481847763062,7.389999999999887
-6.090852737426758,5.883145332336426,-0.9027290344238281,7.399999999999887
-6.423235893249512,5.25640869140625,-0.7930094003677368,7.4099999999998865
-6.419135570526123,4.706677436828613,-0.5819815397262573,7.419999999999886
-6.328548908233643,4.360754013061523,-0.2944786548614502,7.429999999999886
-5.87673282623291,4.175335884094238,0.06993985176086426,7.439999999999886
-5.069246768951416,4.039984703063965,0.45989370346069336,7.449999999999886
-4.328998565673828,3.729334831237793,0.6833610534667969,7.459999999999885
-3.295820713043213,3.2860107421875,0.5177693367004395,7.469999999999885
-2.1369004249572754,3.4264068603515625,0.07966256141662598,7.479999999999885
-0.8035300374031067,3.8457069396972656,-0.8419022560119629,7.489999999999885
0.08983129262924194,3.693798065185547,-2.9345338344573975,7.4999999999998845
1.348876714706421,2.664523124694824,-4.635134220123291,7.509999999999884
1.8543353080749512,1.9379796981811523,-6.2907233238220215,7.519999999999884
1.2337285280227661,1.141077995300293,-7.942785263061523,7.529999999999884
1.2946276664733887,0.7723255157470703,-9.656678199768066,7.539999999999884
1.5622004270553589,0.3868255615234375,-10.290010452270508,7.5499999999998835
1.8350565433502197,-0.26859378814697266,-9.956910133361816,7.559999999999883
2.1512370109558105,-0.9517621994018555,-9.086966514587402,7.569999999999883
2.200167179107666,-1.4269814491271973,-7.551541328430176,7.579999999999883
2.2140440940856934,-1.6440930366516113,-5.485605239868164,7.589999999999883
2.5346782207489014,-1.812485694885254,-5.283120632171631,7.599999999999882
3.220421075820923,-2.0776562690734863,-6.1483964920043945,7.609999999999882
3.213475227355957,-2.4464831352233887,-6.471503257751465,7.619999999999882
2.8561270236968994,-2.935758113861084,-6.50162935256958,7.629999999999882
2.5352392196655273,-3.6624016761779785,-7.171645641326904,7.6399999999998816
1.933565378189087,-4.530618667602539,-7.5406494140625,7.649999999999881
1.3382065296173096,-5.363773345947266,-7.326056480407715,7.659999999999881
0.911255955696106,-5.718044281005859,-6.833305358886719,7.669999999999881
0.664340615272522,-6.006228446960449,-6.291477203369141,7.679999999999881
0.3762470483779907,-6.234349727630615,-5.4870734214782715,7.6899999999998805
0.20510590076446533,-6.31771183013916,-4.656093120574951,7.69999999999988
0.053705811500549316,-6.264655113220215,-4.049090385437012,7.70999999999988
0.25487828254699707,-6.0874104499816895,-4.06307315826416,7.71999999999988
-0.35410940647125244,-6.035430908203125,-4.111154556274414,7.72999999999988
-1.0269534587860107,-6.131597995758057,-3.436211347579956,7.739999999999879
-1.3527827262878418,-6.2306060791015625,-3.1857779026031494,7.749999999999879
-1.7736362218856812,-6.280355453491211,-3.172283172607422,7.759999999999879
-2.012768268585205,-6.295563220977783,-2.9507710933685303,7.769999999999879
-2.027329921722412,-6.328688621520996,-2.801725387573242,7.779999999999879
-1.8917423486709595,-6.345919132232666,-2.551053762435913,7.789999999999878
-1.838504433631897,-6.308782577514648,-2.2232441902160645,7.799999999999878
-1.8271812200546265,-6.437098026275635,-2.00284743309021,7.809999999999878
-1.9633893966674805,-6.5245161056518555,-2.062610149383545,7.819999999999878
-1.9767433404922485,-6.596659183502197,-2.223684310913086,7.8299999999998775
-1.7472645044326782,-6.600235939025879,-2.3789029121398926,7.839999999999877
-1.4257792234420776,-6.575528621673584,-2.4090218544006348,7.849999999999877
-1.216294288635254,-6.572490215301514,-2.3360302448272705,7.859999999999877
-0.9263123273849487,-6.483123779296875,-2.136815309524536,7.869999999999877
-0.7555962800979614,-6.450625419616699,-1.8360838890075684,7.879999999999876
-0.6064265966415405,-6.505587100982666,-1.4846045970916748,7.889999999999876
-0.5219838619232178,-6.470647811889648,-1.051464557647705,7.899999999999876
-0.3702867031097412,-6.340731620788574,-0.6443867683410645,7.909999999999876
-0.29439425468444824,-6.136931896209717,-0.24679946899414062,7.919999999999876
-0.28620660305023193,-5.813291549682617,0.22956228256225586,7.929999999999875
-0.29644787311553955,-5.178009986877441,0.6960043907165527,7.939999999999875
-0.29188990592956543,-4.3357367515563965,1.2046833038330078,7.949999999999875
-0.45736420154571533,-3.141932487487793,1.7491235733032227,7.959999999999875
-0.7033975124359131,-1.4540929794311523,2.4141814708709717,7.9699999999998745
-0.9543071985244751,0.739253044128418,3.2229864597320557,7.979999999999874
-1.1346375942230225,3.551699638366699,4.169258117675781,7.989999999999874
