AccX,AccY,AccZ,SampleRate
5.968471050262451,7.654017448425293,-7.051894664764404,0
5.175706386566162,6.970752239227295,-7.397149562835693,0.01
4.580712795257568,6.225500583648682,-7.630947113037109,0.02
4.283405303955078,5.571996212005615,-7.313457489013672,0.03
4.396758556365967,4.964096546173096,-7.296483993530273,0.04
4.5412373542785645,4.605288028717041,-7.8559250831604,0.05
4.6089582443237305,4.342283248901367,-8.480240821838379,0.060000000000000005
4.25412654876709,4.142409801483154,-8.659995079040527,0.07
3.7172770500183105,4.14965295791626,-8.555018424987793,0.08
3.243908643722534,4.437705993652344,-8.202696800231934,0.09
3.103229522705078,4.953641414642334,-7.9852423667907715,0.09999999999999999
2.8560447692871094,5.378380298614502,-7.918807506561279,0.10999999999999999
2.270781993865967,5.740077495574951,-8.248778343200684,0.11999999999999998
2.1081275939941406,6.199453353881836,-8.29697036743164,0.12999999999999998
2.4274449348449707,6.905014991760254,-8.132848739624023,0.13999999999999999
3.122908353805542,7.780763626098633,-8.118795394897461,0.15
4.157389163970947,8.33929443359375,-7.4083027839660645,0.16
4.776765823364258,8.508176803588867,-6.713775157928467,0.17
5.220743656158447,8.41760540008545,-6.392224311828613,0.18000000000000002
5.4441118240356445,7.872345924377441,-6.602499485015869,0.19000000000000003
5.501406192779541,7.233209133148193,-7.090435028076172,0.20000000000000004
5.207330703735352,6.532599449157715,-7.126217842102051,0.21000000000000005
4.716272830963135,5.626228332519531,-6.6240034103393555,0.22000000000000006
4.185766696929932,5.015466690063477,-6.019018173217773,0.23000000000000007
3.7668070793151855,4.430459976196289,-5.508297920227051,0.24000000000000007
3.4990921020507812,3.813237428665161,-5.2736053466796875,0.25000000000000006
3.4078333377838135,3.7244021892547607,-5.721077919006348,0.26000000000000006
3.7319977283477783,3.4635329246520996,-6.058419227600098,0.2700000000000001
4.374813556671143,3.535428524017334,-6.274942398071289,0.2800000000000001
4.736779689788818,3.5141773223876953,-6.1563825607299805,0.2900000000000001
5.026286602020264,3.396198272705078,-6.150142669677734,0.3000000000000001
5.001959323883057,3.0767982006073,-6.207056045532227,0.3100000000000001
4.7959160804748535,2.670616388320923,-5.998659133911133,0.3200000000000001
4.462030410766602,2.1701481342315674,-5.890328407287598,0.3300000000000001
3.90753173828125,1.8181736469268799,-5.422431945800781,0.34000000000000014
3.7698450088500977,1.4512763023376465,-4.671146869659424,0.35000000000000014
4.12677001953125,1.07193922996521,-4.093658924102783,0.36000000000000015
4.685320854187012,1.0823018550872803,-4.024231910705566,0.37000000000000016
5.142569541931152,1.3708763122558594,-4.121879577636719,0.38000000000000017
5.713950157165527,1.9341764450073242,-4.090327262878418,0.3900000000000002
6.5781707763671875,2.9322304725646973,-3.736868381500244,0.4000000000000002
7.153216361999512,3.9007654190063477,-3.311678409576416,0.4100000000000002
7.266484260559082,5.323873996734619,-2.927999496459961,0.4200000000000002
7.320864677429199,6.9856486320495605,-2.2732882499694824,0.4300000000000002
8.517040252685547,8.785179138183594,-1.5160932540893555,0.4400000000000002
10.08199691772461,10.25259780883789,-0.9657163619995117,0.45000000000000023
10.502978324890137,11.431144714355469,-0.7682051658630371,0.46000000000000024
9.723037719726562,11.860187530517578,-0.5384807586669922,0.47000000000000025
7.864114761352539,11.280632019042969,-0.4885072708129883,0.48000000000000026
6.186470031738281,8.653910636901855,-0.9825239181518555,0.49000000000000027
5.751117706298828,5.163517951965332,-1.1314048767089844,0.5000000000000002
5.927827835083008,3.94877290725708,-0.9766860008239746,0.5100000000000002
6.045614719390869,5.457016468048096,-2.366396427154541,0.5200000000000002
5.679211139678955,6.563865661621094,-2.972318172454834,0.5300000000000002
4.785182476043701,6.617137432098389,-3.7014145851135254,0.5400000000000003
2.6816039085388184,6.607874870300293,-5.335805892944336,0.5500000000000003
1.0396397113800049,8.164567947387695,-7.045513153076172,0.5600000000000003
-0.34909772872924805,11.16976547241211,-7.059361457824707,0.5700000000000003
1.3007524013519287,14.077301025390625,-4.22769832611084,0.5800000000000003
4.126113414764404,13.62137222290039,-1.8851184844970703,0.5900000000000003
5.867275238037109,10.19343376159668,-2.1369757652282715,0.6000000000000003
5.51209020614624,5.108922958374023,-4.683492183685303,0.6100000000000003
4.685604572296143,1.8386039733886719,-7.244908809661865,0.6200000000000003
4.147900581359863,0.4644298553466797,-9.267057418823242,0.6300000000000003
4.1498703956604,0.4723784923553467,-9.10236930847168,0.6400000000000003
5.165578365325928,1.7547132968902588,-7.951014041900635,0.6500000000000004
7.340122222900391,4.163747787475586,-7.356912136077881,0.6600000000000004
8.778465270996094,6.099131107330322,-8.274636268615723,0.6700000000000004
8.32768440246582,6.911122798919678,-9.001389503479004,0.6800000000000004
6.5532684326171875,7.0567426681518555,-8.604957580566406,0.6900000000000004
4.812270164489746,6.490960121154785,-7.1467061042785645,0.7000000000000004
3.9202613830566406,5.770745754241943,-6.362331390380859,0.7100000000000004
3.5696041584014893,4.996078014373779,-6.610211372375488,0.7200000000000004
3.2532339096069336,4.53224515914917,-7.269628524780273,0.7300000000000004
2.9150259494781494,3.7855358123779297,-7.563560485839844,0.7400000000000004
2.773376226425171,3.042229175567627,-7.054927825927734,0.7500000000000004
3.0304813385009766,2.769538402557373,-6.448874473571777,0.7600000000000005
3.4343554973602295,3.083906650543213,-6.37624454498291,0.7700000000000005
4.1337971687316895,3.94248104095459,-7.021127700805664,0.7800000000000005
4.979690074920654,4.640751361846924,-7.433687210083008,0.7900000000000005
5.649325370788574,4.492204189300537,-7.535869121551514,0.8000000000000005
5.914340019226074,3.770063877105713,-7.880893230438232,0.8100000000000005
5.766349792480469,2.576648235321045,-8.905244827270508,0.8200000000000005
5.479560852050781,1.9912433624267578,-8.34493350982666,0.8300000000000005
4.886228084564209,1.8573870658874512,-7.7123003005981445,0.8400000000000005
3.963169813156128,2.021669864654541,-7.53046989440918,0.8500000000000005
3.3988475799560547,2.2732081413269043,-7.570123672485352,0.8600000000000005
3.1774067878723145,2.377716541290283,-7.3688225746154785,0.8700000000000006
3.1677637100219727,2.867051601409912,-7.47237491607666,0.8800000000000006
3.263655662536621,3.3541574478149414,-7.51261568069458,0.8900000000000006
3.576768159866333,3.718984603881836,-6.88702392578125,0.9000000000000006
3.827380895614624,3.7483291625976562,-5.9723992347717285,0.9100000000000006
4.184559345245361,3.4344868659973145,-5.330630302429199,0.9200000000000006
4.414344787597656,3.517961025238037,-5.722115516662598,0.9300000000000006
5.060041427612305,4.0184760093688965,-5.854175090789795,0.9400000000000006
5.711793422698975,4.741734504699707,-6.646793842315674,0.9500000000000006
6.14312744140625,6.1241254806518555,-7.495476722717285,0.9600000000000006
6.506697654724121,7.709650993347168,-7.972428321838379,0.9700000000000006
6.938939094543457,8.457843780517578,-8.060858726501465,0.9800000000000006
7.024237632751465,8.071172714233398,-8.103931427001953,0.9900000000000007
6.797532081604004,6.809149742126465,-7.635706901550293,1.0000000000000007
6.387811660766602,6.046186923980713,-7.050002098083496,1.0100000000000007
6.156619071960449,6.045504570007324,-6.203853130340576,1.0200000000000007
5.900232315063477,6.643550872802734,-5.330405235290527,1.0300000000000007
5.145447731018066,7.916732311248779,-5.297519683837891,1.0400000000000007
5.062573432922363,9.010211944580078,-5.970077991485596,1.0500000000000007
5.0708417892456055,9.362110137939453,-5.905279636383057,1.0600000000000007
5.37790584564209,8.06330394744873,-6.454167366027832,1.0700000000000007
5.260542869567871,5.9238667488098145,-8.156876564025879,1.0800000000000007
4.857982635498047,4.825108051300049,-9.05500602722168,1.0900000000000007
4.381324768066406,4.856202125549316,-8.872758865356445,1.1000000000000008
4.174868583679199,5.306591033935547,-8.779468536376953,1.1100000000000008
3.8913280963897705,5.305697917938232,-8.905858993530273,1.1200000000000008
3.6316702365875244,5.079476356506348,-8.598706245422363,1.1300000000000008
3.5359010696411133,4.9708147048950195,-7.957383155822754,1.1400000000000008
4.18064022064209,5.0260210037231445,-7.335220813751221,1.1500000000000008
4.702910900115967,5.8178534507751465,-6.824806213378906,1.1600000000000008
4.447317123413086,7.22573184967041,-6.628627300262451,1.1700000000000008
3.489508628845215,8.579822540283203,-6.740948677062988,1.1800000000000008
2.7437021732330322,8.922872543334961,-6.564696788787842,1.1900000000000008
1.844058632850647,8.797901153564453,-6.1701741218566895,1.2000000000000008
1.200718641281128,8.404033660888672,-6.419772148132324,1.2100000000000009
1.0365710258483887,7.908960819244385,-7.197573661804199,1.2200000000000009
1.2665843963623047,7.252838134765625,-8.048130989074707,1.2300000000000009
1.9827853441238403,6.497350215911865,-8.600738525390625,1.2400000000000009
2.6656975746154785,5.8777289390563965,-8.374096870422363,1.2500000000000009
3.4075047969818115,5.358606338500977,-8.322900772094727,1.260000000000001
4.167789459228516,4.686985969543457,-8.60595989227295,1.270000000000001
4.59229850769043,3.9641435146331787,-8.54421615600586,1.280000000000001
4.246222019195557,3.4540703296661377,-7.619170188903809,1.290000000000001
3.414264678955078,3.2022855281829834,-5.917230606079102,1.300000000000001
2.566950798034668,3.463371515274048,-5.716261863708496,1.310000000000001
1.5230441093444824,3.865699052810669,-6.3492631912231445,1.320000000000001
0.6346409320831299,3.7625722885131836,-7.0374040603637695,1.330000000000001
0.5718080997467041,3.0230772495269775,-6.989717960357666,1.340000000000001
1.3243179321289062,2.006251096725464,-6.318547248840332,1.350000000000001
2.206972360610962,1.1153662204742432,-5.765220642089844,1.360000000000001
2.9696412086486816,0.6769638061523438,-5.855740547180176,1.370000000000001
3.7494258880615234,0.39647698402404785,-6.433804988861084,1.380000000000001
4.182352066040039,0.3540768623352051,-6.744358062744141,1.390000000000001
4.2342705726623535,0.406846284866333,-6.803470611572266,1.400000000000001
4.21164083480835,0.44050049781799316,-6.364919662475586,1.410000000000001
4.549287796020508,0.48630833625793457,-5.573251724243164,1.420000000000001
4.907454490661621,0.6515235900878906,-4.894584655761719,1.430000000000001
5.418580055236816,0.8030431270599365,-4.337729454040527,1.440000000000001
5.970557689666748,1.226325273513794,-4.273438930511475,1.450000000000001
6.281177043914795,2.162346124649048,-4.454662322998047,1.460000000000001
6.516036033630371,3.5299429893493652,-4.366457462310791,1.470000000000001
6.5318098068237305,5.473351001739502,-3.8274364471435547,1.480000000000001
6.468504905700684,7.562450408935547,-3.4083251953125,1.490000000000001
6.612762451171875,10.250863075256348,-2.2816214561462402,1.500000000000001
6.9082159996032715,13.307502746582031,-0.73675537109375,1.5100000000000011
7.581352710723877,15.369653701782227,-0.20857524871826172,1.5200000000000011
7.767682075500488,15.173095703125,-0.14664125442504883,1.5300000000000011
7.329831600189209,11.919391632080078,0.44686412811279297,1.5400000000000011
7.832748889923096,7.447444915771484,1.0438828468322754,1.5500000000000012
7.27163028717041,3.260812282562256,1.0899810791015625,1.5600000000000012
7.286869049072266,1.770294189453125,-1.2374272346496582,1.5700000000000012
6.366079807281494,2.617659091949463,-4.7428178787231445,1.5800000000000012
4.710505485534668,3.601996421813965,-6.29429817199707,1.5900000000000012
2.673956871032715,4.070261001586914,-6.443028450012207,1.6000000000000012
0.9172382354736328,5.326977252960205,-7.31950569152832,1.6100000000000012
-0.3261566162109375,8.83481502532959,-7.725284576416016,1.6200000000000012
-0.12688779830932617,13.403318405151367,-6.2274861335754395,1.6300000000000012
2.690519332885742,15.07767105102539,-1.6806488037109375,1.6400000000000012
4.283996105194092,11.27363395690918,0.16434669494628906,1.6500000000000012
3.4216508865356445,5.982374668121338,-2.7775444984436035,1.6600000000000013
3.603670597076416,2.4971742630004883,-4.835501670837402,1.6700000000000013
4.757755279541016,-0.32535505294799805,-6.985319137573242,1.6800000000000013
5.570074558258057,-1.194929838180542,-9.051254272460938,1.6900000000000013
6.573733329772949,0.31549930572509766,-10.829146385192871,1.7000000000000013
7.777057647705078,3.0280961990356445,-11.603044509887695,1.7100000000000013
7.921567916870117,5.273443698883057,-10.644238471984863,1.7200000000000013
6.523400783538818,6.431238174438477,-9.147011756896973,1.7300000000000013
4.228445529937744,6.460105895996094,-6.521956443786621,1.7400000000000013
2.4027273654937744,5.337561130523682,-4.079416275024414,1.7500000000000013
1.5218076705932617,3.846315383911133,-3.396963596343994,1.7600000000000013
1.1995515823364258,2.575192451477051,-4.335604667663574,1.7700000000000014
1.305203914642334,2.1193528175354004,-6.962947845458984,1.7800000000000014
1.9975860118865967,2.3197779655456543,-8.064148902893066,1.7900000000000014
3.1834235191345215,2.9891486167907715,-8.345057487487793,1.8000000000000014
4.463244915008545,3.803962230682373,-7.567874431610107,1.8100000000000014
4.419864177703857,3.7284908294677734,-7.535883903503418,1.8200000000000014
6.007226943969727,4.380280017852783,-7.0198163986206055,1.8300000000000014
5.976031303405762,3.5901832580566406,-6.695744514465332,1.8400000000000014
5.5657172203063965,2.713189125061035,-6.699963092803955,1.8500000000000014
4.824495315551758,1.7503457069396973,-7.411770820617676,1.8600000000000014
4.176716327667236,1.2066702842712402,-7.48289155960083,1.8700000000000014
3.8097128868103027,1.0614738464355469,-7.213868618011475,1.8800000000000014
3.5509817600250244,1.3628487586975098,-6.99650764465332,1.8900000000000015
3.022423028945923,2.206050395965576,-6.642052173614502,1.9000000000000015
3.1257123947143555,2.612285614013672,-6.402826309204102,1.9100000000000015
3.4743871688842773,2.740230083465576,-6.362067222595215,1.9200000000000015
3.8453097343444824,2.826700210571289,-6.16042423248291,1.9300000000000015
4.297914981842041,2.7238874435424805,-6.001744747161865,1.9400000000000015
4.709949016571045,2.5891218185424805,-5.638904094696045,1.9500000000000015
4.934602737426758,2.298614501953125,-5.407945156097412,1.9600000000000015
4.838172912597656,2.2767200469970703,-5.477694511413574,1.9700000000000015
4.785305976867676,3.125253200531006,-5.4644951820373535,1.9800000000000015
5.098531246185303,3.9710445404052734,-5.7202067375183105,1.9900000000000015
5.915411949157715,4.328882694244385,-6.883731842041016,2.0000000000000013
6.567657470703125,5.2517828941345215,-7.995816230773926,2.010000000000001
6.699634552001953,6.513327598571777,-8.10110092163086,2.020000000000001
6.617453575134277,6.874626159667969,-7.592238426208496,2.0300000000000007
6.694891929626465,6.320207595825195,-7.127365589141846,2.0400000000000005
6.3325395584106445,5.345957279205322,-6.834728717803955,2.0500000000000003
5.776061058044434,4.773509502410889,-6.286308765411377,2.06
5.348459243774414,5.145193099975586,-5.584500312805176,2.07
4.702967166900635,6.679178714752197,-5.158060550689697,2.0799999999999996
4.631736755371094,7.947185516357422,-5.2524847984313965,2.0899999999999994
4.80230188369751,8.228588104248047,-5.745787143707275,2.099999999999999
4.946762561798096,6.5258588790893555,-7.056939601898193,2.109999999999999
4.919180870056152,4.8660712242126465,-8.298529624938965,2.1199999999999988
4.952114582061768,4.579981803894043,-8.245160102844238,2.1299999999999986
4.74815559387207,5.036437511444092,-7.904752254486084,2.1399999999999983
4.307192802429199,5.401073932647705,-8.274054527282715,2.149999999999998
3.5174720287323,5.3861403465271,-8.4530611038208,2.159999999999998
2.871659755706787,5.3519978523254395,-8.308633804321289,2.1699999999999977
2.5573718547821045,5.747934341430664,-7.3204026222229,2.1799999999999975
2.499056816101074,6.525700569152832,-5.943422794342041,2.1899999999999973
2.4996118545532227,7.620508670806885,-4.263554573059082,2.199999999999997
2.246739387512207,8.550542831420898,-4.006911277770996,2.209999999999997
1.8108859062194824,9.363752365112305,-4.324020862579346,2.2199999999999966
1.4369592666625977,9.6201171875,-4.595392227172852,2.2299999999999964
1.3223016262054443,9.19105339050293,-4.918209075927734,2.239999999999996
1.3482744693756104,8.621845245361328,-5.870059967041016,2.249999999999996
1.4351105690002441,8.238204002380371,-7.543881416320801,2.259999999999996
1.5658981800079346,7.855661392211914,-8.159370422363281,2.2699999999999956
1.6331713199615479,7.133950710296631,-8.569284439086914,2.2799999999999954
2.2965526580810547,6.027653694152832,-8.17934799194336,2.289999999999995
3.071751117706299,4.565684795379639,-7.2821807861328125,2.299999999999995
3.490873098373413,3.357402801513672,-6.788614273071289,2.3099999999999947
3.615540027618408,2.5957717895507812,-6.623915672302246,2.3199999999999945
3.629175901412964,2.6788816452026367,-6.662917613983154,2.3299999999999943
2.7823736667633057,2.5457873344421387,-5.769410133361816,2.339999999999994
2.160118579864502,2.794604778289795,-5.410781383514404,2.349999999999994
1.759659767150879,2.83418607711792,-5.488077640533447,2.3599999999999937
1.6771559715270996,2.4142894744873047,-6.187436580657959,2.3699999999999934
2.3568620681762695,1.080756425857544,-6.93077278137207,2.3799999999999932
2.8092377185821533,-0.19651508331298828,-7.010395526885986,2.389999999999993
3.0096945762634277,-1.3159806728363037,-7.100160598754883,2.399999999999993
3.2863686084747314,-2.1056289672851562,-7.167222023010254,2.4099999999999926
3.545459032058716,-2.742321014404297,-6.893135070800781,2.4199999999999924
3.8299803733825684,-3.107929229736328,-6.116353988647461,2.429999999999992
4.344878673553467,-2.730921983718872,-5.208310604095459,2.439999999999992
4.7799577713012695,-1.9612269401550293,-5.152622222900391,2.4499999999999917
5.293110370635986,-0.9482736587524414,-5.158489227294922,2.4599999999999915
5.615051746368408,0.21169614791870117,-4.883271217346191,2.4699999999999913
5.821920394897461,1.6883912086486816,-3.9638774394989014,2.479999999999991
6.075803279876709,3.5789637565612793,-2.5018510818481445,2.489999999999991
6.5893754959106445,6.399851322174072,-0.7587676048278809,2.4999999999999907
7.338430404663086,8.376161575317383,-0.2809300422668457,2.5099999999999905
8.2931489944458,10.128677368164062,-0.2754530906677246,2.5199999999999902
8.111776351928711,11.228357315063477,-0.9675273895263672,2.52999999999999
6.8305158615112305,11.519556045532227,-1.6904215812683105,2.53999999999999
5.4565887451171875,10.920430183410645,-1.6343936920166016,2.5499999999999896
4.72856330871582,9.040090560913086,-0.7518577575683594,2.5599999999999894
4.621525764465332,6.389605522155762,0.27364635467529297,2.569999999999989
5.378833293914795,2.6126813888549805,0.3375868797302246,2.579999999999989
5.432200908660889,0.23805952072143555,-0.04158973693847656,2.5899999999999888
4.483158588409424,2.1235036849975586,-1.302844524383545,2.5999999999999885
4.239988803863525,6.23673677444458,-3.321291923522949,2.6099999999999883
3.444406509399414,9.172069549560547,-4.594844818115234,2.619999999999988
0.8198788166046143,8.841450691223145,-6.845835208892822,2.629999999999988
-1.0248842239379883,7.4284563064575195,-8.479630470275879,2.6399999999999877
-1.07403564453125,7.379302501678467,-8.480997085571289,2.6499999999999875
1.5316870212554932,10.285236358642578,-5.868597984313965,2.6599999999999873
5.157958984375,10.029584884643555,-2.275883197784424,2.669999999999987
5.9193902015686035,5.677546501159668,-1.8113536834716797,2.679999999999987
4.584065914154053,3.522789478302002,-4.235621929168701,2.6899999999999866
3.854591131210327,2.5840649604797363,-6.384772300720215,2.6999999999999864
4.302877426147461,1.9108939170837402,-6.542247295379639,2.709999999999986
5.996563911437988,2.1348447799682617,-6.593735694885254,2.719999999999986
7.950250148773193,3.7924180030822754,-7.868178844451904,2.7299999999999858
8.386287689208984,5.409895420074463,-9.087589263916016,2.7399999999999856
7.278367042541504,5.716498374938965,-8.60172176361084,2.7499999999999853
5.5172600746154785,5.169126510620117,-6.8519816398620605,2.759999999999985
3.6105575561523438,3.888066291809082,-4.649311065673828,2.769999999999985
2.373800039291382,2.439980983734131,-3.513449192047119,2.7799999999999847
1.5332310199737549,1.8090624809265137,-3.377437114715576,2.7899999999999845
1.7936688661575317,1.9419374465942383,-5.18239164352417,2.7999999999999843
2.606269121170044,2.5235795974731445,-6.903357028961182,2.809999999999984
3.5716023445129395,3.612126350402832,-8.501337051391602,2.819999999999984
4.2491326332092285,4.526040077209473,-8.784768104553223,2.8299999999999836
4.918792724609375,4.663100719451904,-8.949294090270996,2.8399999999999834
5.5375261306762695,3.7448062896728516,-8.608546257019043,2.849999999999983
5.4744110107421875,2.3497281074523926,-7.827747344970703,2.859999999999983
5.167876243591309,1.2878284454345703,-6.9053955078125,2.869999999999983
4.502231597900391,0.6712055206298828,-6.12617826461792,2.8799999999999826
3.666311025619507,0.5875577926635742,-6.588252067565918,2.8899999999999824
3.1592369079589844,0.6904511451721191,-7.161393642425537,2.899999999999982
2.919429063796997,1.197364330291748,-6.334017753601074,2.909999999999982
2.625762939453125,1.6627607345581055,-6.4669189453125,2.9199999999999817
2.3430936336517334,1.7182788848876953,-6.522155284881592,2.9299999999999815
2.1527798175811768,1.378251552581787,-6.555459499359131,2.9399999999999813
2.6348228454589844,0.8737425804138184,-6.273573875427246,2.949999999999981
3.3043832778930664,0.8675999641418457,-6.012733459472656,2.959999999999981
3.683917999267578,1.4319915771484375,-5.910237789154053,2.9699999999999807
3.869689702987671,2.4172072410583496,-5.851049423217773,2.9799999999999804
4.097959041595459,2.9019007682800293,-5.191517353057861,2.9899999999999802
4.2018303871154785,2.9082493782043457,-4.60304069519043,2.99999999999998
4.147683620452881,2.9575705528259277,-4.682038307189941,3.00999999999998
3.9368679523468018,3.625680446624756,-4.793389797210693,3.0199999999999796
4.003146648406982,5.253154277801514,-3.991783618927002,3.0299999999999794
4.033446311950684,5.238548278808594,-3.9501190185546875,3.039999999999979
6.6785759925842285,5.474013328552246,-5.92442512512207,3.049999999999979
7.394461631774902,5.604583263397217,-6.392704010009766,3.0599999999999787
7.99022102355957,5.457321643829346,-6.521186828613281,3.0699999999999785
8.678600311279297,5.201748847961426,-6.94232177734375,3.0799999999999783
7.9900665283203125,5.858144760131836,-6.394119739532471,3.089999999999978
6.556918144226074,7.644918441772461,-5.268096446990967,3.099999999999978
6.070540904998779,9.264608383178711,-4.272237777709961,3.1099999999999777
5.7977752685546875,9.92997932434082,-5.549861431121826,3.1199999999999775
5.58707332611084,8.338235855102539,-7.141204833984375,3.1299999999999772
4.594812393188477,6.8141984939575195,-7.253654479980469,3.139999999999977
3.5297293663024902,6.224856853485107,-6.940247058868408,3.149999999999977
2.6300597190856934,6.258362293243408,-7.185606479644775,3.1599999999999766
2.286937713623047,6.127381324768066,-7.59514045715332,3.1699999999999764
2.119501829147339,5.710417747497559,-7.853134632110596,3.179999999999976
1.637101173400879,5.090538501739502,-7.247791290283203,3.189999999999976
1.5689091682434082,4.186957359313965,-6.247194766998291,3.1999999999999758
1.8809986114501953,3.826699733734131,-5.058437347412109,3.2099999999999755
2.5650181770324707,4.437295913696289,-4.486597061157227,3.2199999999999753
2.8688390254974365,5.535776615142822,-4.8786163330078125,3.229999999999975
2.7151312828063965,6.66156530380249,-5.217331886291504,3.239999999999975
2.4638004302978516,7.2517409324646,-5.608558654785156,3.2499999999999747
2.076606035232544,7.4340739250183105,-6.027541160583496,3.2599999999999745
1.684788703918457,7.199260234832764,-6.9330339431762695,3.2699999999999743
1.5267102718353271,6.8218674659729,-7.582085132598877,3.279999999999974
1.7327450513839722,6.305866718292236,-7.748929023742676,3.289999999999974
2.031503200531006,5.682876110076904,-7.294678688049316,3.2999999999999736
2.6174683570861816,4.9264092445373535,-6.797119140625,3.3099999999999734
3.3848118782043457,4.023992538452148,-6.7704668045043945,3.319999999999973
3.8130342960357666,3.199221134185791,-6.578394889831543,3.329999999999973
4.06697940826416,1.9492487907409668,-6.442846775054932,3.3399999999999728
4.171130657196045,1.1843557357788086,-6.220235347747803,3.3499999999999726
3.8563969135284424,0.8709197044372559,-5.836084842681885,3.3599999999999723
3.413057565689087,1.0118632316589355,-5.639131546020508,3.369999999999972
2.954853057861328,1.234804630279541,-6.062691688537598,3.379999999999972
2.596956968307495,1.0890531539916992,-6.131940841674805,3.3899999999999717
2.025333881378174,0.21574974060058594,-6.016705513000488,3.3999999999999715
1.476609468460083,-0.36225271224975586,-6.1688127517700195,3.4099999999999713
1.0449073314666748,-1.003765344619751,-6.747298717498779,3.419999999999971
0.7667937278747559,-1.4832181930541992,-7.444731712341309,3.429999999999971
0.9384510517120361,-2.0214219093322754,-7.65249490737915,3.4399999999999706
1.5010287761688232,-2.7742443084716797,-7.251547336578369,3.4499999999999704
2.346970319747925,-3.0019474029541016,-6.173008918762207,3.45999999999997
2.8697216510772705,-2.4605836868286133,-5.506887435913086,3.46999999999997
3.6058483123779297,-1.7202482223510742,-4.8965744972229,3.47999999999997
4.52401065826416,-0.6137139797210693,-4.20485782623291,3.4899999999999696
5.578610420227051,1.0739684104919434,-3.5973005294799805,3.4999999999999694
6.816958904266357,3.583521842956543,-3.271851062774658,3.509999999999969
6.892282962799072,3.4778294563293457,-3.16861629486084,3.519999999999969
6.488429069519043,9.386707305908203,-2.2856030464172363,3.5299999999999687
5.781371116638184,11.641548156738281,-0.8484511375427246,3.5399999999999685
5.751864910125732,12.842568397521973,0.780184268951416,3.5499999999999683
5.805891036987305,13.416624069213867,1.9572219848632812,3.559999999999968
4.788392543792725,13.039253234863281,2.5602951049804688,3.569999999999968
3.581805467605591,9.607523918151855,0.6203875541687012,3.5799999999999677
4.2093377113342285,5.457895755767822,-0.4150815010070801,3.5899999999999674
5.315651893615723,1.534865379333496,0.10080814361572266,3.5999999999999672
6.112297058105469,-0.5601325035095215,0.12956762313842773,3.609999999999967
6.824757099151611,0.4013814926147461,-2.341190814971924,3.619999999999967
6.451956748962402,4.009459972381592,-4.294942378997803,3.6299999999999666
5.346561431884766,8.082056999206543,-5.664613246917725,3.6399999999999664
5.385196208953857,8.079818725585938,-5.64150857925415,3.649999999999966
-1.491093635559082,8.951597213745117,-8.270902633666992,3.659999999999966
-1.0837411880493164,8.267827987670898,-6.941882133483887,3.6699999999999657
0.3539261817932129,8.097124099731445,-4.29892635345459,3.6799999999999655
2.5636167526245117,6.621534824371338,-1.7967453002929688,3.6899999999999653
3.227698802947998,2.7518982887268066,-2.381460189819336,3.699999999999965
2.88098406791687,0.38101911544799805,-3.9871180057525635,3.709999999999965
3.001924991607666,-0.39370298385620117,-5.383477210998535,3.7199999999999647
3.653380870819092,0.3818988800048828,-6.1587605476379395,3.7299999999999645
4.863806247711182,2.2952351570129395,-6.7080278396606445,3.7399999999999642
4.818642616271973,2.2363228797912598,-6.688988208770752,3.749999999999964
7.940801620483398,7.412822246551514,-10.593978881835938,3.759999999999964
6.869228363037109,7.213629245758057,-10.282333374023438,3.7699999999999636
4.618647575378418,5.171871185302734,-7.753871917724609,3.7799999999999634
3.3320844173431396,2.3507590293884277,-4.506740570068359,3.789999999999963
2.6623449325561523,0.21049022674560547,-2.650582790374756,3.799999999999963
2.1333346366882324,-0.6445374488830566,-2.3462061882019043,3.8099999999999627
1.891448736190796,-0.14874601364135742,-3.370008707046509,3.8199999999999625
2.02418851852417,1.061905860900879,-5.077725410461426,3.8299999999999623
2.695345401763916,2.617002010345459,-6.771697044372559,3.839999999999962
3.673508882522583,3.782052516937256,-7.774480819702148,3.849999999999962
4.565155506134033,4.153683662414551,-7.851953506469727,3.8599999999999617
5.092320442199707,3.601752281188965,-7.4260101318359375,3.8699999999999615
5.06293249130249,2.303133487701416,-6.896410942077637,3.8799999999999613
4.633224010467529,1.541856288909912,-6.28000020980835,3.889999999999961
4.02476692199707,0.8626713752746582,-5.908095359802246,3.899999999999961
3.2949612140655518,0.3900132179260254,-6.860101699829102,3.9099999999999606
2.961331844329834,0.15062570571899414,-6.537099838256836,3.9199999999999604
2.797943592071533,0.10878896713256836,-5.767010688781738,3.92999999999996
2.4995365142822266,0.32528257369995117,-5.5764641761779785,3.93999999999996
2.278639078140259,0.6959199905395508,-5.774231433868408,3.9499999999999598
2.239579916000366,1.1123805046081543,-5.64258337020874,3.9599999999999596
2.628912925720215,1.3824810981750488,-4.98878812789917,3.9699999999999593
3.2524609565734863,1.1698956489562988,-4.581881999969482,3.979999999999959
3.7706298828125,0.8997921943664551,-4.893703937530518,3.989999999999959
4.059108257293701,1.4206771850585938,-4.7246479988098145,3.9999999999999587
4.268496036529541,2.230710029602051,-4.415781497955322,4.009999999999959
4.275926113128662,2.7756500244140625,-4.286395072937012,4.019999999999959
3.9161574840545654,2.897552967071533,-4.255204677581787,4.0299999999999585
4.0121917724609375,2.8898210525512695,-4.247971057891846,4.039999999999958
5.191281318664551,3.2278733253479004,-5.241353988647461,4.049999999999958
6.376314640045166,4.26899528503418,-6.379159927368164,4.059999999999958
6.40567684173584,4.280857086181641,-6.374311447143555,4.069999999999958
7.645460605621338,4.838430404663086,-6.636873722076416,4.079999999999957
6.972884178161621,4.887349605560303,-6.257585048675537,4.089999999999957
6.04337215423584,5.47111177444458,-5.521739959716797,4.099999999999957
5.0487060546875,6.875475883483887,-4.281776428222656,4.109999999999957
4.690075874328613,8.926824569702148,-4.256333827972412,4.119999999999957
4.83140230178833,9.343673706054688,-5.050076961517334,4.129999999999956
4.88701868057251,8.066923141479492,-6.096790313720703,4.139999999999956
4.864485740661621,6.282329559326172,-6.638383865356445,4.149999999999956
4.719160079956055,5.281489372253418,-7.285372734069824,4.159999999999956
4.29661226272583,5.160274505615234,-7.962074279785156,4.1699999999999555
3.2407498359680176,5.601595401763916,-8.295097351074219,4.179999999999955
2.3022665977478027,5.560449600219727,-8.05428695678711,4.189999999999955
0.9566395282745361,5.122835159301758,-6.969316482543945,4.199999999999955
-0.02003335952758789,4.836860179901123,-5.5730719566345215,4.209999999999955
0.15966558456420898,4.735579490661621,-4.615025043487549,4.2199999999999545
0.8884153366088867,5.132826328277588,-4.416278839111328,4.229999999999954
1.2403020858764648,5.987039089202881,-4.766997337341309,4.239999999999954
1.2486827373504639,6.478405952453613,-5.1068549156188965,4.249999999999954
1.2885839939117432,6.775867462158203,-5.577525615692139,4.259999999999954
1.3722314834594727,6.618735313415527,-6.1074910163879395,4.269999999999953
1.1790711879730225,6.420177936553955,-6.749286651611328,4.279999999999953
1.1278879642486572,6.352241039276123,-7.276825428009033,4.289999999999953
1.1662235260009766,6.230865478515625,-7.664797782897949,4.299999999999953
1.4002468585968018,5.981305122375488,-7.4195966720581055,4.3099999999999525
2.1622226238250732,5.14115047454834,-6.59467887878418,4.319999999999952
2.942936897277832,3.9909629821777344,-5.770966053009033,4.329999999999952
3.580120325088501,2.859623432159424,-5.4452714920043945,4.339999999999952
3.9125447273254395,1.9538989067077637,-5.70482873916626,4.349999999999952
4.026329040527344,1.2916193008422852,-5.911728382110596,4.3599999999999515
3.9178643226623535,0.7760958671569824,-5.461591720581055,4.369999999999951
3.896085262298584,0.8455429077148438,-5.515235424041748,4.379999999999951
2.9850311279296875,0.3193044662475586,-5.48061466217041,4.389999999999951
2.986130475997925,0.369107723236084,-5.511832237243652,4.399999999999951
2.1713380813598633,-1.2009730339050293,-6.401330947875977,4.40999999999995
2.015734910964966,-2.3391170501708984,-7.4363203048706055,4.41999999999995
1.8801072835922241,-2.7945661544799805,-8.2521333694458,4.42999999999995
2.082376480102539,-3.27500057220459,-8.429007530212402,4.43999999999995
2.5071969032287598,-3.731472969055176,-7.511673450469971,4.4499999999999496
2.8206677436828613,-3.8326382637023926,-6.336108207702637,4.459999999999949
3.162008285522461,-3.5220112800598145,-5.028506278991699,4.469999999999949
3.5451200008392334,-2.7686116695404053,-3.667055606842041,4.479999999999949
3.83076548576355,-1.9035136699676514,-2.8653416633605957,4.489999999999949
4.049185752868652,-0.6069469451904297,-2.338761806488037,4.4999999999999485
4.242923736572266,1.1922874450683594,-2.4656357765197754,4.509999999999948
4.433917999267578,3.644944190979004,-2.7325191497802734,4.519999999999948
4.199271202087402,6.325660228729248,-2.355135440826416,4.529999999999948
3.9754462242126465,8.779150009155273,-0.9938526153564453,4.539999999999948
4.3777265548706055,10.267967224121094,-0.07597780227661133,4.549999999999947
5.180560111999512,11.701131820678711,0.560704231262207,4.559999999999947
5.560431480407715,12.09542179107666,0.7269783020019531,4.569999999999947
4.865904808044434,10.651387214660645,0.8587803840637207,4.579999999999947
4.5391716957092285,7.119431018829346,1.3579316139221191,4.589999999999947
5.269810676574707,2.1670522689819336,1.5741281509399414,4.599999999999946
6.125449180603027,-0.7035598754882812,1.2945618629455566,4.609999999999946
7.108095645904541,-2.894129991531372,-0.836848258972168,4.619999999999946
6.0331315994262695,-1.4876360893249512,-3.124347686767578,4.629999999999946
5.220062255859375,2.7804388999938965,-4.039350509643555,4.6399999999999455
3.189842700958252,7.242789268493652,-5.5004167556762695,4.649999999999945
-1.312208652496338,8.442792892456055,-8.222128868103027,4.659999999999945
-2.718546152114868,7.0269341468811035,-9.275836944580078,4.669999999999945
-1.8960144519805908,9.113704681396484,-8.49776840209961,4.679999999999945
0.44551563262939453,13.474227905273438,-6.592387676239014,4.689999999999944
3.472384452819824,13.735761642456055,-1.8997092247009277,4.699999999999944
3.946793556213379,7.5836920738220215,-1.2516579627990723,4.709999999999944
1.4002318382263184,1.6742305755615234,-4.306066513061523,4.719999999999944
0.894812822341919,-0.15728998184204102,-5.354097366333008,4.729999999999944
2.2121951580047607,-2.0794105529785156,-4.799932479858398,4.739999999999943
4.462895393371582,-2.373821973800659,-5.746216773986816,4.749999999999943
6.6549787521362305,0.2805600166320801,-8.835196495056152,4.759999999999943
7.384184837341309,3.958981990814209,-10.601922988891602,4.769999999999943
6.987462043762207,7.230900764465332,-9.943336486816406,4.7799999999999425
5.899938106536865,7.528076171875,-7.984350204467773,4.789999999999942
4.517809867858887,5.583035469055176,-5.352980136871338,4.799999999999942
3.0582261085510254,3.0012660026550293,-3.9104950428009033,4.809999999999942
2.0446739196777344,1.23891019821167,-4.188960075378418,4.819999999999942
1.5647826194763184,0.6455087661743164,-5.235316753387451,4.8299999999999415
1.271291732788086,0.8374552726745605,-6.403692722320557,4.839999999999941
1.2621091604232788,1.1163792610168457,-6.800088882446289,4.849999999999941
1.370931625366211,1.3311443328857422,-6.312164783477783,4.859999999999941
2.0788798332214355,1.2291955947875977,-6.020638465881348,4.869999999999941
2.982372522354126,0.9399023056030273,-6.349984645843506,4.87999999999994
3.5080924034118652,0.8672070503234863,-6.3526692390441895,4.88999999999994
3.7865540981292725,0.9529337882995605,-6.427087306976318,4.89999999999994
3.6797642707824707,1.023073673248291,-6.923858642578125,4.90999999999994
3.615725517272949,1.0414018630981445,-6.583084583282471,4.9199999999999395
3.3928518295288086,0.9362812042236328,-6.219198226928711,4.929999999999939
3.0801024436950684,0.6469697952270508,-5.78375244140625,4.939999999999939
2.797571897506714,0.2373948097229004,-4.973563194274902,4.949999999999939
2.576970338821411,0.25972700119018555,-4.473618030548096,4.959999999999939
2.6894609928131104,0.6899657249450684,-4.371448516845703,4.9699999999999385
2.898160934448242,1.4721999168395996,-4.544356346130371,4.979999999999938
3.098149299621582,1.747396469116211,-4.835026264190674,4.989999999999938
3.166959285736084,1.4244227409362793,-4.624317169189453,4.999999999999938
3.964247703552246,0.7030510902404785,-4.146097183227539,5.009999999999938
4.345630645751953,1.0722217559814453,-4.018929481506348,5.019999999999937
4.225995063781738,2.1336870193481445,-3.7892465591430664,5.029999999999937
4.263031005859375,3.2240376472473145,-3.945312261581421,5.039999999999937
4.550529479980469,4.057057857513428,-4.346990585327148,5.049999999999937
5.130237579345703,4.576441287994385,-4.909430027008057,5.0599999999999365
5.947879791259766,4.966545581817627,-5.7806830406188965,5.069999999999936
6.393383026123047,5.252157211303711,-5.684048652648926,5.079999999999936
6.501805782318115,4.633119106292725,-5.365376949310303,5.089999999999936
6.403507709503174,3.902486801147461,-5.429382801055908,5.099999999999936
5.823615550994873,4.761093616485596,-5.434601783752441,5.1099999999999355
4.764714241027832,7.084554672241211,-4.398876190185547,5.119999999999935
4.159506320953369,9.180603981018066,-4.1608123779296875,5.129999999999935
3.4989795684814453,8.715575218200684,-5.009103298187256,5.139999999999935
3.2422218322753906,6.665990352630615,-6.061439514160156,5.149999999999935
2.9550561904907227,5.216641426086426,-6.677185535430908,5.159999999999934
3.0036420822143555,4.902715682983398,-6.922821044921875,5.169999999999934
3.206226110458374,4.848437309265137,-7.069562911987305,5.179999999999934
3.0782225131988525,4.598904609680176,-6.963701248168945,5.189999999999934
2.7190608978271484,4.100740909576416,-7.058688640594482,5.199999999999934
2.4841878414154053,3.749044895172119,-7.145854473114014,5.209999999999933
2.1122186183929443,3.924635410308838,-6.420713424682617,5.219999999999933
1.5814235210418701,4.539680480957031,-5.045584678649902,5.229999999999933
1.154630184173584,5.296459197998047,-3.96156907081604,5.239999999999933
1.0071148872375488,6.286500453948975,-3.741363286972046,5.2499999999999325
1.010915994644165,7.093235969543457,-3.826051712036133,5.259999999999932
0.7867214679718018,7.429481029510498,-3.9480180740356445,5.269999999999932
0.3343331813812256,7.268105983734131,-4.504940509796143,5.279999999999932
0.2784597873687744,6.72267484664917,-5.8084025382995605,5.289999999999932
0.5693569183349609,5.862492561340332,-7.183042049407959,5.299999999999931
1.2497680187225342,4.870887756347656,-8.352323532104492,5.309999999999931
2.4795470237731934,3.5056161880493164,-7.614742279052734,5.319999999999931
3.2966911792755127,2.3310866355895996,-6.650569915771484,5.329999999999931
4.036653518676758,1.1316728591918945,-6.208986759185791,5.339999999999931
4.299990653991699,0.09371519088745117,-6.189073085784912,5.34999999999993
4.232238292694092,-0.45333433151245117,-6.132425308227539,5.35999999999993
3.7238881587982178,-0.7114510536193848,-5.669379711151123,5.36999999999993
3.016111373901367,-0.8211989402770996,-5.265139579772949,5.37999999999993
2.4639077186584473,-0.7967081069946289,-5.109650611877441,5.3899999999999295
1.8455408811569214,-0.7974119186401367,-5.245962142944336,5.399999999999929
1.4060590267181396,-1.1678667068481445,-5.350949764251709,5.409999999999929
1.1420018672943115,-1.7430996894836426,-6.180817127227783,5.419999999999929
1.0931570529937744,-2.5092687606811523,-7.077464580535889,5.429999999999929
1.118575096130371,-3.531430244445801,-7.49612283706665,5.4399999999999284
1.3828431367874146,-4.254706382751465,-7.245821952819824,5.449999999999928
1.7374759912490845,-4.905794620513916,-6.4313859939575195,5.459999999999928
2.1482744216918945,-5.089911937713623,-5.026715278625488,5.469999999999928
2.6749660968780518,-4.387688636779785,-3.9157729148864746,5.479999999999928
3.3049137592315674,-3.353182792663574,-3.099515914916992,5.489999999999927
4.05942964553833,-1.5491423606872559,-2.7126693725585938,5.499999999999927
4.710098743438721,0.7622056007385254,-2.8414459228515625,5.509999999999927
5.407118797302246,4.066771984100342,-2.8558640480041504,5.519999999999927
4.7948455810546875,7.689275741577148,-2.542210578918457,5.5299999999999265
4.090595722198486,10.670220375061035,-0.8076553344726562,5.539999999999926
4.283721446990967,11.958738327026367,2.0511345863342285,5.549999999999926
5.701544284820557,10.657296180725098,2.7040162086486816,5.559999999999926
5.339023590087891,9.529251098632812,1.9603610038757324,5.569999999999926
3.9893100261688232,7.759300231933594,1.3383808135986328,5.5799999999999255
3.555546760559082,5.068721771240234,0.826807975769043,5.589999999999925
4.191551685333252,1.645317554473877,0.15860986709594727,5.599999999999925
4.606194972991943,-0.11926841735839844,-0.056279659271240234,5.609999999999925
4.671655178070068,2.20235538482666,-1.3517827987670898,5.619999999999925
4.492269515991211,5.208385944366455,-3.1373164653778076,5.629999999999924
3.5827765464782715,7.991397380828857,-4.110595226287842,5.639999999999924
0.39695262908935547,9.048480987548828,-6.547893524169922,5.649999999999924
-2.575925588607788,9.007659912109375,-8.949403762817383,5.659999999999924
-2.001819133758545,9.470956802368164,-8.435935020446777,5.6699999999999235
0.35687923431396484,8.501376152038574,-5.061288833618164,5.679999999999923
2.5044796466827393,5.501593112945557,-2.0114221572875977,5.689999999999923
2.642737865447998,1.3281679153442383,-0.9654531478881836,5.699999999999923
2.0125226974487305,-0.4918074607849121,-2.445160388946533,5.709999999999923
2.7372467517852783,-1.6430506706237793,-3.3573505878448486,5.7199999999999225
3.77567982673645,-1.78078031539917,-5.125454425811768,5.729999999999922
5.231218338012695,0.5454068183898926,-8.387825965881348,5.739999999999922
6.466761589050293,3.7775931358337402,-10.278584480285645,5.749999999999922
7.200416564941406,7.3950629234313965,-11.260791778564453,5.759999999999922
6.699666976928711,8.784614562988281,-9.997666358947754,5.769999999999921
4.577967643737793,6.566830158233643,-6.273316860198975,5.779999999999921
2.55212140083313,3.3905277252197266,-3.89862060546875,5.789999999999921
1.094395637512207,0.3327298164367676,-3.169436454772949,5.799999999999921
0.3976593017578125,-1.2302918434143066,-3.651428699493408,5.809999999999921
0.3909165859222412,-1.8930721282958984,-4.774311065673828,5.81999999999992
0.8229241371154785,-1.33343505859375,-5.874087810516357,5.82999999999992
1.5713239908218384,-0.008328437805175781,-6.33194637298584,5.83999999999992
2.464949131011963,1.4604949951171875,-6.309082984924316,5.84999999999992
3.702082395553589,2.429507255554199,-6.681323051452637,5.8599999999999195
4.660309314727783,2.146246910095215,-6.726698398590088,5.869999999999919
5.17249870300293,1.466761589050293,-6.226702690124512,5.879999999999919
4.5402398109436035,0.7066731452941895,-6.290551662445068,5.889999999999919
3.511737108230591,0.12589406967163086,-7.078076362609863,5.899999999999919
2.588780641555786,-0.32101011276245117,-6.007269382476807,5.909999999999918
2.316563844680786,-0.5655951499938965,-4.983577251434326,5.919999999999918
2.325932502746582,-0.46372413635253906,-4.579545974731445,5.929999999999918
2.5471713542938232,-0.08232927322387695,-4.6247076988220215,5.939999999999918
2.6976144313812256,0.6271429061889648,-4.514184474945068,5.949999999999918
2.9122695922851562,1.4829797744750977,-4.379153251647949,5.959999999999917
3.366750717163086,1.5979294776916504,-4.107168197631836,5.969999999999917
3.949709892272949,0.9785547256469727,-3.9248533248901367,5.979999999999917
4.1311163902282715,0.6404733657836914,-3.6625547409057617,5.989999999999917
3.9857826232910156,1.1153669357299805,-3.4031662940979004,5.9999999999999165
3.619041681289673,1.9053611755371094,-3.321953773498535,6.009999999999916
3.337616205215454,2.3408966064453125,-2.960557699203491,6.019999999999916
3.7056021690368652,2.638361930847168,-3.3056657314300537,6.029999999999916
4.727311611175537,3.245746612548828,-4.511349678039551,6.039999999999916
5.510500907897949,4.1663818359375,-5.334464073181152,6.0499999999999154
5.994259357452393,5.098455429077148,-5.484910011291504,6.059999999999915
6.087106704711914,5.424875259399414,-5.139291763305664,6.069999999999915
5.760453701019287,4.879199981689453,-4.729299068450928,6.079999999999915
5.218493461608887,4.024501800537109,-4.604924201965332,6.089999999999915
4.552677154541016,4.403319358825684,-4.343698501586914,6.099999999999914
4.137202739715576,5.873478889465332,-3.498208522796631,6.109999999999914
4.591206073760986,7.592552185058594,-3.1978461742401123,6.119999999999914
4.878057479858398,7.659642219543457,-4.141443252563477,6.129999999999914
4.562143802642822,5.8132123947143555,-5.132070064544678,6.1399999999999135
4.040219306945801,4.203258037567139,-5.766716957092285,6.149999999999913
3.7052152156829834,3.3379101753234863,-6.576237678527832,6.159999999999913
3.455441951751709,3.2722086906433105,-6.9283857345581055,6.169999999999913
2.9028780460357666,3.5540709495544434,-6.898871421813965,6.179999999999913
2.1247315406799316,3.7156119346618652,-6.276363372802734,6.1899999999999125
1.5414714813232422,3.6399006843566895,-5.544160842895508,6.199999999999912
1.3536603450775146,3.8289270401000977,-4.799958229064941,6.209999999999912
1.3245494365692139,4.4152703285217285,-4.47407865524292,6.219999999999912
1.1910743713378906,5.144673824310303,-4.3914899826049805,6.229999999999912
0.9408261775970459,5.890434741973877,-4.355876922607422,6.239999999999911
0.7090251445770264,6.2437238693237305,-4.29860258102417,6.249999999999911
0.5536253452301025,6.276177883148193,-4.253857135772705,6.259999999999911
0.6033978462219238,5.997547626495361,-4.338850021362305,6.269999999999911
0.7611629962921143,5.45042610168457,-5.269320011138916,6.2799999999999105
0.9873065948486328,5.0849199295043945,-6.098693370819092,6.28999999999991
1.5316332578659058,4.486878871917725,-6.897217750549316,6.29999999999991
1.9372978210449219,3.8069915771484375,-7.168360710144043,6.30999999999991
2.350739002227783,2.8324127197265625,-6.6503472328186035,6.31999999999991
2.730067729949951,1.6730146408081055,-6.184685707092285,6.3299999999999095
2.991286039352417,0.6220269203186035,-6.172081470489502,6.339999999999909
2.9817111492156982,0.07345771789550781,-6.190544128417969,6.349999999999909
2.778836965560913,-0.2675004005432129,-5.686485767364502,6.359999999999909
2.319182872772217,-0.19330692291259766,-5.1516313552856445,6.369999999999909
2.0269885063171387,0.08650636672973633,-4.893727779388428,6.379999999999908
1.6361594200134277,0.1049041748046875,-5.107326507568359,6.389999999999908
1.348487377166748,-0.13494348526000977,-5.36012077331543,6.399999999999908
1.1279491186141968,-0.47045278549194336,-5.670068740844727,6.409999999999908
0.8350474834442139,-1.0501399040222168,-6.2663350105285645,6.419999999999908
0.683951735496521,-1.6731176376342773,-6.765010833740234,6.429999999999907
0.8317196369171143,-2.3609507083892822,-6.706977844238281,6.439999999999907
1.2947843074798584,-3.0663583278656006,-6.3270769119262695,6.449999999999907
1.9995298385620117,-3.8247363567352295,-5.506789207458496,6.459999999999907
2.476090431213379,-4.043196201324463,-4.401033401489258,6.4699999999999065
2.704188346862793,-3.5309998989105225,-3.6387746334075928,6.479999999999906
3.0132977962493896,-2.8917503356933594,-3.324530601501465,6.489999999999906
3.5983757972717285,-1.9578032493591309,-3.3699140548706055,6.499999999999906
4.14608097076416,-0.295074462890625,-3.395538091659546,6.509999999999906
4.76782751083374,2.5269722938537598,-3.3058218955993652,6.519999999999905
4.666865825653076,4.962090015411377,-2.548304557800293,6.529999999999905
4.234867095947266,7.454834461212158,-1.0810441970825195,6.539999999999905
4.572020530700684,9.008106231689453,0.855736255645752,6.549999999999905
5.643250465393066,9.556636810302734,1.9556498527526855,6.559999999999905
6.112936019897461,9.381766319274902,1.8013262748718262,6.569999999999904
4.403537273406982,8.572444915771484,1.2128839492797852,6.579999999999904
3.227648973464966,6.793483257293701,0.9082698822021484,6.589999999999904
2.748321533203125,3.6164073944091797,0.5215864181518555,6.599999999999904
3.140937566757202,0.3164095878601074,-0.46616220474243164,6.6099999999999035
3.236182689666748,-0.6419215202331543,-0.5528345108032227,6.619999999999903
3.491375684738159,1.6095991134643555,-1.4856152534484863,6.629999999999903
3.3070244789123535,5.508145332336426,-3.101710081100464,6.639999999999903
1.8879950046539307,6.969913005828857,-4.196863174438477,6.649999999999903
-0.7812762260437012,6.469130516052246,-6.449038982391357,6.659999999999902
-2.4830737113952637,6.245578765869141,-8.141814231872559,6.669999999999902
-1.8419091701507568,7.5450897216796875,-7.806282997131348,6.679999999999902
0.029468059539794922,8.455223083496094,-4.721263408660889,6.689999999999902
2.650501251220703,5.456097602844238,-0.639763355255127,6.699999999999902
2.5140280723571777,2.3377695083618164,-1.3549623489379883,6.709999999999901
2.2695717811584473,0.44008302688598633,-2.966083526611328,6.719999999999901
2.558716297149658,-0.5332450866699219,-3.733290672302246,6.729999999999901
3.6661205291748047,-0.3174571990966797,-5.528548717498779,6.739999999999901
5.004852294921875,1.5222272872924805,-8.189339637756348,6.7499999999999005
6.23281192779541,4.994970321655273,-10.405672073364258,6.7599999999999
6.284619331359863,7.052210330963135,-10.928627014160156,6.7699999999999
5.5087409019470215,7.246229648590088,-9.626320838928223,6.7799999999999
3.634267568588257,5.10670804977417,-6.550521373748779,6.7899999999999
1.947726845741272,2.407883644104004,-4.077498435974121,6.7999999999998995
0.5751705169677734,0.5887432098388672,-2.9306118488311768,6.809999999999899
-0.1032419204711914,-0.19163990020751953,-3.1222705841064453,6.819999999999899
-0.05022597312927246,-0.05699634552001953,-3.8451244831085205,6.829999999999899
0.5643360614776611,0.6863765716552734,-4.688747406005859,6.839999999999899
1.4178903102874756,1.5275254249572754,-5.591204643249512,6.849999999999898
2.198561668395996,2.174048900604248,-6.171857833862305,6.859999999999898
2.8592517375946045,2.213809013366699,-6.660976409912109,6.869999999999898
3.585810661315918,1.4874420166015625,-6.8131256103515625,6.879999999999898
3.828594923019409,0.7582230567932129,-6.782722473144531,6.8899999999998975
3.8906664848327637,0.18978404998779297,-6.671916961669922,6.899999999999897
3.807426691055298,0.03546953201293945,-6.155888080596924,6.909999999999897
3.6823368072509766,0.18277502059936523,-5.788788318634033,6.919999999999897
3.4063687324523926,0.6100053787231445,-5.193999290466309,6.929999999999897
2.963432788848877,1.1091327667236328,-4.8351874351501465,6.9399999999998965
2.7392919063568115,1.1470122337341309,-4.629700660705566,6.949999999999896
2.6474180221557617,0.9497451782226562,-4.494493007659912,6.959999999999896
3.0097579956054688,0.765324592590332,-4.43379545211792,6.969999999999896
3.3808391094207764,0.5680723190307617,-4.070590972900391,6.979999999999896
3.639177083969116,0.42994213104248047,-3.374967575073242,6.989999999999895
3.9352831840515137,0.26755809783935547,-2.9510111808776855,6.999999999999895
3.835963249206543,0.08504390716552734,-2.984891653060913,7.009999999999895
3.5555672645568848,0.18146800994873047,-2.8353655338287354,7.019999999999895
3.573489189147949,0.41748046875,-2.995241165161133,7.0299999999998946
3.928821563720703,0.7866983413696289,-3.816971778869629,7.039999999999894
4.126917362213135,1.471022605895996,-4.469871520996094,7.049999999999894
4.47239875793457,2.423985481262207,-5.161308765411377,7.059999999999894
4.45843505859375,3.2712039947509766,-5.678252696990967,7.069999999999894
4.3621439933776855,4.021567344665527,-5.677765846252441,7.0799999999998935
4.4935503005981445,3.760321617126465,-5.380631446838379,7.089999999999893
4.37119197845459,2.9835128784179688,-5.315690994262695,7.099999999999893
4.089084148406982,2.590740203857422,-4.803072452545166,7.109999999999893
4.027427673339844,3.2350616455078125,-3.9918744564056396,7.119999999999893
3.6233415603637695,4.667217254638672,-3.2808759212493896,7.129999999999892
3.4176442623138428,6.2221479415893555,-3.2913765907287598,7.139999999999892
2.9544553756713867,6.860198020935059,-3.5570244789123535,7.149999999999892
2.5463757514953613,5.773818016052246,-3.7025880813598633,7.159999999999892
2.4849977493286133,3.9837961196899414,-4.521549224853516,7.169999999999892
2.298586130142212,2.8729753494262695,-5.141195297241211,7.179999999999891
2.3561270236968994,2.624990463256836,-5.633498668670654,7.189999999999891
2.6713335514068604,2.6401586532592773,-6.526281833648682,7.199999999999891
2.803276538848877,2.429145336151123,-7.212977409362793,7.209999999999891
2.77972149848938,2.00532865524292,-7.3499345779418945,7.2199999999998905
2.469921350479126,1.9149022102355957,-6.536149024963379,7.22999999999989
1.7456659078598022,2.8700265884399414,-5.058028221130371,7.23999999999989
1.387204647064209,4.2690043449401855,-4.510378837585449,7.24999999999989
1.0771093368530273,5.624211311340332,-3.515206813812256,7.25999999999989
0.6995816230773926,6.296225070953369,-2.835840940475464,7.269999999999889
0.44516420364379883,5.920750141143799,-3.248605251312256,7.279999999999889
0.33013463020324707,4.8533782958984375,-4.540874481201172,7.289999999999889
-0.16808176040649414,4.099859237670898,-5.294950008392334,7.299999999999889
-0.5668137073516846,3.8691163063049316,-5.088313579559326,7.309999999999889
-0.48796677589416504,3.6132936477661133,-4.797417640686035,7.319999999999888
-0.03118276596069336,3.328896999359131,-5.48331356048584,7.329999999999888
0.16381382942199707,3.1266489028930664,-6.144108772277832,7.339999999999888
0.25127482414245605,3.0105738639831543,-6.494010925292969,7.349999999999888
0.3607814311981201,2.6712093353271484,-6.2783427238464355,7.3599999999998875
0.5005201101303101,2.2187905311584473,-5.964138984680176,7.369999999999887
0.546673059463501,1.6797823905944824,-5.7142205238342285,7.379999999999887
0.6835265159606934,1.2650260925292969,-5.903879642486572,7.389999999999887
0.8551275730133057,0.910247802734375,-6.0797648429870605,7.399999999999887
1.0125105381011963,0.7773418426513672,-5.833816051483154,7.4099999999998865
1.315759539604187,1.1019549369812012,-5.466095924377441,7.419999999999886
1.2001087665557861,1.4868674278259277,-5.176563262939453,7.429999999999886
1.2027480602264404,1.54530668258667,-4.980813980102539,7.439999999999886
1.2441399097442627,1.3747143745422363,-5.202406406402588,7.449999999999886
0.7599469423294067,1.1533045768737793,-5.402935028076172,7.459999999999885
0.14381945133209229,0.8956022262573242,-5.172313690185547,7.469999999999885
0.3394472599029541,-0.08983850479125977,-4.938284397125244,7.479999999999885
0.3480188846588135,-1.2024846076965332,-4.838142395019531,7.489999999999885
0.37008166313171387,-2.3968544006347656,-4.721926689147949,7.4999999999998845
2.0954766273498535,-1.8037638664245605,-3.943782091140747,7.509999999999884
1.6464266777038574,-1.1932873725891113,-3.2767200469970703,7.519999999999884
2.248112440109253,-0.7333621978759766,-4.297140121459961,7.529999999999884
2.52449369430542,0.3103508949279785,-5.965268135070801,7.539999999999884
3.780850887298584,1.9048500061035156,-5.003297805786133,7.5499999999998835
3.1456336975097656,3.649641513824463,-2.01932430267334,7.559999999999883
2.190236806869507,4.0967535972595215,-1.308323860168457,7.569999999999883
3.4032821655273438,4.379050254821777,-1.345299243927002,7.579999999999883
2.6006217002868652,4.014708518981934,-2.441568374633789,7.589999999999883
3.7089381217956543,3.405513286590576,-3.137481927871704,7.599999999999882
2.8989830017089844,3.334172248840332,-3.7213809490203857,7.609999999999882
2.849600076675415,3.6112241744995117,-4.090879440307617,7.619999999999882
2.6656947135925293,3.1627793312072754,-3.9107255935668945,7.629999999999882
3.253530979156494,3.688908100128174,-3.1315183639526367,7.6399999999998816
4.004353046417236,3.8539323806762695,-2.5592081546783447,7.649999999999881
2.4509801864624023,2.5413670539855957,-4.304503440856934,7.659999999999881
2.1873035430908203,1.7334861755371094,-4.419764995574951,7.669999999999881
1.3927897214889526,-1.7674427032470703,-4.276700973510742,7.679999999999881
1.5822510719299316,-0.09727334976196289,-4.789419174194336,7.6899999999998805
1.611586093902588,2.493687629699707,-4.761928558349609,7.69999999999988
2.435852289199829,4.92385196685791,-4.941748142242432,7.70999999999988
0.41539740562438965,6.023368835449219,-5.733743667602539,7.71999999999988
0.6457870006561279,7.562510967254639,-4.534080505371094,7.72999999999988
0.38194990158081055,8.074182510375977,-3.129027843475342,7.739999999999879
1.3341175317764282,6.363946914672852,-2.2777421474456787,7.749999999999879
2.6367619037628174,3.768740177154541,-2.2503256797790527,7.759999999999879
2.7870638370513916,1.3371796607971191,-4.798158168792725,7.769999999999879
1.952837347984314,-0.7770843505859375,-7.851548671722412,7.779999999999879
1.2190824747085571,-1.26090669631958,-8.360876083374023,7.789999999999878
1.6569584608078003,-0.7063179016113281,-7.612966060638428,7.799999999999878
1.921640157699585,0.8447732925415039,-6.762227535247803,7.809999999999878
1.9938950538635254,2.748058795928955,-5.918988227844238,7.819999999999878
2.214202880859375,3.8090972900390625,-4.923672199249268,7.8299999999998775
2.6495227813720703,3.823640823364258,-4.314030170440674,7.839999999999877
2.4902586936950684,3.590547561645508,-4.216393947601318,7.849999999999877
1.9875328540802002,2.709080219268799,-4.421558856964111,7.859999999999877
1.5603355169296265,1.8098888397216797,-4.926292419433594,7.869999999999877
1.7873015403747559,1.0841379165649414,-5.144640922546387,7.879999999999876
2.4104366302490234,1.1551666259765625,-5.032801151275635,7.889999999999876
2.6227521896362305,1.618675708770752,-5.03310489654541,7.899999999999876
2.471651792526245,1.8446497917175293,-5.034378528594971,7.909999999999876
2.2673141956329346,1.9344134330749512,-4.987110614776611,7.919999999999876
2.5453996658325195,1.9339065551757812,-4.662543773651123,7.929999999999875
2.8172476291656494,1.8562870025634766,-4.178722858428955,7.939999999999875
3.071575164794922,1.8826403617858887,-3.903923749923706,7.949999999999875
3.151580572128296,2.0100255012512207,-4.037872791290283,7.959999999999875
3.208888530731201,1.9912877082824707,-4.086230278015137,7.9699999999998745
3.241272211074829,2.1576576232910156,-4.203242778778076,7.979999999999874
3.5146286487579346,1.7860383987426758,-4.1648383140563965,7.989999999999874
