AccX,AccY,AccZ,SampleRate
0.8406943082809448,-0.6312580108642578,0.8175708055496216,0
0.5799812078475952,-0.6013422012329102,1.0911282300949097,0.01
0.4265568256378174,-0.5665493011474609,1.0885345935821533,0.02
0.13627994060516357,-0.5987529754638672,1.164678692817688,0.03
0.02122640609741211,-0.7530641555786133,1.1875373125076294,0.04
0.003996372222900391,-0.7759170532226562,1.299386978149414,0.05
0.24674785137176514,-0.7321786880493164,1.5817995071411133,0.060000000000000005
0.6769469976425171,-0.5427179336547852,1.7437160015106201,0.07
0.9430555105209351,-0.3940696716308594,1.6491588354110718,0.08
0.9547296762466431,-0.3960857391357422,1.6832066774368286,0.09
1.0890830755233765,-0.6970138549804688,1.6623111963272095,0.09999999999999999
0.9937700033187866,-1.023794174194336,1.6108230352401733,0.10999999999999999
0.8897718191146851,-1.082005500793457,1.7815020084381104,0.11999999999999998
0.7638262510299683,-1.1542930603027344,1.9277524948120117,0.12999999999999998
0.7759748697280884,-1.1547870635986328,1.97649347782135,0.13999999999999999
0.752295970916748,-0.9350471496582031,1.895614504814148,0.15
0.5977426767349243,-0.7202053070068359,1.7355173826217651,0.16
0.35683929920196533,-0.6372442245483398,1.8617312908172607,0.17
0.3522672653198242,-0.5568037033081055,2.1547796726226807,0.18000000000000002
0.5060962438583374,-0.9671659469604492,1.9066174030303955,0.19000000000000003
1.1845521926879883,-1.214609146118164,1.5251588821411133,0.20000000000000004
1.5870593786239624,-0.41544246673583984,0.9683555364608765,0.21000000000000005
1.8749717473983765,-0.13520336151123047,1.3775150775909424,0.22000000000000006
1.6585235595703125,-0.7229185104370117,1.197690486907959,0.23000000000000007
1.198277473449707,-0.8672494888305664,0.5864883661270142,0.24000000000000007
0.7457506656646729,-0.6046733856201172,0.17120766639709473,0.25000000000000006
0.9671471118927002,-0.11969852447509766,0.24086403846740723,0.26000000000000006
1.2497559785842896,1.1455059051513672,0.085044264793396,0.2700000000000001
1.1336631774902344,1.8865251541137695,0.05245786905288696,0.2800000000000001
1.3584511280059814,2.086766242980957,0.12635082006454468,0.2900000000000001
1.5662734508514404,2.9571475982666016,0.35476064682006836,0.3000000000000001
2.1090354919433594,3.9054088592529297,0.7071220278739929,0.3100000000000001
3.0985374450683594,5.173593521118164,1.5631263256072998,0.3200000000000001
4.332233428955078,6.266043663024902,2.2753896713256836,0.3300000000000001
4.717655658721924,5.743644714355469,2.0043816566467285,0.34000000000000014
4.6769490242004395,4.283872604370117,2.076671838760376,0.35000000000000014
4.818931579589844,3.2077198028564453,2.581292152404785,0.36000000000000015
4.65876579284668,2.8096227645874023,2.8222756385803223,0.37000000000000016
4.119788646697998,2.7046871185302734,2.5625498294830322,0.38000000000000017
3.2348170280456543,2.43167781829834,1.9634463787078857,0.3900000000000002
2.532529830932617,1.9986085891723633,1.4518711566925049,0.4000000000000002
2.1149544715881348,1.4346542358398438,1.811997652053833,0.4100000000000002
1.9888617992401123,0.7761192321777344,1.5057523250579834,0.4200000000000002
1.9699524641036987,0.7708492279052734,1.367279052734375,0.4300000000000002
1.6544122695922852,0.04252338409423828,0.2041771560907364,0.4400000000000002
1.0354328155517578,-0.14863872528076172,-0.16516581177711487,0.45000000000000023
0.22181028127670288,-0.4811687469482422,-0.39357540011405945,0.46000000000000024
-0.6416785717010498,-0.7048587799072266,-0.2777447998523712,0.47000000000000025
-1.1633532047271729,-0.967646598815918,-0.580114483833313,0.48000000000000026
-1.3515483140945435,-1.1045761108398438,-0.748967170715332,0.49000000000000027
-1.3186898231506348,-1.0253124237060547,-0.2900688052177429,0.5000000000000002
-1.1432995796203613,-0.6128225326538086,0.055304884910583496,0.5100000000000002
-0.8879444003105164,0.11861228942871094,-0.08200371265411377,0.5200000000000002
-0.9848107695579529,1.0779104232788086,-0.33078551292419434,0.5300000000000002
-0.7628690004348755,1.773768424987793,-0.09868812561035156,0.5400000000000003
-0.5583513379096985,2.0574264526367188,0.09816265106201172,0.5500000000000003
-0.6358674168586731,2.1158504486083984,-0.09831476211547852,0.5600000000000003
-0.10441148281097412,1.409078598022461,-0.48888278007507324,0.5700000000000003
-0.1242830753326416,0.43855857849121094,-0.9543009996414185,0.5800000000000003
0.008756399154663086,-0.608393669128418,-1.126624345779419,0.5900000000000003
0.2113494873046875,-2.0863776206970215,-0.4474513530731201,0.6000000000000003
0.537630558013916,-3.0401062965393066,-0.6838819980621338,0.6100000000000003
-0.24785304069519043,-2.8486642837524414,-1.358858346939087,0.6200000000000003
-0.7925916910171509,-2.8422818183898926,-0.9944603443145752,0.6300000000000003
-1.162036418914795,-3.1057682037353516,-0.5500059127807617,0.6400000000000003
-1.3359737396240234,-3.3292012214660645,-0.6900174617767334,0.6500000000000004
-1.5462260246276855,-3.3064208030700684,-1.0623760223388672,0.6600000000000004
-1.9065377712249756,-3.470709800720215,-1.7599337100982666,0.6700000000000004
-1.9127663373947144,-3.9484944343566895,-2.1723074913024902,0.6800000000000004
-1.933579921722412,-4.6570820808410645,-2.1577651500701904,0.6900000000000004
-1.7867796421051025,-5.383400917053223,-1.4736297130584717,0.7000000000000004
-1.8063914775848389,-5.897991180419922,-0.9361014366149902,0.7100000000000004
-1.5785179138183594,-6.155634880065918,-0.42067909240722656,0.7200000000000004
-1.1765069961547852,-5.766129016876221,-0.2515592575073242,0.7300000000000004
-0.7611035108566284,-5.048471450805664,-0.3224797248840332,0.7400000000000004
-0.12442505359649658,-3.859572410583496,-0.24406719207763672,0.7500000000000004
0.5076538324356079,-2.2272000312805176,0.18242573738098145,0.7600000000000005
1.302303433418274,-0.23021793365478516,1.360889196395874,0.7700000000000005
2.074740409851074,1.9507102966308594,2.2870728969573975,0.7800000000000005
2.548692226409912,4.157462120056152,3.0530569553375244,0.7900000000000005
2.6259217262268066,5.167135238647461,3.787836790084839,0.8000000000000005
2.5329203605651855,5.35787296295166,4.579440116882324,0.8100000000000005
2.0750722885131836,5.3304033279418945,4.8474273681640625,0.8200000000000005
1.2722173929214478,5.186579704284668,4.5145392417907715,0.8300000000000005
0.6676778793334961,3.575481414794922,4.003767967224121,0.8400000000000005
0.45925235748291016,-0.061781883239746094,3.5039825439453125,0.8500000000000005
0.8350052833557129,-2.351865291595459,3.275014638900757,0.8600000000000005
0.9210613965988159,-3.223825454711914,3.2009341716766357,0.8700000000000006
1.1509044170379639,-1.6334733963012695,2.090088367462158,0.8800000000000006
0.4707181453704834,1.4735660552978516,1.1282572746276855,0.8900000000000006
-0.6532411575317383,3.454167366027832,0.7673330307006836,0.9000000000000006
-2.7172515392303467,2.890972137451172,-0.7995641231536865,0.9100000000000006
-4.13385009765625,1.5151233673095703,-2.2007455825805664,0.9200000000000006
-4.701298713684082,1.9327211380004883,-3.1196084022521973,0.9300000000000006
-4.016822814941406,3.809390068054199,-2.5529959201812744,0.9400000000000006
-2.150139808654785,5.064233779907227,-0.5053005218505859,0.9500000000000006
-0.9313749074935913,4.50222110748291,0.617485523223877,0.9600000000000006
-1.1660971641540527,1.2288780212402344,0.374675989151001,0.9700000000000006
-1.8219107389450073,-1.7317509651184082,-0.09967255592346191,0.9800000000000006
-2.3580222129821777,-3.480642795562744,-0.9923849105834961,0.9900000000000007
-2.264259099960327,-3.5867919921875,-1.5146321058273315,1.0000000000000007
-1.1586475372314453,-2.6580286026000977,-1.7548211812973022,1.0100000000000007
-1.1272356510162354,-2.6915159225463867,-1.6778966188430786,1.0200000000000007
2.9212801456451416,1.2338571548461914,-4.0361328125,1.0300000000000007
3.306702136993408,1.95574951171875,-4.105384826660156,1.0400000000000007
2.557919502258301,1.865199089050293,-3.005009651184082,1.0500000000000007
1.2874720096588135,0.31192970275878906,-1.2324848175048828,1.0600000000000007
-0.19416606426239014,-1.2434263229370117,0.07445740699768066,1.0700000000000007
-1.4493601322174072,-2.3979907035827637,0.36601710319519043,1.0800000000000007
-2.5255839824676514,-2.9175095558166504,-0.4793243408203125,1.0900000000000007
-2.968879461288452,-2.871140956878662,-1.1164759397506714,1.1000000000000008
-2.9439337253570557,-2.1632022857666016,-1.4404194355010986,1.1100000000000008
-2.1907472610473633,-1.180166244506836,-1.1239315271377563,1.1200000000000008
-1.2775683403015137,-0.28444957733154297,-0.9157581925392151,1.1300000000000008
0.012975454330444336,-0.06485271453857422,-0.7167059779167175,1.1400000000000008
1.1078163385391235,-0.7672224044799805,-0.4585975408554077,1.1500000000000008
1.3971108198165894,-1.5818591117858887,-0.27203404903411865,1.1600000000000008
1.420912265777588,-1.604001522064209,-0.12989699840545654,1.1700000000000008
0.3829127550125122,-2.7018699645996094,-0.7871941924095154,1.1800000000000008
-0.3070873022079468,-2.678393840789795,-0.42958056926727295,1.1900000000000008
-0.7370468974113464,-2.369339942932129,-0.5190256237983704,1.2000000000000008
-0.7914124131202698,-1.9978446960449219,0.2158835530281067,1.2100000000000009
-0.4958527088165283,-1.8674793243408203,0.35298869013786316,1.2200000000000009
0.10524213314056396,-1.8939142227172852,0.2525801956653595,1.2300000000000009
0.37968170642852783,-1.8803424835205078,0.6200810670852661,1.2400000000000009
0.8639053106307983,-1.5537290573120117,0.8268458247184753,1.2500000000000009
1.2561538219451904,-1.0836334228515625,1.0015467405319214,1.260000000000001
1.132055640220642,-0.22116851806640625,1.4084835052490234,1.270000000000001
1.2250878810882568,-0.2283935546875,1.5401558876037598,1.280000000000001
0.4048115015029907,1.0806798934936523,1.6845591068267822,1.290000000000001
0.4390904903411865,1.6373052597045898,1.5643997192382812,1.300000000000001
1.4663578271865845,1.991769790649414,1.266931176185608,1.310000000000001
3.14936900138855,2.1361474990844727,0.4919380843639374,1.320000000000001
4.5856475830078125,2.65164852142334,-0.15440118312835693,1.330000000000001
5.325265884399414,2.953533172607422,0.2000637650489807,1.340000000000001
5.220618724822998,2.6076431274414062,0.3019482493400574,1.350000000000001
4.323789119720459,2.3125,1.131506085395813,1.360000000000001
3.613630533218384,2.500307083129883,1.7812529802322388,1.370000000000001
3.006615400314331,3.5848817825317383,1.499038815498352,1.380000000000001
2.745009660720825,5.673710823059082,1.7479619979858398,1.390000000000001
3.2601206302642822,5.894669532775879,0.7012500166893005,1.400000000000001
3.108736515045166,3.759596824645996,-1.115620732307434,1.410000000000001
2.446106195449829,1.3477535247802734,-1.7208822965621948,1.420000000000001
1.643038034439087,0.21045303344726562,-1.7557578086853027,1.430000000000001
0.9390178918838501,0.5310993194580078,-2.203441858291626,1.440000000000001
0.4794071614742279,1.8540000915527344,-2.4906177520751953,1.450000000000001
0.11189812421798706,3.182863235473633,-1.7860400676727295,1.460000000000001
0.10413792729377747,3.8919925689697266,-0.1833210438489914,1.470000000000001
0.06598871946334839,3.6254138946533203,1.3426713943481445,1.480000000000001
0.1791079044342041,3.2086877822875977,1.3641326427459717,1.490000000000001
0.13912171125411987,3.1576080322265625,0.49328774213790894,1.500000000000001
-0.276350200176239,3.273466110229492,-0.04760026931762695,1.5100000000000011
-0.8924742937088013,3.363950729370117,0.2814432382583618,1.5200000000000011
-1.4303297996520996,3.090437889099121,0.5815178155899048,1.5300000000000011
-2.07568359375,2.3667287826538086,0.21443569660186768,1.5400000000000011
-2.4654173851013184,1.6345787048339844,-0.5046424865722656,1.5500000000000012
-2.659670352935791,0.9933595657348633,-1.0077831745147705,1.5600000000000012
-2.7418131828308105,0.26486873626708984,-1.4413102865219116,1.5700000000000012
-2.359786033630371,-0.025055885314941406,-2.1275084018707275,1.5800000000000012
-1.8408117294311523,-0.348907470703125,-2.5671887397766113,1.5900000000000012
-1.0401393175125122,-0.8821783065795898,-2.457350969314575,1.6000000000000012
-0.33563005924224854,-1.4413723945617676,-2.3073530197143555,1.6100000000000012
-0.038294076919555664,-1.8848462104797363,-2.0275039672851562,1.6200000000000012
0.05597329139709473,-2.2446179389953613,-1.8289265632629395,1.6300000000000012
-0.31750917434692383,-2.30521821975708,-1.706302523612976,1.6400000000000012
-0.8481093645095825,-2.504293918609619,-1.6701921224594116,1.6500000000000012
-1.4465148448944092,-2.6670408248901367,-1.7295856475830078,1.6600000000000013
-1.7067527770996094,-3.316854953765869,-1.5888745784759521,1.6700000000000013
-2.317352771759033,-3.880146026611328,-1.7673821449279785,1.6800000000000013
-3.1204278469085693,-4.470421314239502,-2.2666285037994385,1.6900000000000013
-3.2195920944213867,-5.021500587463379,-2.539733409881592,1.7000000000000013
-2.755789279937744,-5.718365669250488,-2.3871216773986816,1.7100000000000013
-2.2498815059661865,-6.471284866333008,-1.6668262481689453,1.7200000000000013
-1.7690620422363281,-6.94769287109375,-0.85520339012146,1.7300000000000013
-1.2330886125564575,-6.669233798980713,-0.450702428817749,1.7400000000000013
-0.5052525997161865,-5.280837059020996,-0.10665369033813477,1.7500000000000013
0.283374547958374,-4.266094207763672,-0.05873918533325195,1.7600000000000013
0.9310026168823242,-2.805807590484619,-0.1567857265472412,1.7700000000000014
0.8223104476928711,-0.7887773513793945,0.7892305850982666,1.7800000000000014
0.4766361713409424,1.221308708190918,2.1583762168884277,1.7900000000000014
0.4067041873931885,2.610133171081543,2.8713879585266113,1.8000000000000014
1.1494710445404053,3.8090314865112305,2.763425350189209,1.8100000000000014
1.8071008920669556,4.8762054443359375,2.6811680793762207,1.8200000000000014
2.309113025665283,5.649883270263672,3.151331901550293,1.8300000000000014
2.4850974082946777,5.092705726623535,4.088555335998535,1.8400000000000014
1.84814453125,3.178616523742676,4.595877647399902,1.8500000000000014
1.1525459289550781,0.5155553817749023,4.673008918762207,1.8600000000000014
1.0174587965011597,-2.776017665863037,3.809861898422241,1.8700000000000014
0.9868333339691162,-3.8829288482666016,2.156811237335205,1.8800000000000014
-0.01307535171508789,-1.8859443664550781,-1.1510639190673828,1.8900000000000015
-1.0296465158462524,1.684305191040039,-2.0765419006347656,1.9000000000000015
-2.448561429977417,3.630138397216797,-2.8369503021240234,1.9100000000000015
-5.232361793518066,3.5475149154663086,-4.556787490844727,1.9200000000000015
-6.699306011199951,6.895123481750488,-5.284324645996094,1.9300000000000015
-4.719620704650879,10.618974685668945,-2.749053955078125,1.9400000000000015
-0.9061980247497559,11.464421272277832,2.4642553329467773,1.9500000000000015
0.4051394462585449,7.703849792480469,5.819579124450684,1.9600000000000015
-1.1032118797302246,1.2012157440185547,3.310426950454712,1.9700000000000015
-2.214428424835205,-3.5495758056640625,0.4833362102508545,1.9800000000000015
-2.4746031761169434,-7.219668388366699,-2.122189521789551,1.9900000000000015
-1.8409638404846191,-7.926692962646484,-3.4621336460113525,2.0000000000000013
-0.14654386043548584,-5.75105094909668,-4.672037124633789,2.010000000000001
1.930264949798584,-1.2990522384643555,-5.677441596984863,2.020000000000001
3.370344400405884,3.1758155822753906,-5.435301303863525,2.0300000000000007
3.1266987323760986,5.752567291259766,-3.670658826828003,2.0400000000000005
1.046729326248169,4.56180477142334,-1.0333020687103271,2.0500000000000003
-0.9828284978866577,2.159060478210449,0.16991329193115234,2.06
-2.634768486022949,-1.1113433837890625,-0.4334346055984497,2.07
-3.697862148284912,-3.4828004837036133,-1.9571259021759033,2.0799999999999996
-3.604442596435547,-4.4575066566467285,-2.486121654510498,2.0899999999999994
-3.434636116027832,-3.885601043701172,-1.9789562225341797,2.099999999999999
-2.151768445968628,-2.534546375274658,-1.9523226022720337,2.109999999999999
-1.2947075366973877,-1.162881851196289,-2.1165199279785156,2.1199999999999988
0.02041304111480713,-0.44932079315185547,-2.0791831016540527,2.1299999999999986
1.1175106763839722,-0.7598724365234375,-1.59945547580719,2.1399999999999983
0.936840295791626,-1.145939826965332,-1.3569438457489014,2.149999999999998
0.2349104881286621,-1.619603157043457,-1.2996933460235596,2.159999999999998
-0.562725305557251,-1.630483627319336,0.21681004762649536,2.1699999999999977
-0.6446852087974548,-1.725132942199707,0.36780089139938354,2.1799999999999975
-0.7153688669204712,-1.8545351028442383,0.0777428150177002,2.1899999999999973
-0.3393751382827759,-2.062258243560791,0.25782203674316406,2.199999999999997
0.20890843868255615,-1.921532154083252,0.61419677734375,2.209999999999997
0.8526177406311035,-1.6546897888183594,0.819982647895813,2.2199999999999966
1.207977533340454,-1.4073057174682617,1.1528058052062988,2.2299999999999964
1.3411558866500854,-1.4546051025390625,1.6180497407913208,2.239999999999996
1.3230952024459839,-1.6122541427612305,1.6942325830459595,2.249999999999996
0.9463158249855042,-1.162095069885254,1.9926409721374512,2.259999999999996
1.0926847457885742,-0.7505636215209961,1.3364043235778809,2.2699999999999956
1.639472246170044,0.017533302307128906,0.6320047974586487,2.2799999999999954
2.170550584793091,1.5200624465942383,1.2300870418548584,2.289999999999995
2.9450950622558594,2.3321781158447266,0.6416214108467102,2.299999999999995
4.068402290344238,2.7144365310668945,-0.01947629451751709,2.3099999999999947
4.733515739440918,2.967426300048828,-0.028684020042419434,2.3199999999999945
4.728017807006836,2.626370429992676,-0.12812191247940063,2.3299999999999943
3.9806976318359375,1.964055061340332,0.4603590667247772,2.339999999999994
3.2605159282684326,2.0285205841064453,1.0431442260742188,2.349999999999994
2.2750227451324463,3.569014549255371,1.4408241510391235,2.3599999999999937
1.7723805904388428,5.675907135009766,1.4010205268859863,2.3699999999999934
1.4567421674728394,6.725896835327148,0.9564192295074463,2.3799999999999932
1.270998477935791,5.157535552978516,-0.24459350109100342,2.389999999999993
1.2362675666809082,2.6299753189086914,-1.0707507133483887,2.399999999999993
1.4552934169769287,0.8384866714477539,-1.3135583400726318,2.4099999999999926
1.5765457153320312,0.4715900421142578,-1.727555274963379,2.4199999999999924
1.5093233585357666,1.1413393020629883,-2.043632745742798,2.429999999999992
1.4034292697906494,2.308722496032715,-2.039179801940918,2.439999999999992
1.3135592937469482,3.4268388748168945,-0.8066951632499695,2.4499999999999917
0.8323732614517212,4.498527526855469,0.5881258845329285,2.4599999999999915
-0.1727394461631775,5.155300140380859,1.3508943319320679,2.4699999999999913
-0.8600984215736389,5.361173629760742,1.2521027326583862,2.479999999999991
-1.4913407564163208,5.386920928955078,0.8685060739517212,2.489999999999991
-1.8145151138305664,4.881139755249023,0.645984411239624,2.4999999999999907
-1.7373840808868408,4.078817367553711,0.4389539957046509,2.5099999999999905
-1.4632000923156738,3.038423538208008,-0.3243541717529297,2.5199999999999902
-1.5159238576889038,2.1248302459716797,-1.3215651512145996,2.52999999999999
-1.7610857486724854,1.6846561431884766,-2.0756218433380127,2.53999999999999
-1.9026265144348145,1.0522785186767578,-2.7898476123809814,2.5499999999999896
-1.7802752256393433,0.38259124755859375,-2.7547712326049805,2.5599999999999894
-1.4910749197006226,-0.43504810333251953,-2.2620842456817627,2.569999999999989
-0.7876059412956238,-1.5318970680236816,-1.9204336404800415,2.579999999999989
-0.2988317012786865,-2.67366886138916,-1.35006844997406,2.5899999999999888
-0.32690179347991943,-3.1410984992980957,-1.1822178363800049,2.5999999999999885
-0.2907867431640625,-3.4051051139831543,-0.9742653369903564,2.6099999999999883
-0.7191915512084961,-3.460531234741211,-1.1633198261260986,2.619999999999988
-1.1640536785125732,-3.6344213485717773,-1.6494140625,2.629999999999988
-1.6128325462341309,-3.987180233001709,-2.4686946868896484,2.6399999999999877
-1.8040344715118408,-4.7364044189453125,-3.4970741271972656,2.6499999999999875
-2.136667251586914,-5.370657920837402,-4.334944725036621,2.6599999999999873
-2.624437093734741,-6.16682767868042,-4.894227981567383,2.669999999999987
-3.014688014984131,-6.939596652984619,-4.6419596672058105,2.679999999999987
-2.9940896034240723,-6.913639545440674,-4.704211235046387,2.6899999999999866
-2.8115131855010986,-8.374987602233887,-1.893101453781128,2.6999999999999864
-2.3510406017303467,-8.6854829788208,-0.14019250869750977,2.709999999999986
-1.7805767059326172,-8.059409141540527,0.42034912109375,2.719999999999986
-1.3424108028411865,-6.524078369140625,-0.24681520462036133,2.7299999999999858
-0.9603521823883057,-4.530055999755859,-0.6291508674621582,2.7399999999999856
-0.47143709659576416,-2.01906156539917,-0.2044062614440918,2.7499999999999853
0.2555720806121826,0.9736852645874023,1.0160167217254639,2.759999999999985
1.0778757333755493,5.149331092834473,2.4636731147766113,2.769999999999985
1.3807308673858643,8.04991626739502,2.48714542388916,2.7799999999999847
1.900320053100586,10.936376571655273,3.2635488510131836,2.7899999999999845
3.7072885036468506,11.172529220581055,5.928762435913086,2.7999999999999843
3.5094223022460938,8.219593048095703,6.464822769165039,2.809999999999984
1.4950660467147827,3.422433853149414,5.091850280761719,2.819999999999984
-0.2222607135772705,-0.7442483901977539,4.065299987792969,2.8299999999999836
-0.16546976566314697,-1.3214807510375977,2.3531715869903564,2.8399999999999834
-0.5636577606201172,0.2648191452026367,0.5227720737457275,2.849999999999983
-1.1513972282409668,2.734222412109375,-0.36479902267456055,2.859999999999983
-2.4833638668060303,4.415538787841797,-1.6893165111541748,2.869999999999983
-5.167364597320557,5.58305549621582,-4.278337478637695,2.8799999999999826
-5.399560451507568,7.86057186126709,-5.045568943023682,2.8899999999999824
-3.485807418823242,7.817216873168945,-1.751896619796753,2.899999999999982
-1.0612612962722778,4.107007026672363,2.176362991333008,2.909999999999982
-1.3092888593673706,-2.4801831245422363,3.3467698097229004,2.9199999999999817
-3.8896045684814453,-5.650104999542236,-0.2924199104309082,2.9299999999999815
-3.6140904426574707,-6.3144989013671875,-1.938408613204956,2.9399999999999813
-1.8636791706085205,-5.63873815536499,-3.203917980194092,2.949999999999981
0.5396082401275635,-2.7664570808410645,-4.7358808517456055,2.959999999999981
3.0907349586486816,2.942267417907715,-6.759060382843018,2.9699999999999807
3.9208459854125977,7.5975236892700195,-7.098072052001953,2.9799999999999804
2.980656862258911,7.735328674316406,-4.529262542724609,2.9899999999999802
0.5832042694091797,3.2381515502929688,-0.48958730697631836,2.99999999999998
-1.372467279434204,-1.4800872802734375,1.3813505172729492,3.00999999999998
-2.541219711303711,-3.7948760986328125,1.1252431869506836,3.0199999999999796
-3.449639320373535,-5.303276062011719,0.06793045997619629,3.0299999999999794
-3.9541220664978027,-5.014358997344971,-1.4160232543945312,3.039999999999979
-3.3848624229431152,-3.0677690505981445,-2.31201171875,3.049999999999979
-1.9180227518081665,-0.7317037582397461,-2.351924180984497,3.0599999999999787
-0.014155864715576172,0.8499517440795898,-1.6479237079620361,3.0699999999999785
1.2657694816589355,0.9520769119262695,-1.443267583847046,3.0799999999999783
1.917175054550171,-0.19259071350097656,-1.2525861263275146,3.089999999999978
1.5967028141021729,-1.8827781677246094,0.11089074611663818,3.099999999999978
0.3067166805267334,-2.7954931259155273,-0.08297359943389893,3.1099999999999777
-0.4625701904296875,-2.8578810691833496,-1.0068002939224243,3.1199999999999775
-1.0396322011947632,-2.166609287261963,0.02735811471939087,3.1299999999999772
-0.9222850203514099,-1.92374849319458,0.1555877923965454,3.139999999999977
-0.16200542449951172,-1.978104591369629,0.3993108868598938,3.149999999999977
-0.06603264808654785,-1.994248390197754,0.4572538733482361,3.1599999999999766
-0.45480847358703613,-2.171511173248291,0.641090452671051,3.1699999999999764
-0.4640868902206421,-2.2684836387634277,1.0823396444320679,3.179999999999976
-0.06715357303619385,-1.731480598449707,1.6331534385681152,3.189999999999976
0.7176774740219116,-0.8281764984130859,0.93781977891922,3.1999999999999758
1.092000126838684,0.1740121841430664,1.076247215270996,3.2099999999999755
1.1700778007507324,0.851531982421875,0.8660402894020081,3.2199999999999753
1.2813498973846436,1.5036506652832031,0.5520780086517334,3.229999999999975
1.4186599254608154,1.5023117065429688,0.651810348033905,3.239999999999975
2.955810785293579,2.673092842102051,1.0279967784881592,3.2499999999999747
3.82885479927063,2.9803686141967773,0.7175832390785217,3.2599999999999745
4.515459060668945,3.266082763671875,0.5768723487854004,3.2699999999999743
5.3438639640808105,2.4025087356567383,0.04093790054321289,3.279999999999974
5.475237846374512,1.2062816619873047,0.38718393445014954,3.289999999999974
4.702855587005615,1.074991226196289,1.6125705242156982,3.2999999999999736
3.6975202560424805,1.735321044921875,1.4838335514068604,3.3099999999999734
2.461116313934326,3.465414047241211,1.765822172164917,3.319999999999973
2.2778232097625732,5.797926902770996,0.9834951758384705,3.329999999999973
2.2326900959014893,6.180997848510742,0.0723031759262085,3.3399999999999728
1.795303463935852,4.075272560119629,-1.4137142896652222,3.3499999999999726
1.3113040924072266,1.733388900756836,-2.4047152996063232,3.3599999999999723
0.25864070653915405,1.118880271911621,-2.625809907913208,3.369999999999972
-0.5832893252372742,1.7658147811889648,-2.8792107105255127,3.379999999999972
-1.4338719844818115,3.093812942504883,-1.863692045211792,3.3899999999999717
-1.648193120956421,3.9023962020874023,-0.4435928761959076,3.3999999999999715
-1.109554648399353,3.8459739685058594,0.017960309982299805,3.4099999999999713
-0.48851460218429565,3.7783937454223633,-0.19672486186027527,3.419999999999971
-0.27922865748405457,3.9794836044311523,-0.6303660869598389,3.429999999999971
-0.50834059715271,4.413092613220215,-0.6827865839004517,3.4399999999999706
-0.9191594123840332,4.687294006347656,0.09552156925201416,3.4499999999999704
-1.5167195796966553,4.267936706542969,0.6260412931442261,3.45999999999997
-2.0268397331237793,3.392892837524414,0.3299274444580078,3.46999999999997
-2.256850004196167,2.638063430786133,-0.5998573303222656,3.47999999999997
-2.476863384246826,1.8509111404418945,-1.4341063499450684,3.4899999999999696
-2.690544843673706,1.2380809783935547,-1.9354685544967651,3.4999999999999694
-2.5714995861053467,0.36762046813964844,-2.4305524826049805,3.509999999999969
-1.8799958229064941,-0.7079801559448242,-2.3654441833496094,3.519999999999969
-1.0323916673660278,-1.825927734375,-2.1939096450805664,3.5299999999999687
-0.31163489818573,-2.8139352798461914,-1.9029299020767212,3.5399999999999685
0.08353900909423828,-3.3594436645507812,-2.023393392562866,3.5499999999999683
0.07284963130950928,-3.5067734718322754,-2.1782469749450684,3.559999999999968
-0.24813520908355713,-3.5329856872558594,-2.043640613555908,3.569999999999968
-0.8345076441764832,-3.6072797775268555,-1.812424659729004,3.5799999999999677
-1.4343739748001099,-3.87692928314209,-1.6491129398345947,3.5899999999999674
-1.9710593223571777,-4.482845306396484,-1.649172067642212,3.5999999999999672
-2.528930425643921,-5.182530403137207,-2.2569711208343506,3.609999999999967
-2.888627290725708,-5.590065956115723,-2.8614401817321777,3.619999999999967
-3.041614532470703,-6.033079624176025,-3.2352476119995117,3.6299999999999666
-2.8460543155670166,-6.83782434463501,-2.735795497894287,3.6399999999999664
-2.603806257247925,-7.544771194458008,-1.9597091674804688,3.649999999999966
-2.030679702758789,-8.026559829711914,-1.1877927780151367,3.659999999999966
-1.2211668491363525,-7.487593650817871,-1.2018532752990723,3.6699999999999657
-0.5649632215499878,-6.380210876464844,-1.357132911682129,3.6799999999999655
0.33061540126800537,-4.795375823974609,-1.0848453044891357,3.6899999999999653
0.9519859552383423,-2.9347338676452637,-0.4790918827056885,3.699999999999965
1.1308929920196533,-0.5831193923950195,0.6528499126434326,3.709999999999965
0.9259234666824341,2.1589508056640625,2.791905641555786,3.7199999999999647
0.9123598337173462,4.923805236816406,5.023510932922363,3.7299999999999645
1.1725423336029053,6.323660850524902,4.729548931121826,3.7399999999999642
1.110392689704895,7.664494514465332,3.531236410140991,3.749999999999964
0.6203101873397827,8.629826545715332,3.3990206718444824,3.759999999999964
-0.42288100719451904,8.024138450622559,4.227270126342773,3.7699999999999636
-0.9873195886611938,4.701554298400879,4.815799713134766,3.7799999999999634
-0.211708664894104,-0.5102014541625977,4.897048473358154,3.789999999999963
0.9679480791091919,-3.8082470893859863,4.659117698669434,3.799999999999963
1.121893048286438,-5.540081024169922,2.947563409805298,3.8099999999999627
0.4531604051589966,-3.1918978691101074,0.887664794921875,3.8199999999999625
-0.03520405292510986,1.4416542053222656,-0.841008186340332,3.8299999999999623
-1.4374780654907227,4.653913497924805,-1.9849975109100342,3.839999999999962
-5.328835487365723,4.415945053100586,-5.346829891204834,3.849999999999962
-6.9243268966674805,3.8614320755004883,-6.770826816558838,3.8599999999999617
-6.154284954071045,6.495306015014648,-5.640225410461426,3.8699999999999615
-2.726104736328125,8.766709327697754,-1.47798752784729,3.8799999999999613
0.0576021671295166,7.892878532409668,2.900829553604126,3.889999999999961
-0.6783082485198975,3.1141319274902344,3.0569984912872314,3.899999999999961
-3.2472662925720215,-1.0715808868408203,0.09661269187927246,3.9099999999999606
-3.0955238342285156,-3.497797966003418,-0.24198603630065918,3.9199999999999604
-1.8569661378860474,-5.769637107849121,-1.2512905597686768,3.92999999999996
0.09844183921813965,-5.913387298583984,-3.2067651748657227,3.93999999999996
1.938024640083313,-3.304150104522705,-5.948001861572266,3.9499999999999598
3.1501810550689697,0.726130485534668,-7.471480846405029,3.9599999999999596
3.7413346767425537,4.259293556213379,-6.008793830871582,3.9699999999999593
2.2676501274108887,4.086504936218262,-2.8444108963012695,3.979999999999959
0.24483251571655273,1.2795476913452148,0.40108752250671387,3.989999999999959
-1.330357551574707,-1.768449306488037,1.7267498970031738,3.9999999999999587
-2.739614486694336,-3.787205696105957,1.2753777503967285,4.009999999999959
-3.3356528282165527,-4.574519634246826,0.023897647857666016,4.019999999999959
-3.5772719383239746,-3.7015647888183594,-1.540887713432312,4.0299999999999585
-2.8292670249938965,-2.414767265319824,-2.129305839538574,4.039999999999958
-1.1679493188858032,-0.6457815170288086,-2.2763442993164062,4.049999999999958
1.2045445442199707,-0.004673004150390625,-1.809442162513733,4.059999999999958
2.6476094722747803,-0.0581512451171875,-0.9602580666542053,4.069999999999958
2.978945732116699,-0.9841232299804688,-0.6411901116371155,4.079999999999957
1.7060542106628418,-2.014388084411621,-1.3876640796661377,4.089999999999957
0.6598799228668213,-2.840355396270752,-1.241966724395752,4.099999999999957
-0.6235020756721497,-2.909372329711914,-0.09254243969917297,4.109999999999957
-1.110107183456421,-2.660472869873047,0.6177637577056885,4.119999999999957
-1.2511789798736572,-2.1567845344543457,1.1537532806396484,4.129999999999956
-0.6029560565948486,-1.5203962326049805,1.235321044921875,4.139999999999956
0.662878692150116,-1.2868528366088867,1.202043056488037,4.149999999999956
1.0521063804626465,-1.3693552017211914,1.2980377674102783,4.159999999999956
1.1221634149551392,-1.638174057006836,1.3695228099822998,4.1699999999999555
1.471165418624878,-2.3368382453918457,0.5455195903778076,4.179999999999955
1.0090817213058472,-1.7365036010742188,0.3009331524372101,4.189999999999955
0.7883157730102539,-0.20945072174072266,0.5368831753730774,4.199999999999955
0.5384882688522339,1.9013776779174805,1.6699092388153076,4.209999999999955
0.19218167662620544,3.07535457611084,1.7880399227142334,4.2199999999999545
0.4975678324699402,3.261469841003418,1.627800703048706,4.229999999999954
1.8067831993103027,2.8004684448242188,0.9782114624977112,4.239999999999954
3.2418506145477295,2.4340267181396484,0.25652623176574707,4.249999999999954
4.3735671043396,2.248199462890625,0.30508846044540405,4.259999999999954
4.552964687347412,1.9985599517822266,0.7094739079475403,4.269999999999953
3.690556526184082,2.0872268676757812,1.4730956554412842,4.279999999999953
2.4381353855133057,2.600553512573242,1.9055776596069336,4.289999999999953
1.4753332138061523,3.4739294052124023,1.6654655933380127,4.299999999999953
1.5425589084625244,5.152037620544434,1.2346864938735962,4.3099999999999525
2.3457138538360596,6.7216644287109375,0.5523518323898315,4.319999999999952
2.7764997482299805,5.505558013916016,-0.7157531976699829,4.329999999999952
2.726865768432617,3.160236358642578,-2.2288718223571777,4.339999999999952
2.345085620880127,1.2665433883666992,-2.864424228668213,4.349999999999952
1.337864875793457,1.1839971542358398,-2.5043516159057617,4.3599999999999515
0.22954684495925903,2.62078857421875,-1.7302393913269043,4.369999999999951
-0.29518890380859375,4.189938545227051,-1.0945191383361816,4.379999999999951
-0.5894634127616882,4.628270149230957,-0.0699034184217453,4.389999999999951
-0.7888960838317871,4.015926361083984,0.5624290108680725,4.399999999999951
-0.995074987411499,3.2010059356689453,0.8498202562332153,4.40999999999995
-1.1122325658798218,3.220334053039551,0.9068281054496765,4.41999999999995
-1.2301069498062134,3.7848596572875977,0.8612707257270813,4.42999999999995
-1.2602037191390991,3.9953842163085938,0.7440893650054932,4.43999999999995
-1.214946985244751,3.574833869934082,0.46669280529022217,4.4499999999999496
-1.1127574443817139,2.8870849609375,-0.27155065536499023,4.459999999999949
-1.152180790901184,2.1531333923339844,-1.3949897289276123,4.469999999999949
-1.3841137886047363,1.3273725509643555,-2.562122106552124,4.479999999999949
-1.5752761363983154,0.4877967834472656,-3.4277281761169434,4.489999999999949
-1.215977668762207,-0.4631805419921875,-3.080967426300049,4.4999999999999485
-0.6164132356643677,-1.2544736862182617,-2.502995729446411,4.509999999999948
-0.13851875066757202,-1.8214693069458008,-2.1601130962371826,4.519999999999948
0.010375678539276123,-2.3975095748901367,-1.9701406955718994,4.529999999999948
-0.08267176151275635,-2.6554059982299805,-1.7743068933486938,4.539999999999948
-0.6740966439247131,-2.8028459548950195,-1.7973881959915161,4.549999999999947
-1.1263940334320068,-2.952099323272705,-1.8148555755615234,4.559999999999947
-1.7626382112503052,-3.589914321899414,-1.8500975370407104,4.569999999999947
-2.275552749633789,-4.047749996185303,-2.2488512992858887,4.579999999999947
-2.841433525085449,-4.803362846374512,-2.8627729415893555,4.589999999999947
-3.0057554244995117,-5.701041221618652,-3.5134568214416504,4.599999999999946
-3.0562336444854736,-6.471408843994141,-3.5447683334350586,4.609999999999946
-2.9447951316833496,-7.263629913330078,-3.2903783321380615,4.619999999999946
-2.6090664863586426,-8.074601173400879,-2.249077558517456,4.629999999999946
-2.198314905166626,-8.30636215209961,-1.554663896560669,4.6399999999999455
-1.6570875644683838,-7.7513813972473145,-1.0051820278167725,4.649999999999945
-1.5840508937835693,-7.779634952545166,-0.9706799983978271,4.659999999999945
-0.32204121351242065,-4.914398193359375,0.3789706230163574,4.669999999999945
0.2501295804977417,-2.8170762062072754,0.8146929740905762,4.679999999999945
0.7881364822387695,0.3125028610229492,1.3880493640899658,4.689999999999944
0.44382619857788086,3.20205020904541,2.300847053527832,4.699999999999944
0.14476311206817627,5.733088493347168,3.312915325164795,4.709999999999944
0.9713669419288635,6.6392412185668945,4.108378887176514,4.719999999999944
2.1969573497772217,6.9545087814331055,3.8996896743774414,4.729999999999944
1.570460557937622,6.635381698608398,3.487072706222534,4.739999999999943
-0.08070355653762817,4.672698974609375,3.5364701747894287,4.749999999999943
-0.9170637130737305,2.043501853942871,3.4981021881103516,4.759999999999943
-0.7558290958404541,-1.5425524711608887,3.576721668243408,4.769999999999943
-0.05359756946563721,-4.162691593170166,3.459718942642212,4.7799999999999425
0.7436449527740479,-3.4860806465148926,2.2217278480529785,4.789999999999942
0.6818262338638306,0.6192560195922852,0.18233466148376465,4.799999999999942
-0.22594785690307617,5.4561262130737305,-1.260622262954712,4.809999999999942
-2.223496437072754,6.857440948486328,-4.242471694946289,4.819999999999942
-5.093544960021973,4.859152793884277,-7.56955099105835,4.8299999999999415
-5.320741176605225,5.479114532470703,-6.673257827758789,4.839999999999941
-3.491300106048584,7.317209243774414,-3.2550899982452393,4.849999999999941
-1.1900850534439087,6.323894500732422,1.566683292388916,4.859999999999941
-1.2651405334472656,1.030055046081543,2.9397292137145996,4.869999999999941
-2.96697998046875,-1.4393301010131836,0.7322816848754883,4.87999999999994
-2.9863240718841553,-3.981990337371826,-0.14296817779541016,4.88999999999994
-2.3216733932495117,-5.579465389251709,-1.3258802890777588,4.89999999999994
-0.7354451417922974,-5.140867233276367,-2.866755962371826,4.90999999999994
0.7934486865997314,-2.6259398460388184,-4.310732841491699,4.9199999999999395
2.3764119148254395,1.2155094146728516,-4.867485046386719,4.929999999999939
3.375847101211548,3.5961132049560547,-4.070703029632568,4.939999999999939
3.327787399291992,4.449363708496094,-2.577171802520752,4.949999999999939
2.234161138534546,3.388577461242676,-1.0528955459594727,4.959999999999939
1.137524127960205,1.0942821502685547,-0.6621236801147461,4.9699999999999385
-0.04509401321411133,-1.312265396118164,-1.5920846462249756,4.979999999999938
-1.2539494037628174,-3.0198616981506348,-2.210869073867798,4.989999999999938
-1.8783819675445557,-3.6207118034362793,-1.963055968284607,4.999999999999938
-2.3042068481445312,-3.5335397720336914,-1.4809198379516602,5.009999999999938
-2.013495445251465,-2.7547526359558105,-1.279418706893921,5.019999999999937
-1.4540059566497803,-1.801753044128418,-1.4878758192062378,5.029999999999937
-0.7321889400482178,-0.9016609191894531,-1.8157345056533813,5.039999999999937
0.03815436363220215,-0.47244930267333984,-1.7034698724746704,5.049999999999937
0.2010650634765625,-0.47071361541748047,-1.793759822845459,5.0599999999999365
-0.005662858486175537,-1.0642004013061523,-2.2115020751953125,5.069999999999936
-0.5784472823143005,-1.5107660293579102,-1.3919845819473267,5.079999999999936
-0.7729267477989197,-2.0571489334106445,-0.5089313983917236,5.089999999999936
-1.024010181427002,-2.0527234077453613,-0.10555201768875122,5.099999999999936
-0.7764662504196167,-1.3210697174072266,0.7204773426055908,5.1099999999999355
-0.012781143188476562,-1.1237125396728516,0.9724178910255432,5.119999999999935
0.5001537203788757,-1.0198402404785156,1.0042916536331177,5.129999999999935
0.521314799785614,-0.8584327697753906,1.3620586395263672,5.139999999999935
0.5111178159713745,-0.8977956771850586,1.532588243484497,5.149999999999935
0.5111076831817627,-0.9749355316162109,1.7543706893920898,5.159999999999934
1.0001745223999023,-1.1114568710327148,1.1438493728637695,5.169999999999934
1.0045520067214966,-0.709111213684082,0.6984823346138,5.179999999999934
0.8081703782081604,0.3536834716796875,0.5388405323028564,5.189999999999934
1.0603818893432617,1.566558837890625,0.9700227975845337,5.199999999999934
1.9359639883041382,2.6465044021606445,1.6231987476348877,5.209999999999933
2.8836417198181152,3.0349912643432617,1.1295661926269531,5.219999999999933
3.7954626083374023,2.5253658294677734,0.40395238995552063,5.229999999999933
4.477789878845215,1.9690799713134766,0.6001039743423462,5.239999999999933
4.277764320373535,1.8608617782592773,1.2594574689865112,5.2499999999999325
3.725083351135254,1.8679876327514648,1.5963417291641235,5.259999999999932
3.006495475769043,2.134842872619629,1.5050088167190552,5.269999999999932
2.253744602203369,3.79910945892334,1.6131784915924072,5.279999999999932
2.2826108932495117,5.6322784423828125,0.6899492740631104,5.289999999999932
2.023437976837158,5.598453521728516,-0.3354746103286743,5.299999999999931
1.7408263683319092,3.838271141052246,-1.4698264598846436,5.309999999999931
1.5227845907211304,2.1853208541870117,-1.9245870113372803,5.319999999999931
1.3602831363677979,1.5789146423339844,-1.9379148483276367,5.329999999999931
0.7299714088439941,2.200429916381836,-2.2389307022094727,5.339999999999931
-0.14304494857788086,3.2138309478759766,-2.0087339878082275,5.34999999999993
-0.4404253363609314,3.5756311416625977,-1.34499192237854,5.35999999999993
-0.5309577584266663,3.6310863494873047,-0.07966506481170654,5.36999999999993
-0.3663049340248108,3.184663772583008,0.7476419806480408,5.37999999999993
-0.5201300978660583,2.948213577270508,1.0265862941741943,5.3899999999999295
-0.997845470905304,3.1503210067749023,0.7899565100669861,5.399999999999929
-1.4745607376098633,3.5089550018310547,0.2826380729675293,5.409999999999929
-1.6676139831542969,3.4661245346069336,0.1709986925125122,5.419999999999929
-1.780849814414978,3.000229835510254,-0.05319225788116455,5.429999999999929
-1.8819756507873535,2.3891515731811523,-0.790815532207489,5.4399999999999284
-2.031996726989746,1.7066631317138672,-1.6077791452407837,5.449999999999928
-1.993850588798523,0.8058757781982422,-2.3150734901428223,5.459999999999928
-2.122119426727295,0.8517293930053711,-2.4955716133117676,5.469999999999928
-0.9972149133682251,-0.6741752624511719,-2.578702688217163,5.479999999999928
-0.2281426191329956,-1.3633193969726562,-2.212185859680176,5.489999999999927
0.35733962059020996,-1.7952651977539062,-1.8995529413223267,5.499999999999927
0.6754496693611145,-2.1070985794067383,-1.7491185665130615,5.509999999999927
0.4816129803657532,-2.2065563201904297,-1.5256764888763428,5.519999999999927
-0.29538512229919434,-2.191348075866699,-1.084547758102417,5.5299999999999265
-0.9141544103622437,-2.2450551986694336,-1.114980697631836,5.539999999999926
-1.7296191453933716,-2.4656624794006348,-1.6538530588150024,5.549999999999926
-2.416994571685791,-3.000520706176758,-2.245022773742676,5.559999999999926
-2.9102671146392822,-3.8248844146728516,-2.46334171295166,5.569999999999926
-2.9105496406555176,-4.752084732055664,-2.377582550048828,5.5799999999999255
-2.6921677589416504,-5.8510026931762695,-2.1962051391601562,5.589999999999925
-2.448395252227783,-6.456460952758789,-2.23095703125,5.599999999999925
-2.0342347621917725,-6.973176002502441,-2.0563461780548096,5.609999999999925
-1.3495655059814453,-7.473299026489258,-1.2099905014038086,5.619999999999925
-0.5498619079589844,-7.391973495483398,-0.32584452629089355,5.629999999999924
0.09206414222717285,-6.594292163848877,-0.15389418601989746,5.639999999999924
0.6736208200454712,-5.481365203857422,-0.24645066261291504,5.649999999999924
0.861319363117218,-4.348171710968018,-0.2393655776977539,5.659999999999924
0.5658585429191589,-2.6362667083740234,0.4037654399871826,5.6699999999999235
0.18913090229034424,-0.7671089172363281,1.5736002922058105,5.679999999999923
0.10511475801467896,1.1906614303588867,2.660440444946289,5.689999999999923
0.5217941999435425,3.020009994506836,3.78606915473938,5.699999999999923
1.3336681127548218,5.020007133483887,3.688950777053833,5.709999999999923
1.9701186418533325,6.673759460449219,3.32539439201355,5.7199999999999225
2.239567756652832,8.262310028076172,3.418665647506714,5.729999999999922
1.7431472539901733,7.830746650695801,4.144024848937988,5.739999999999922
1.0738050937652588,4.791584014892578,4.979830741882324,5.749999999999922
1.068893313407898,0.10245418548583984,5.158206462860107,5.759999999999922
1.2080433368682861,-4.926392078399658,4.3325395584106445,5.769999999999921
0.3847915530204773,-4.826279163360596,2.646775484085083,5.779999999999921
-0.47502952814102173,-1.2719545364379883,-0.041393280029296875,5.789999999999921
-1.8704581260681152,2.4788408279418945,-0.7966959476470947,5.799999999999921
-4.684858322143555,3.9375839233398438,-2.928396463394165,5.809999999999921
-7.319593906402588,3.4089555740356445,-5.379958152770996,5.81999999999992
-6.599386215209961,4.950533866882324,-5.647851467132568,5.82999999999992
-4.438971519470215,7.492877006530762,-3.611539602279663,5.83999999999992
-1.554499864578247,7.840435981750488,1.04941987991333,5.84999999999992
-0.29879915714263916,3.247860908508301,3.8796606063842773,5.8599999999999195
-2.1588683128356934,-1.4941167831420898,1.6463615894317627,5.869999999999919
-3.166982412338257,-3.8873066902160645,-1.2708227634429932,5.879999999999919
-2.6535940170288086,-4.598722457885742,-1.9368380308151245,5.889999999999919
-0.8706167340278625,-4.093120574951172,-2.162625789642334,5.899999999999919
2.5225813388824463,-2.139004707336426,-3.7851040363311768,5.909999999999918
4.6756768226623535,0.3916358947753906,-6.048715591430664,5.919999999999918
4.690996170043945,2.7334041595458984,-7.201644420623779,5.929999999999918
3.2162275314331055,3.890918731689453,-5.975197792053223,5.939999999999918
0.3395766019821167,2.601637840270996,-2.485696792602539,5.949999999999918
-1.6462024450302124,0.541656494140625,0.09639167785644531,5.959999999999917
-3.1601624488830566,-1.7290396690368652,1.344322681427002,5.969999999999917
-3.8106131553649902,-3.193243980407715,1.087407112121582,5.979999999999917
-3.8501534461975098,-3.7250614166259766,0.5358662605285645,5.989999999999917
-3.0766427516937256,-3.087285041809082,-0.10020768642425537,5.9999999999999165
-2.178638458251953,-1.4472112655639648,-1.0163960456848145,6.009999999999916
-1.2203807830810547,-0.23923110961914062,-2.255507469177246,6.019999999999916
0.14593160152435303,0.3645648956298828,-3.369814395904541,6.029999999999916
1.7703454494476318,-0.20042991638183594,-2.7097644805908203,6.039999999999916
2.203033685684204,-1.0524559020996094,-2.0124828815460205,6.0499999999999154
1.794403076171875,-1.590601921081543,-1.5886609554290771,6.059999999999915
1.0506384372711182,-1.908505916595459,-1.4215490818023682,6.069999999999915
0.33172476291656494,-1.6759042739868164,-0.35761401057243347,6.079999999999915
-0.3221616744995117,-1.2975788116455078,0.2029818296432495,6.089999999999915
-0.48713091015815735,-1.053945541381836,0.9678797721862793,6.099999999999914
-0.12668168544769287,-0.698643684387207,1.318572998046875,6.109999999999914
0.3566790521144867,-0.571467399597168,1.6927448511123657,6.119999999999914
0.7557203769683838,-1.052933692932129,1.9895774126052856,6.129999999999914
0.7894410490989685,-1.4053049087524414,2.0912599563598633,6.1399999999999135
0.5676277279853821,-1.2620677947998047,1.0118858814239502,6.149999999999913
0.5261046290397644,-0.5299882888793945,0.7150943279266357,6.159999999999913
0.4904288053512573,0.5126934051513672,1.3603410720825195,6.169999999999913
0.47273603081703186,1.1518526077270508,1.5856413841247559,6.179999999999913
0.9602899551391602,1.3629837036132812,1.4774255752563477,6.1899999999999125
1.8989851474761963,1.4257450103759766,1.3027452230453491,6.199999999999912
3.4134960174560547,1.8111152648925781,0.9929141402244568,6.209999999999912
4.496750354766846,2.303025245666504,0.5708573460578918,6.219999999999912
5.065199851989746,1.9603500366210938,0.056048572063446045,6.229999999999912
4.78249454498291,1.3600492477416992,-0.16248995065689087,6.239999999999911
3.569340467453003,1.4457883834838867,-0.06579232215881348,6.249999999999911
2.538520574569702,2.315898895263672,0.5029868483543396,6.259999999999911
1.7726150751113892,3.948655128479004,1.2692577838897705,6.269999999999911
1.4637422561645508,4.854743957519531,0.29784291982650757,6.2799999999999105
0.5938109159469604,4.3490705490112305,-0.6841773986816406,6.28999999999991
0.02581876516342163,2.759401321411133,-0.7745780944824219,6.29999999999991
-0.27614647150039673,1.3502826690673828,-1.4281134605407715,6.30999999999991
-0.7621773481369019,1.397573471069336,-1.6652522087097168,6.31999999999991
-1.240607738494873,2.062896728515625,-1.2676079273223877,6.3299999999999095
-1.2456412315368652,2.6145925521850586,-0.8007400035858154,6.339999999999909
-1.1044960021972656,2.7610883712768555,-0.33084428310394287,6.349999999999909
-0.7439355850219727,3.0054454803466797,-0.2992147207260132,6.359999999999909
-0.6606530547142029,3.660961151123047,-0.3185116648674011,6.369999999999909
-0.7444396615028381,3.9489669799804688,0.025742530822753906,6.379999999999908
-0.9824271202087402,3.7446470260620117,0.6650111675262451,6.389999999999908
-1.380536437034607,3.1034469604492188,0.6317052841186523,6.399999999999908
-1.7407504320144653,2.3701696395874023,0.02864360809326172,6.409999999999908
-2.0819129943847656,1.6716270446777344,-0.7793947458267212,6.419999999999908
-2.1315484046936035,1.1183090209960938,-1.5213563442230225,6.429999999999907
-1.8577582836151123,0.9207954406738281,-1.8541263341903687,6.439999999999907
-1.3923618793487549,0.6241312026977539,-2.281141757965088,6.449999999999907
-0.5088353753089905,0.3357219696044922,-1.743104100227356,6.459999999999907
-0.7945107221603394,-0.2920722961425781,-1.4991369247436523,6.4699999999999065
-1.0309715270996094,-1.599998950958252,-2.693264961242676,6.479999999999906
-0.9515212774276733,-2.376725196838379,-2.2965903282165527,6.489999999999906
-1.0055769681930542,-2.3228416442871094,-2.444911003112793,6.499999999999906
-1.4438203573226929,-3.083792209625244,-1.0043675899505615,6.509999999999906
-1.6750972270965576,-2.3349156379699707,-0.34169530868530273,6.519999999999905
-2.084620714187622,-2.604074478149414,-1.0555305480957031,6.529999999999905
-1.9269737005233765,-2.019151210784912,-1.7668938636779785,6.539999999999905
-2.3891429901123047,-2.505505084991455,-1.6545865535736084,6.549999999999905
-1.8116199970245361,-3.0652575492858887,-1.638315200805664,6.559999999999905
-1.8489830493927002,-3.95770263671875,-1.9214205741882324,6.569999999999904
-1.0613583326339722,-3.98917818069458,-2.270371913909912,6.579999999999904
-2.3061676025390625,-5.065112590789795,-2.5539731979370117,6.589999999999904
-2.4202046394348145,-6.083230018615723,-2.67946195602417,6.599999999999904
-1.7492122650146484,-6.561307907104492,-1.0405054092407227,6.6099999999999035
-2.206414222717285,-6.685613632202148,-0.379349946975708,6.619999999999903
-1.3641871213912964,-6.1790080070495605,0.05200958251953125,6.629999999999903
-0.6133710145950317,-5.055068492889404,0.42667436599731445,6.639999999999903
-0.3946338891983032,-3.3240842819213867,0.08658719062805176,6.649999999999903
-0.2772960066795349,-1.571852207183838,0.21634817123413086,6.659999999999902
-0.343629390001297,0.5094118118286133,0.608074426651001,6.669999999999902
-0.12986290454864502,2.1309595108032227,0.6673436164855957,6.679999999999902
0.9454813599586487,3.737980842590332,1.3980896472930908,6.689999999999902
2.208707809448242,5.382658958435059,1.910618782043457,6.699999999999902
3.3893375396728516,6.986055374145508,3.503525733947754,6.709999999999901
3.594390869140625,7.251351356506348,4.925648212432861,6.719999999999901
2.392943859100342,4.539031028747559,5.133918762207031,6.729999999999901
0.9072394371032715,1.5162763595581055,5.050289154052734,6.739999999999901
-0.30962198972702026,-1.290492057800293,4.134225368499756,6.7499999999999005
-0.056991517543792725,-2.50248384475708,1.9615859985351562,6.7599999999999
-0.8391985297203064,-1.8272738456726074,-0.2808976173400879,6.7699999999999
-2.225728988647461,-0.34038352966308594,-0.776482105255127,6.7799999999999
-2.230787992477417,-0.3232698440551758,-0.8244221210479736,6.7899999999999
-2.460752248764038,1.6547317504882812,-2.9313559532165527,6.7999999999998995
-3.6815974712371826,3.9228639602661133,-5.201918601989746,6.809999999999899
-4.608304023742676,6.795082092285156,-5.425394058227539,6.819999999999899
-2.588470935821533,8.036264419555664,-0.7827050685882568,6.829999999999899
-0.6039008498191833,6.996161460876465,5.143817901611328,6.839999999999899
-0.1127660870552063,3.4795713424682617,3.711071729660034,6.849999999999898
-0.1334984302520752,0.1588459014892578,1.094440221786499,6.859999999999898
0.09199970960617065,-2.1267642974853516,-2.087768793106079,6.869999999999898
-0.08027011156082153,-3.3329601287841797,-5.4614715576171875,6.879999999999898
-0.13009881973266602,-3.354991912841797,-5.383922576904297,6.8899999999998975
0.19767773151397705,-2.450606346130371,-6.517579078674316,6.899999999999897
0.9088370203971863,0.5500011444091797,-4.528046607971191,6.909999999999897
1.180335521697998,2.3266210556030273,-2.7567365169525146,6.919999999999897
-0.5375491976737976,2.9208011627197266,-0.8621100187301636,6.929999999999897
-2.3785994052886963,2.9676074981689453,0.48485779762268066,6.9399999999998965
-2.5836009979248047,2.3374128341674805,0.5194165706634521,6.949999999999896
-3.0141191482543945,-0.02883625030517578,-0.4649728536605835,6.959999999999896
-2.7667720317840576,-3.792283535003662,-0.9766690731048584,6.969999999999896
-0.8496125340461731,-3.113536834716797,-1.8681265115737915,6.979999999999896
-0.22737449407577515,-1.5336027145385742,-1.764150857925415,6.989999999999895
-0.2311609983444214,-1.5558576583862305,-1.6583284139633179,6.999999999999895
0.773948609828949,-0.28537654876708984,-1.6796702146530151,7.009999999999895
1.2427470684051514,-0.450225830078125,-1.8931418657302856,7.019999999999895
0.6582722663879395,-0.7645101547241211,-2.087536334991455,7.0299999999998946
0.630288302898407,-0.43758678436279297,-1.5607876777648926,7.039999999999894
0.6545453667640686,-0.45313072204589844,-1.4735214710235596,7.049999999999894
0.4123889207839966,-0.721435546875,-0.4481578469276428,7.059999999999894
1.0587186813354492,-0.6532649993896484,-0.3587830066680908,7.069999999999894
0.8358840942382812,-1.1010417938232422,-0.889406681060791,7.0799999999998935
-0.4021495580673218,-1.4960126876831055,-0.622016191482544,7.089999999999893
-0.3286110460758209,-1.5066356658935547,0.2249990701675415,7.099999999999893
-0.4227590262889862,-0.9414596557617188,0.2596414089202881,7.109999999999893
0.5839778780937195,-0.8766183853149414,-1.2130581140518188,7.119999999999893
1.9695861339569092,0.25613880157470703,-0.837231457233429,7.129999999999892
-1.2233120203018188,-0.2667970657348633,-0.7270382046699524,7.139999999999892
-0.7577292919158936,-1.6369953155517578,-0.01304924488067627,7.149999999999892
-0.6921696662902832,-1.5932207107543945,0.7683220505714417,7.159999999999892
-0.19030746817588806,-0.4875507354736328,0.8884299993515015,7.169999999999892
-0.1352165788412094,-0.4917917251586914,0.9546960592269897,7.179999999999891
-0.5463795065879822,-0.5957612991333008,0.9015617370605469,7.189999999999891
-0.7656869292259216,-1.5968074798583984,0.9060519933700562,7.199999999999891
-0.2294377088546753,-1.550760269165039,0.583098292350769,7.209999999999891
0.5423957705497742,-0.7856416702270508,0.4279620051383972,7.2199999999998905
1.311492681503296,0.20055484771728516,0.08965052664279938,7.22999999999989
2.4849812984466553,0.7733983993530273,-0.6443232893943787,7.23999999999989
2.2478272914886475,0.8131656646728516,-1.389104962348938,7.24999999999989
2.271183729171753,0.3243446350097656,-1.738817572593689,7.25999999999989
1.7567036151885986,0.046131134033203125,-1.3868176937103271,7.269999999999889
1.176816463470459,0.9384431838989258,-1.0200748443603516,7.279999999999889
0.6264781355857849,2.436281204223633,-0.31994354724884033,7.289999999999889
0.052857160568237305,3.6731176376342773,0.4571152329444885,7.299999999999889
-0.20764893293380737,3.5284128189086914,0.3073677122592926,7.309999999999889
-0.30627042055130005,2.4092254638671875,0.16868051886558533,7.319999999999888
-0.4429017901420593,1.6564950942993164,0.1691020280122757,7.329999999999888
-0.147910475730896,1.2774791717529297,0.5331271886825562,7.339999999999888
1.068252682685852,1.1768083572387695,0.5748224258422852,7.349999999999888
1.7817589044570923,1.565791130065918,0.10776525735855103,7.3599999999998875
1.7859487533569336,1.5712194442749023,-0.002474963665008545,7.369999999999887
1.1547391414642334,1.8417282104492188,-1.5693390369415283,7.379999999999887
0.9733438491821289,1.9028100967407227,-2.91373872756958,7.389999999999887
0.263042151927948,2.029977798461914,-3.026427745819092,7.399999999999887
-0.5501599311828613,2.0023393630981445,-1.8218045234680176,7.4099999999998865
-0.7557238340377808,1.5339202880859375,-0.14762663841247559,7.419999999999886
-0.9460891485214233,1.1797313690185547,0.8670926094055176,7.429999999999886
-1.7433830499649048,1.169112205505371,1.9126392602920532,7.439999999999886
-2.5489156246185303,0.565007209777832,1.6500227451324463,7.449999999999886
-2.789858341217041,-0.3554830551147461,0.6599400043487549,7.459999999999885
-2.397676706314087,-1.0214958190917969,-0.6385887861251831,7.469999999999885
-1.0198194980621338,-0.7858810424804688,-1.905496597290039,7.479999999999885
0.025037109851837158,0.18185806274414062,-2.3213539123535156,7.489999999999885
-0.23840609192848206,1.2533845901489258,-2.7614243030548096,7.4999999999998845
-0.46189188957214355,1.2089757919311523,-3.313009023666382,7.509999999999884
-0.9412627220153809,0.6214199066162109,-3.0517380237579346,7.519999999999884
-1.6083793640136719,-0.3864431381225586,-2.2219412326812744,7.529999999999884
-1.5006380081176758,-1.125411033630371,-1.5474263429641724,7.539999999999884
-1.9323158264160156,-1.3346710205078125,-1.1478716135025024,7.5499999999998835
-1.483758568763733,-1.2488727569580078,-0.927908182144165,7.559999999999883
-1.468644142150879,-0.6363983154296875,-1.263933539390564,7.569999999999883
-1.7070130109786987,-0.1659708023071289,-1.153414011001587,7.579999999999883
-0.8161342740058899,-0.20871925354003906,-1.3866137266159058,7.589999999999883
-1.7280820608139038,0.285858154296875,-2.421168327331543,7.599999999999882
-2.536409616470337,0.2069416046142578,-2.270247459411621,7.609999999999882
-2.960831642150879,-0.08031368255615234,-1.5515025854110718,7.619999999999882
-4.156194686889648,0.082275390625,-0.8512165546417236,7.629999999999882
-3.2132813930511475,-0.25098514556884766,-0.7632451057434082,7.6399999999998816
-2.223001718521118,-0.6171054840087891,-0.8763692378997803,7.649999999999881
-1.4556087255477905,-1.3335084915161133,-1.2597849369049072,7.659999999999881
-2.2362797260284424,-1.2519731521606445,-1.102534532546997,7.669999999999881
-2.0423178672790527,-0.7039775848388672,-0.5901789665222168,7.679999999999881
-0.5785676836967468,-0.8837680816650391,-1.1678556203842163,7.6899999999998805
-0.9223386645317078,-0.4686574935913086,-1.2172390222549438,7.69999999999988
-0.11183401942253113,0.08819103240966797,-0.6245708465576172,7.70999999999988
-0.48758500814437866,0.620152473449707,0.2680537700653076,7.71999999999988
0.35071489214897156,0.2686119079589844,1.3639860153198242,7.72999999999988
1.148036003112793,0.011158943176269531,1.9669809341430664,7.739999999999879
0.8061637878417969,0.1556406021118164,1.5918216705322266,7.749999999999879
0.9429565668106079,-0.02745532989501953,0.7705750465393066,7.759999999999879
0.2296636998653412,-0.050777435302734375,-0.1658799648284912,7.769999999999879
-0.37617191672325134,0.41040611267089844,-0.759833812713623,7.779999999999879
-0.18942499160766602,-0.3964977264404297,-0.21251797676086426,7.789999999999878
-1.1669172048568726,-1.0968570709228516,0.2732400894165039,7.799999999999878
-1.9324809312820435,-1.534651756286621,-0.13788390159606934,7.809999999999878
-2.314548969268799,-0.9551296234130859,-0.8237591981887817,7.819999999999878
-1.3268219232559204,-0.28419017791748047,-1.0866622924804688,7.8299999999998775
-0.7257287502288818,0.2626991271972656,-0.8305059671401978,7.839999999999877
-0.3472890853881836,1.0692825317382812,-0.8366121053695679,7.849999999999877
-0.2313317060470581,1.2708015441894531,-0.4175889492034912,7.859999999999877
0.38849061727523804,0.9819736480712891,-0.42369139194488525,7.869999999999877
-0.8608916997909546,0.9938144683837891,-0.44198501110076904,7.879999999999876
-1.1166203022003174,0.1789226531982422,0.29857587814331055,7.889999999999876
-1.1194424629211426,0.4818572998046875,0.66672682762146,7.899999999999876
-0.45270949602127075,1.2974443435668945,-0.32909536361694336,7.909999999999876
-0.01884925365447998,2.4318313598632812,-1.3387444019317627,7.919999999999876
-0.4130213260650635,2.5859861373901367,-0.2533828020095825,7.929999999999875
-0.2603728771209717,1.4805526733398438,0.09307336807250977,7.939999999999875
-0.7787744402885437,-0.22658157348632812,-0.06566476821899414,7.949999999999875
-1.3784949779510498,-1.2742643356323242,-0.556350588798523,7.959999999999875
-2.0179049968719482,-2.90419340133667,-1.9028632640838623,7.9699999999998745
-1.7889080047607422,-0.5039348602294922,-0.6826133728027344,7.979999999999874
1.5150747299194336,0.5633611679077148,-1.3197739124298096,7.989999999999874
