AccX,AccY,AccZ,SampleRate
-0.27617692947387695,6.242162704467773,-7.370701313018799,0
-0.16170668601989746,7.3907880783081055,-6.767179489135742,0.01
-0.10619688034057617,8.359479904174805,-6.540449619293213,0.02
0.1494234800338745,8.815463066101074,-6.659676551818848,0.03
0.1768627166748047,8.792095184326172,-6.724038124084473,0.04
0.1576477289199829,8.445878982543945,-6.935914039611816,0.05
0.5735217332839966,7.512485504150391,-7.343395233154297,0.060000000000000005
1.3448572158813477,6.4560770988464355,-7.704225540161133,0.07
1.9983738660812378,5.142731666564941,-7.401449680328369,0.08
2.5652997493743896,3.804060459136963,-6.885095596313477,0.09
2.6935362815856934,2.7451634407043457,-6.62631368637085,0.09999999999999999
2.3279216289520264,2.066289186477661,-6.497029781341553,0.10999999999999999
1.8727930784225464,1.9864282608032227,-6.6667304039001465,0.11999999999999998
1.5791938304901123,2.3502354621887207,-6.89121150970459,0.12999999999999998
1.298540711402893,2.9552228450775146,-7.250802993774414,0.13999999999999999
1.0560792684555054,3.2383224964141846,-7.784964561462402,0.15
0.9032571315765381,3.0412142276763916,-8.386466979980469,0.16
0.9890193939208984,2.35313081741333,-8.36668586730957,0.17
1.0428602695465088,1.5110669136047363,-7.526122093200684,0.18000000000000002
0.9732170104980469,0.8445587158203125,-6.585921287536621,0.19000000000000003
1.1279748678207397,0.07406282424926758,-5.573190689086914,0.20000000000000004
1.7622358798980713,-0.14010143280029297,-5.2283101081848145,0.21000000000000005
2.2423038482666016,0.43497395515441895,-5.1695098876953125,0.22000000000000006
2.7873430252075195,1.2314832210540771,-4.909178733825684,0.23000000000000007
3.616300582885742,2.4453659057617188,-4.830425262451172,0.24000000000000007
4.2360005378723145,3.797844648361206,-4.751938819885254,0.25000000000000006
4.744569301605225,5.744151592254639,-4.000168800354004,0.26000000000000006
4.645302772521973,7.869019031524658,-2.767594814300537,0.2700000000000001
4.900117874145508,10.005298614501953,-2.100881576538086,0.2800000000000001
5.432206153869629,11.396354675292969,-1.7950243949890137,0.2900000000000001
5.646729469299316,11.731599807739258,-1.515388011932373,0.3000000000000001
5.210320949554443,11.79832935333252,-1.3767509460449219,0.3100000000000001
4.1104607582092285,11.428964614868164,-1.3768677711486816,0.3200000000000001
3.1126461029052734,9.79431438446045,-1.5136609077453613,0.3300000000000001
2.6910629272460938,6.732779502868652,-1.216658115386963,0.34000000000000014
3.584534168243408,3.511185884475708,-1.3951973915100098,0.35000000000000014
4.593946933746338,0.9643888473510742,-2.216367244720459,0.36000000000000015
4.418516159057617,1.211162805557251,-2.989832878112793,0.37000000000000016
4.325249671936035,4.067842483520508,-3.735280990600586,0.38000000000000017
3.7785637378692627,7.578348159790039,-4.46173620223999,0.3900000000000002
1.340846300125122,9.600471496582031,-5.732806205749512,0.4000000000000002
-2.098083019256592,9.16939926147461,-8.450623512268066,0.4100000000000002
-3.280134677886963,9.145187377929688,-11.194255828857422,0.4200000000000002
-2.4862539768218994,10.401896476745605,-10.552982330322266,0.4300000000000002
-0.7006349563598633,11.909626960754395,-7.19492769241333,0.4400000000000002
1.5038915872573853,11.152759552001953,-3.4517011642456055,0.45000000000000023
2.2671947479248047,6.997006416320801,-3.396237850189209,0.46000000000000024
2.082993507385254,3.366856336593628,-5.364408493041992,0.47000000000000025
1.7569308280944824,0.6546230316162109,-7.400262832641602,0.48000000000000026
1.7776877880096436,0.5775430202484131,-8.839312553405762,0.49000000000000027
2.4002814292907715,2.353285789489746,-8.98830509185791,0.5000000000000002
4.057353973388672,5.179222106933594,-8.800816535949707,0.5100000000000002
6.216423988342285,7.351859092712402,-9.578510284423828,0.5200000000000002
6.54620885848999,7.9534125328063965,-10.88079833984375,0.5300000000000002
4.192651748657227,6.931869983673096,-10.708353996276855,0.5400000000000003
2.0898022651672363,5.430066108703613,-8.535850524902344,0.5500000000000003
0.5774813890457153,3.386240005493164,-6.0533037185668945,0.5600000000000003
-0.01891779899597168,1.6960411071777344,-4.9746413230896,0.5700000000000003
-0.07102274894714355,0.9395871162414551,-5.819455146789551,0.5800000000000003
0.09549760818481445,1.168410301208496,-7.381369113922119,0.5900000000000003
0.7411860823631287,2.401998996734619,-8.775693893432617,0.6000000000000003
1.4305846691131592,3.7608132362365723,-9.198140144348145,0.6100000000000003
2.238956928253174,4.865995407104492,-9.396909713745117,0.6200000000000003
3.0277559757232666,4.956798553466797,-9.238931655883789,0.6300000000000003
3.459321975708008,3.859231948852539,-8.717662811279297,0.6400000000000003
3.349433422088623,2.5547261238098145,-7.749982833862305,0.6500000000000004
2.6484007835388184,1.3516592979431152,-7.95474100112915,0.6600000000000004
2.098450183868408,0.7782435417175293,-8.542856216430664,0.6700000000000004
1.6621379852294922,0.9440279006958008,-8.206417083740234,0.6800000000000004
1.423732876777649,1.890367031097412,-7.6532087326049805,0.6900000000000004
0.9671344757080078,3.1502604484558105,-7.129449844360352,0.7000000000000004
0.6179115772247314,3.378129005432129,-6.680061340332031,0.7100000000000004
0.5623553991317749,2.461667060852051,-6.778829097747803,0.7200000000000004
0.5835288763046265,1.7105169296264648,-6.897617816925049,0.7300000000000004
0.6728863716125488,1.570326328277588,-6.761073112487793,0.7400000000000004
0.7952702641487122,1.9283027648925781,-6.054100036621094,0.7500000000000004
1.8079771995544434,2.368144989013672,-4.970733165740967,0.7600000000000005
2.952805995941162,2.9321231842041016,-5.4016499519348145,0.7700000000000005
3.1687607765197754,3.6989283561706543,-6.505451202392578,0.7800000000000005
2.7907748222351074,4.139895439147949,-6.648245811462402,0.7900000000000005
1.9806426763534546,4.3400654792785645,-5.85659122467041,0.8000000000000005
1.8840235471725464,4.31655216217041,-5.7065205574035645,0.8100000000000005
2.629026174545288,4.566620826721191,-6.357399940490723,0.8200000000000005
3.8018712997436523,5.315561771392822,-7.185905933380127,0.8300000000000005
5.145127296447754,6.258404731750488,-7.621238708496094,0.8400000000000005
5.514916896820068,6.415815353393555,-7.2551751136779785,0.8500000000000005
4.634324550628662,5.814691066741943,-6.713282108306885,0.8600000000000005
3.54870867729187,5.1772871017456055,-6.313143253326416,0.8700000000000006
2.9880285263061523,5.31370210647583,-5.934871673583984,0.8800000000000006
2.5253772735595703,6.886324405670166,-6.051137447357178,0.8900000000000006
2.234495162963867,9.000418663024902,-6.420015811920166,0.9000000000000006
1.9281495809555054,8.750794410705566,-6.317745685577393,0.9100000000000006
1.7015502452850342,6.371747970581055,-7.313873291015625,0.9200000000000006
1.3281724452972412,4.464207649230957,-8.613826751708984,0.9300000000000006
1.2331424951553345,4.442661285400391,-9.308984756469727,0.9400000000000006
1.0304057598114014,5.142073631286621,-9.36361312866211,0.9500000000000006
0.8594608902931213,5.63553524017334,-9.134515762329102,0.9600000000000006
0.588839054107666,5.513668060302734,-8.534513473510742,0.9700000000000006
0.42248058319091797,5.0583038330078125,-7.098278522491455,0.9800000000000006
1.004637598991394,5.137740135192871,-5.522677421569824,0.9900000000000007
1.8217265605926514,6.287144660949707,-5.0602569580078125,1.0000000000000007
1.9917688369750977,7.962635517120361,-5.358480453491211,1.0100000000000007
1.2055543661117554,9.093990325927734,-6.289484977722168,1.0200000000000007
0.43005943298339844,9.130032539367676,-6.915375709533691,1.0300000000000007
-0.5955643653869629,8.441324234008789,-7.297568321228027,1.0400000000000007
-1.615390419960022,7.4982733726501465,-7.741876602172852,1.0500000000000007
-2.5994839668273926,6.727600574493408,-8.30116081237793,1.0600000000000007
-2.933563709259033,6.03017520904541,-8.622180938720703,1.0700000000000007
-2.6743268966674805,5.294284820556641,-8.629658699035645,1.0800000000000007
-1.8935997486114502,4.698615074157715,-8.251873016357422,1.0900000000000007
-0.784643292427063,3.9809341430664062,-7.932528018951416,1.1000000000000008
0.4332123398780823,3.3489489555358887,-7.6883544921875,1.1100000000000008
1.6166448593139648,2.789168357849121,-7.784456253051758,1.1200000000000008
2.4577016830444336,2.4171342849731445,-7.992251873016357,1.1300000000000008
3.0799756050109863,1.8085453510284424,-8.189905166625977,1.1400000000000008
2.849379777908325,1.462357759475708,-8.060782432556152,1.1500000000000008
2.4726083278656006,1.095393180847168,-7.820741653442383,1.1600000000000008
1.9646997451782227,0.7557101249694824,-7.60824728012085,1.1700000000000008
1.2173678874969482,0.47284865379333496,-8.056577682495117,1.1800000000000008
0.5163179636001587,0.28647470474243164,-8.942157745361328,1.1900000000000008
0.1649303436279297,-0.15953993797302246,-9.126341819763184,1.2000000000000008
0.26168131828308105,-0.775076150894165,-8.861133575439453,1.2100000000000009
0.35584092140197754,-1.3479220867156982,-7.943615436553955,1.2200000000000009
0.4771733283996582,-1.5466951131820679,-6.753033638000488,1.2300000000000009
0.8729425668716431,-1.3672120571136475,-5.47662353515625,1.2400000000000009
1.4666117429733276,-0.6159834861755371,-4.389977931976318,1.2500000000000009
2.2189877033233643,0.5412864685058594,-3.3311567306518555,1.260000000000001
2.994378089904785,1.7902119159698486,-3.245731830596924,1.270000000000001
3.7614336013793945,4.212787628173828,-4.0040974617004395,1.280000000000001
4.11113166809082,7.208551406860352,-4.194370269775391,1.290000000000001
3.8873586654663086,9.756287574768066,-3.342287540435791,1.300000000000001
3.892040252685547,11.338247299194336,-1.6100378036499023,1.310000000000001
4.746047019958496,11.767219543457031,-0.5905847549438477,1.320000000000001
4.792305946350098,11.911735534667969,-1.2370357513427734,1.330000000000001
4.167424201965332,11.519054412841797,-2.3119678497314453,1.340000000000001
3.4716429710388184,9.698232650756836,-2.1523923873901367,1.350000000000001
3.69559645652771,6.590930938720703,-0.9533824920654297,1.360000000000001
4.538209915161133,2.6362667083740234,-0.08691024780273438,1.370000000000001
5.032964706420898,-0.6971845626831055,-1.2687320709228516,1.380000000000001
4.5935235023498535,0.7753314971923828,-3.452192783355713,1.390000000000001
3.5603370666503906,5.43670129776001,-5.547560691833496,1.400000000000001
1.6032476425170898,10.690970420837402,-6.293522357940674,1.410000000000001
-1.789933204650879,12.761717796325684,-8.918241500854492,1.420000000000001
-3.043999433517456,11.502104759216309,-12.32003402709961,1.430000000000001
-1.7898938655853271,12.971626281738281,-10.717131614685059,1.440000000000001
-0.41766977310180664,13.475282669067383,-7.785516738891602,1.450000000000001
1.5629429817199707,9.855173110961914,-4.377830982208252,1.460000000000001
0.6153995990753174,3.1206231117248535,-3.0726284980773926,1.470000000000001
-0.5085921287536621,-0.4166574478149414,-4.808197021484375,1.480000000000001
-0.8147656917572021,-0.5821924209594727,-6.490706443786621,1.490000000000001
0.5927368402481079,0.5529756546020508,-6.021121025085449,1.500000000000001
3.0825328826904297,2.995790719985962,-6.805331230163574,1.5100000000000011
6.011892795562744,6.529339790344238,-9.21118450164795,1.5200000000000011
6.680113315582275,9.35483169555664,-10.7787504196167,1.5300000000000011
5.233057975769043,10.12462329864502,-9.879555702209473,1.5400000000000011
3.356377124786377,8.323785781860352,-7.152143478393555,1.5500000000000012
1.9331271648406982,4.891660213470459,-5.493598937988281,1.5600000000000012
1.0796945095062256,2.4808788299560547,-5.579233169555664,1.5700000000000012
0.5905014872550964,0.7802481651306152,-6.227688789367676,1.5800000000000012
0.3770827054977417,0.538398265838623,-7.156737327575684,1.5900000000000012
0.7600550651550293,1.377403736114502,-8.13598918914795,1.6000000000000012
1.7340154647827148,2.821457862854004,-8.902450561523438,1.6100000000000012
2.9834144115448,4.203003406524658,-9.014301300048828,1.6200000000000012
3.5968990325927734,4.628993988037109,-8.73788833618164,1.6300000000000012
3.7184457778930664,4.280630111694336,-8.45488452911377,1.6400000000000012
3.271576404571533,3.077563762664795,-8.147310256958008,1.6500000000000012
2.1743433475494385,2.14382266998291,-7.706325054168701,1.6600000000000013
1.0763821601867676,1.2475690841674805,-8.429399490356445,1.6700000000000013
0.0034331083297729492,0.847358226776123,-8.517087936401367,1.6800000000000013
-0.4352197051048279,0.6982440948486328,-7.380465030670166,1.6900000000000013
-0.5533565282821655,0.8771209716796875,-6.845940113067627,1.7000000000000013
-0.338864803314209,1.1774630546569824,-6.015449523925781,1.7100000000000013
0.21895712614059448,1.4183111190795898,-6.2594428062438965,1.7200000000000013
0.7499741315841675,1.693955898284912,-6.625174522399902,1.7300000000000013
1.4065330028533936,2.0670671463012695,-6.579822063446045,1.7400000000000013
1.989290475845337,2.043435573577881,-6.088193416595459,1.7500000000000013
2.644465208053589,1.917745590209961,-5.436387062072754,1.7600000000000013
2.803957939147949,2.1554994583129883,-5.134865760803223,1.7700000000000014
2.5165929794311523,2.4073686599731445,-5.41677713394165,1.7800000000000014
2.0097625255584717,2.1140265464782715,-6.101574420928955,1.7900000000000014
1.2599257230758667,2.5168838500976562,-5.486496448516846,1.8000000000000014
1.142722725868225,3.5964818000793457,-4.544862747192383,1.8100000000000014
2.197620391845703,4.795952320098877,-4.775047302246094,1.8200000000000014
3.482473373413086,5.69685173034668,-5.936968803405762,1.8300000000000014
4.961960315704346,6.335021018981934,-6.907809734344482,1.8400000000000014
5.9901323318481445,6.222597122192383,-6.624504089355469,1.8500000000000014
5.490067958831787,5.246991157531738,-5.751108646392822,1.8600000000000014
4.57302188873291,4.6840386390686035,-5.225269317626953,1.8700000000000014
3.722571849822998,4.890573024749756,-5.388967990875244,1.8800000000000014
2.8957858085632324,6.213409423828125,-5.565978527069092,1.8900000000000015
2.789285898208618,8.166667938232422,-6.159226417541504,1.9000000000000015
2.714297294616699,8.196279525756836,-6.400997161865234,1.9100000000000015
2.041750431060791,5.8356451988220215,-7.556471347808838,1.9200000000000015
0.9953519105911255,4.276514530181885,-8.402447700500488,1.9300000000000015
0.16660869121551514,3.887979030609131,-8.496514320373535,1.9400000000000015
0.044122934341430664,4.514410972595215,-8.492487907409668,1.9500000000000015
0.24026381969451904,5.4937543869018555,-8.735077857971191,1.9600000000000015
0.4715732932090759,6.156280517578125,-8.157776832580566,1.9700000000000015
0.8967271447181702,6.6221466064453125,-6.592835903167725,1.9800000000000015
1.2739169597625732,7.25940465927124,-5.664290428161621,1.9900000000000015
1.0575751066207886,7.880115509033203,-5.578848361968994,2.0000000000000013
0.005520343780517578,8.292734146118164,-6.369969367980957,2.010000000000001
-0.7262610197067261,8.204065322875977,-6.867654800415039,2.020000000000001
-1.164162516593933,7.834591865539551,-6.759838104248047,2.0300000000000007
-1.5415196418762207,6.941650867462158,-6.240833282470703,2.0400000000000005
-1.5945696830749512,7.077613353729248,-6.350005149841309,2.0500000000000003
-2.0131239891052246,5.228944778442383,-7.085461139678955,2.06
-1.878576397895813,4.492777347564697,-7.938710689544678,2.07
-1.2166794538497925,3.619629383087158,-8.420477867126465,2.0799999999999996
-0.6001023054122925,2.9385342597961426,-8.198359489440918,2.0899999999999994
0.22704333066940308,2.3984251022338867,-8.373615264892578,2.099999999999999
1.0191152095794678,1.9916887283325195,-8.464608192443848,2.109999999999999
1.7059085369110107,1.5838208198547363,-8.566539764404297,2.1199999999999988
1.8394393920898438,1.4787354469299316,-8.423212051391602,2.1299999999999986
1.6085410118103027,1.5801382064819336,-8.133662223815918,2.1399999999999983
0.9343477487564087,1.6749587059020996,-7.422946929931641,2.149999999999998
0.29512763023376465,1.4057908058166504,-7.123650074005127,2.159999999999998
0.03428471088409424,1.0560379028320312,-6.869750022888184,2.1699999999999977
-0.3439464569091797,0.4455232620239258,-6.960258483886719,2.1799999999999975
-0.5903095006942749,-0.05321860313415527,-7.3529839515686035,2.1899999999999973
-0.5049763917922974,-0.38185977935791016,-7.991153717041016,2.199999999999997
-0.3120436668395996,-0.5686740875244141,-8.054399490356445,2.209999999999997
0.2585599422454834,-0.9303700923919678,-7.572834491729736,2.2199999999999966
0.5626847743988037,-1.2366387844085693,-6.745979309082031,2.2299999999999964
0.8225119113922119,-1.429187536239624,-5.431385040283203,2.239999999999996
1.2799766063690186,-1.280808448791504,-4.18031644821167,2.249999999999996
1.8277208805084229,-0.8060917854309082,-3.6404571533203125,2.259999999999996
2.3821921348571777,0.03887176513671875,-4.082132816314697,2.2699999999999956
2.6739301681518555,1.781043529510498,-4.636908054351807,2.2799999999999954
2.6874008178710938,3.5068273544311523,-4.532307147979736,2.289999999999995
2.627685070037842,5.589841842651367,-3.8471436500549316,2.299999999999995
2.999464511871338,7.805346965789795,-3.5356712341308594,2.3099999999999947
3.8008980751037598,9.83149528503418,-2.5500216484069824,2.3199999999999945
5.158405303955078,11.170146942138672,-0.7894139289855957,2.3299999999999943
5.914034843444824,12.101491928100586,0.9389066696166992,2.339999999999994
5.123181343078613,12.424154281616211,1.5709495544433594,2.349999999999994
3.975694417953491,10.471761703491211,1.1433935165405273,2.3599999999999937
3.9049155712127686,6.0959014892578125,0.6747407913208008,2.3699999999999934
4.146324157714844,1.676602840423584,-0.022360801696777344,2.3799999999999932
4.485044956207275,0.6566567420959473,-2.1989645957946777,2.389999999999993
3.499530792236328,4.430367946624756,-5.491601467132568,2.399999999999993
2.1745057106018066,8.000137329101562,-6.368021011352539,2.4099999999999926
-0.50461745262146,9.678804397583008,-7.871109485626221,2.4199999999999924
-2.965149164199829,8.45145034790039,-10.380293846130371,2.429999999999992
-2.9001758098602295,9.635375022888184,-10.334798812866211,2.439999999999992
-1.443784236907959,11.074841499328613,-7.964807033538818,2.4499999999999917
1.4274182319641113,9.4439697265625,-3.6438441276550293,2.4599999999999915
1.8321619033813477,4.942299842834473,-0.8756070137023926,2.4699999999999913
0.48317110538482666,0.39484596252441406,-2.222973346710205,2.479999999999991
-0.3300623893737793,-0.6905548572540283,-5.124406337738037,2.489999999999991
-0.06077384948730469,-0.6867561340332031,-5.653862476348877,2.4999999999999907
1.7284014225006104,0.6882548332214355,-6.060535430908203,2.5099999999999905
5.1344733238220215,4.745397090911865,-9.117783546447754,2.5199999999999902
6.703632831573486,8.764114379882812,-10.704302787780762,2.52999999999999
6.742523193359375,10.607891082763672,-10.627074241638184,2.53999999999999
4.895498752593994,9.29472541809082,-8.674100875854492,2.5499999999999896
2.7073943614959717,6.0705246925354,-6.3894171714782715,2.5599999999999894
0.9672518968582153,2.666027545928955,-5.3760986328125,2.569999999999989
-0.35993027687072754,0.06045055389404297,-5.521121978759766,2.579999999999989
-0.7244902849197388,-0.7696113586425781,-6.328118801116943,2.5899999999999888
-0.7571035623550415,-0.3174877166748047,-7.315919876098633,2.5999999999999885
-0.3970252275466919,1.3729448318481445,-8.40137004852295,2.6099999999999883
0.4560442566871643,3.264584541320801,-8.573864936828613,2.619999999999988
1.4940736293792725,4.308023452758789,-8.317399024963379,2.629999999999988
2.259716033935547,3.9710144996643066,-7.981959342956543,2.6399999999999877
2.3158950805664062,2.983333110809326,-7.6676201820373535,2.6499999999999875
1.9704432487487793,1.6152300834655762,-7.0596022605896,2.6599999999999873
1.127589464187622,0.7773275375366211,-7.518158435821533,2.669999999999987
0.4425610899925232,0.1781625747680664,-8.265710830688477,2.679999999999987
0.27413469552993774,0.2785511016845703,-7.342864036560059,2.6899999999999866
0.46790584921836853,0.5636196136474609,-6.723433971405029,2.6999999999999864
0.5900055766105652,0.5670418739318848,-6.254195213317871,2.709999999999986
0.8236386775970459,0.3228883743286133,-6.417961120605469,2.719999999999986
1.3027002811431885,0.12378883361816406,-6.332188129425049,2.7299999999999858
1.548356294631958,0.5897936820983887,-6.166127681732178,2.7399999999999856
1.6371750831604004,1.1695585250854492,-6.026375770568848,2.7499999999999853
2.0557243824005127,0.9789414405822754,-5.98539400100708,2.759999999999985
2.175875186920166,0.7667312622070312,-5.761755466461182,2.769999999999985
1.9749364852905273,1.4424686431884766,-5.050097465515137,2.7799999999999847
1.766039490699768,2.416383743286133,-4.58152961730957,2.7899999999999845
1.507524847984314,2.9373083114624023,-4.910841941833496,2.7999999999999843
1.5806301832199097,2.9392528533935547,-5.445290565490723,2.809999999999984
2.2536091804504395,3.1258392333984375,-6.0622735023498535,2.819999999999984
2.98030948638916,3.7326607704162598,-6.572020053863525,2.8299999999999836
3.966834545135498,4.567121505737305,-6.884622573852539,2.8399999999999834
4.486522674560547,5.159219741821289,-6.017238616943359,2.849999999999983
4.417332649230957,4.75432825088501,-5.513509273529053,2.859999999999983
4.3539628982543945,4.284286975860596,-5.617945194244385,2.869999999999983
3.886138439178467,5.700849533081055,-5.028829574584961,2.8799999999999826
3.294126033782959,7.514170169830322,-4.553595066070557,2.8899999999999824
2.8864121437072754,8.78118896484375,-4.402399063110352,2.899999999999982
3.0131688117980957,7.895129680633545,-5.923198699951172,2.909999999999982
2.4308674335479736,6.303864479064941,-7.203481674194336,2.9199999999999817
1.933264970779419,5.250327110290527,-6.9980645179748535,2.9299999999999815
1.7021857500076294,4.801749229431152,-7.452190399169922,2.9399999999999813
1.3940924406051636,4.818980693817139,-8.127951622009277,2.949999999999981
0.7438486814498901,4.621793270111084,-8.035032272338867,2.959999999999981
-0.011037945747375488,4.0203375816345215,-7.503565788269043,2.9699999999999807
-0.39447879791259766,3.418226718902588,-7.390658378601074,2.9799999999999804
-0.20387232303619385,3.6837081909179688,-7.105623722076416,2.9899999999999802
0.3583974838256836,4.869691371917725,-6.1236114501953125,2.99999999999998
0.31792330741882324,5.9303059577941895,-5.491091728210449,3.00999999999998
0.010701179504394531,6.607142925262451,-5.268362045288086,3.0199999999999796
-0.4412267208099365,6.709284782409668,-5.162126064300537,3.0299999999999794
-1.0813937187194824,6.834840774536133,-5.366424083709717,3.039999999999979
-1.7138652801513672,7.0728583335876465,-5.810583591461182,3.049999999999979
-2.151153564453125,6.9645609855651855,-6.906610488891602,3.0599999999999787
-2.2600088119506836,6.7108025550842285,-7.839092254638672,3.0699999999999785
-1.6810581684112549,6.043892860412598,-8.405038833618164,3.0799999999999783
-0.6962873935699463,4.935745716094971,-8.358208656311035,3.089999999999978
0.4090009331703186,3.558605670928955,-7.69645881652832,3.099999999999978
1.278548240661621,2.5001296997070312,-7.35300350189209,3.1099999999999777
2.21093487739563,1.4363083839416504,-7.457919120788574,3.1199999999999775
2.212991237640381,1.581644058227539,-7.553099632263184,3.1299999999999772
2.154639720916748,0.5993404388427734,-6.484221458435059,3.139999999999977
1.4504003524780273,0.48795557022094727,-5.97123908996582,3.149999999999977
0.767387330532074,0.7576742172241211,-5.987759590148926,3.1599999999999766
0.4223722219467163,0.5721640586853027,-6.560677528381348,3.1699999999999764
0.1806349754333496,-0.20134305953979492,-7.164621353149414,3.179999999999976
-0.061797261238098145,-0.9091198444366455,-7.590480804443359,3.189999999999976
-0.018607735633850098,-0.8375027179718018,-7.6212921142578125,3.1999999999999758
-0.32837462425231934,-2.327601909637451,-8.360045433044434,3.2099999999999755
-0.0428624153137207,-2.737245559692383,-8.338785171508789,3.2199999999999753
0.3155391216278076,-2.9234495162963867,-7.600757598876953,3.229999999999975
0.6737191677093506,-2.8308701515197754,-6.006433486938477,3.239999999999975
1.0409486293792725,-2.5387940406799316,-5.001753807067871,3.2499999999999747
1.4207841157913208,-1.897735357284546,-4.502922058105469,3.2599999999999745
1.7892976999282837,-1.0483732223510742,-4.57645320892334,3.2699999999999743
2.2235546112060547,0.26154565811157227,-4.901808738708496,3.279999999999974
2.7041656970977783,2.10701322555542,-4.8166632652282715,3.289999999999974
3.322603702545166,5.023569583892822,-3.6516613960266113,3.2999999999999736
3.2971837520599365,7.7651824951171875,-2.510650634765625,3.3099999999999734
3.0667130947113037,10.893901824951172,-1.166841983795166,3.319999999999973
3.5253782272338867,13.288898468017578,0.6814813613891602,3.329999999999973
4.480470657348633,13.626289367675781,1.5729107856750488,3.3399999999999728
3.995128870010376,12.50635814666748,0.895967960357666,3.3499999999999726
2.790253162384033,8.824549674987793,-0.2623600959777832,3.3599999999999723
2.39845609664917,5.185366153717041,-0.5049219131469727,3.369999999999972
3.017599105834961,1.4105634689331055,-0.643528938293457,3.379999999999972
2.979811191558838,-0.7303810119628906,-1.8225841522216797,3.3899999999999717
2.4414379596710205,0.8494863510131836,-3.0520501136779785,3.3999999999999715
2.0816574096679688,4.778418064117432,-4.186728000640869,3.4099999999999713
1.141171932220459,8.297855377197266,-4.5828752517700195,3.419999999999971
-1.242201328277588,8.717443466186523,-6.014793872833252,3.429999999999971
-2.2412161827087402,7.901455879211426,-8.154804229736328,3.4399999999999706
-1.8237943649291992,9.088318824768066,-9.175909042358398,3.4499999999999704
-0.49486494064331055,10.134845733642578,-7.226786136627197,3.45999999999997
1.3062350749969482,8.84121322631836,-4.585927486419678,3.46999999999997
1.2517342567443848,3.6013383865356445,-3.0557961463928223,3.47999999999997
0.575536847114563,0.31342077255249023,-4.089559078216553,3.4899999999999696
0.004231691360473633,-0.6326885223388672,-5.900880813598633,3.4999999999999694
0.4622232913970947,-0.4523911476135254,-5.939846038818359,3.509999999999969
2.0847854614257812,1.1368365287780762,-6.150646209716797,3.519999999999969
4.43695068359375,4.555502414703369,-8.275871276855469,3.5299999999999687
5.8670454025268555,8.339381217956543,-10.874700546264648,3.5399999999999685
5.154173374176025,9.337739944458008,-10.953566551208496,3.5499999999999683
3.185567855834961,8.133070945739746,-8.237448692321777,3.559999999999968
1.6564775705337524,4.644354820251465,-5.731322288513184,3.569999999999968
0.4317077398300171,1.7302637100219727,-4.919423580169678,3.5799999999999677
0.3998992443084717,1.600107192993164,-4.827024459838867,3.5899999999999674
-1.4144471883773804,-0.7816076278686523,-5.519681453704834,3.5999999999999672
-1.3877556324005127,-0.22853565216064453,-6.176797866821289,3.609999999999967
-0.7136729955673218,1.2386574745178223,-6.923379898071289,3.619999999999967
0.2983240485191345,2.955051898956299,-7.5162434577941895,3.6299999999999666
1.5077720880508423,4.03825569152832,-8.002166748046875,3.6399999999999664
2.545304536819458,3.940255641937256,-8.271656036376953,3.649999999999966
2.8884575366973877,2.662384033203125,-8.342418670654297,3.659999999999966
2.750208616256714,1.301175594329834,-8.189093589782715,3.6699999999999657
2.4175169467926025,-0.0523076057434082,-7.944726943969727,3.6799999999999655
1.6916217803955078,-0.5217657089233398,-7.977323532104492,3.6899999999999653
1.2615947723388672,-0.428041934967041,-7.573388576507568,3.699999999999965
1.0656911134719849,0.07402420043945312,-6.511046409606934,3.709999999999965
0.7648388147354126,0.6287655830383301,-5.793200492858887,3.7199999999999647
0.6772978901863098,0.7507953643798828,-5.719059467315674,3.7299999999999645
0.7741398811340332,0.6725316047668457,-5.9765543937683105,3.7399999999999642
0.8821961879730225,0.5745129585266113,-6.004883289337158,3.749999999999964
1.0606104135513306,0.5897912979125977,-5.460197448730469,3.759999999999964
1.672631859779358,0.4774136543273926,-4.639030456542969,3.7699999999999636
2.2633137702941895,0.5146889686584473,-4.202272415161133,3.7799999999999634
2.5818464756011963,0.6997165679931641,-4.0398454666137695,3.789999999999963
2.5705032348632812,1.0432538986206055,-4.566274642944336,3.799999999999963
2.035182476043701,1.4651851654052734,-5.093899250030518,3.8099999999999627
1.9125208854675293,1.8328800201416016,-5.460234642028809,3.8199999999999625
2.333198308944702,2.5829524993896484,-6.116199493408203,3.8299999999999623
2.513921022415161,4.10446834564209,-6.172476291656494,3.839999999999962
2.595118522644043,5.161630630493164,-5.654696464538574,3.849999999999962
2.8114030361175537,5.7688703536987305,-5.27800178527832,3.8599999999999617
2.9939379692077637,5.537275314331055,-4.843677043914795,3.8699999999999615
2.967838764190674,4.9501447677612305,-4.11745548248291,3.8799999999999613
3.064769744873047,4.615872383117676,-3.5270931720733643,3.889999999999961
3.166205644607544,5.098323822021484,-3.7570276260375977,3.899999999999961
3.0022082328796387,6.6027116775512695,-3.860374689102173,3.9099999999999606
3.2700695991516113,7.478104591369629,-4.390279769897461,3.9199999999999604
2.763005256652832,6.807199478149414,-5.064283847808838,3.92999999999996
2.017646551132202,5.069821357727051,-6.286559104919434,3.93999999999996
1.638374924659729,3.5102577209472656,-7.059388637542725,3.9499999999999598
1.4237555265426636,2.807159423828125,-7.829889297485352,3.9599999999999596
1.0478472709655762,3.063265800476074,-8.025935173034668,3.9699999999999593
0.37316977977752686,3.397946357727051,-8.068180084228516,3.979999999999959
-0.3057762384414673,3.4358367919921875,-7.491681098937988,3.989999999999959
-0.7736669778823853,3.5580668449401855,-6.332404136657715,3.9999999999999587
-0.14809763431549072,3.8610830307006836,-4.993577480316162,4.009999999999959
1.1609641313552856,4.767714023590088,-3.9178805351257324,4.019999999999959
1.6382554769515991,5.914911270141602,-4.049729347229004,4.0299999999999585
1.146634578704834,6.765789985656738,-4.630048751831055,4.039999999999958
-0.18035888671875,6.915089130401611,-5.286942958831787,4.049999999999958
-1.387260913848877,6.75338077545166,-5.899710655212402,4.059999999999958
-2.223741054534912,6.460760116577148,-6.377257347106934,4.069999999999958
-2.6128101348876953,5.766227722167969,-7.187415599822998,4.079999999999957
-2.4146337509155273,5.298642158508301,-7.459800720214844,4.089999999999957
-1.5712833404541016,4.713930130004883,-7.602780342102051,4.099999999999957
-0.42433786392211914,4.043252944946289,-7.104870319366455,4.109999999999957
0.6758140325546265,3.0948123931884766,-6.713591575622559,4.119999999999957
1.5607720613479614,2.368187427520752,-6.822118759155273,4.129999999999956
2.1046409606933594,1.5123023986816406,-6.7187299728393555,4.139999999999956
2.0254602432250977,1.2107043266296387,-6.454874515533447,4.149999999999956
1.7623820304870605,1.026679515838623,-6.173669338226318,4.159999999999956
1.254012942314148,0.9472508430480957,-5.885658264160156,4.1699999999999555
0.7035357356071472,1.093355655670166,-6.147435188293457,4.179999999999955
0.3233209252357483,0.8620495796203613,-6.389139652252197,4.189999999999955
0.2604139447212219,-0.37787485122680664,-6.5785698890686035,4.199999999999955
0.08191150426864624,-1.277139663696289,-7.090202331542969,4.209999999999955
0.019525647163391113,-2.040072441101074,-8.140244483947754,4.2199999999999545
0.21399980783462524,-2.674452304840088,-8.495561599731445,4.229999999999954
0.5277571678161621,-3.1640610694885254,-8.462482452392578,4.239999999999954
0.755105197429657,-3.587596893310547,-7.980146408081055,4.249999999999954
0.6655635237693787,-3.448939800262451,-6.976592063903809,4.259999999999954
0.6598714590072632,-2.9682211875915527,-5.929075241088867,4.269999999999953
0.918289303779602,-2.4361109733581543,-4.74357795715332,4.279999999999953
1.2646269798278809,-1.86688232421875,-3.5570898056030273,4.289999999999953
1.5420129299163818,-0.956242561340332,-2.653629779815674,4.299999999999953
1.3297982215881348,0.731419563293457,-2.650639057159424,4.3099999999999525
0.8857276439666748,3.24332332611084,-3.1133785247802734,4.319999999999952
0.7865030765533447,5.126798629760742,-2.974754810333252,4.329999999999952
1.386533260345459,7.5051798820495605,-3.2404656410217285,4.339999999999952
2.250490188598633,10.366287231445312,-3.2404003143310547,4.349999999999952
3.797675609588623,13.64503002166748,-1.1928672790527344,4.3599999999999515
5.351848602294922,14.856070518493652,1.737936019897461,4.369999999999951
5.035564422607422,12.579826354980469,3.0060954093933105,4.379999999999951
4.131904602050781,8.06916618347168,2.767317295074463,4.389999999999951
3.3604164123535156,2.4304347038269043,2.0672125816345215,4.399999999999951
2.9579169750213623,-0.7993078231811523,1.182176113128662,4.40999999999995
3.353100299835205,-0.3457951545715332,-1.7551932334899902,4.41999999999995
2.9280142784118652,2.9913220405578613,-4.645430564880371,4.42999999999995
2.1045618057250977,5.525607109069824,-6.753390789031982,4.43999999999995
-0.6355664730072021,6.389092922210693,-9.269790649414062,4.4499999999999496
-3.0683794021606445,7.751979827880859,-10.772184371948242,4.459999999999949
-2.981619119644165,9.849916458129883,-9.35190486907959,4.469999999999949
-0.9792225360870361,9.942354202270508,-5.516885757446289,4.479999999999949
0.6170629262924194,7.195649147033691,-2.337986469268799,4.489999999999949
-0.39864349365234375,1.7914495468139648,-2.1107001304626465,4.4999999999999485
-0.8830444812774658,-0.08261775970458984,-4.5768632888793945,4.509999999999948
-0.47163891792297363,-0.8327069282531738,-6.403895378112793,4.519999999999948
0.5443086624145508,-0.6993331909179688,-7.2746453285217285,4.529999999999948
3.0027060508728027,1.5046472549438477,-8.5400972366333,4.539999999999948
5.662835121154785,4.928799152374268,-10.824997901916504,4.549999999999947
6.351788520812988,7.720639228820801,-12.147241592407227,4.559999999999947
4.722254753112793,7.711390972137451,-10.47195053100586,4.569999999999947
2.1922080516815186,5.451940059661865,-6.736740589141846,4.579999999999947
0.45748400688171387,2.4716930389404297,-4.301692962646484,4.589999999999947
-0.7876052856445312,-0.13401556015014648,-3.5254015922546387,4.599999999999946
-1.6815776824951172,-1.4952149391174316,-4.078937530517578,4.609999999999946
-1.8430933952331543,-1.4330830574035645,-5.144534111022949,4.619999999999946
-1.1261461973190308,-0.1556534767150879,-5.867673873901367,4.629999999999946
0.4456923007965088,1.9301362037658691,-6.6378984451293945,4.6399999999999455
1.9601327180862427,3.701343536376953,-7.0887651443481445,4.649999999999945
3.139615774154663,4.424793720245361,-7.070975303649902,4.659999999999945
3.947110176086426,3.6593446731567383,-6.741941452026367,4.669999999999945
3.873311758041382,1.6486148834228516,-5.762758731842041,4.679999999999945
3.2032899856567383,0.2068653106689453,-5.40559720993042,4.689999999999944
2.0514373779296875,-0.9389562606811523,-6.674097061157227,4.699999999999944
1.0762449502944946,-1.066652774810791,-7.191388130187988,4.709999999999944
0.5998914837837219,-0.7148375511169434,-6.439844131469727,4.719999999999944
0.5305458903312683,-0.1353449821472168,-5.1414079666137695,4.729999999999944
0.6926310658454895,0.35317039489746094,-4.467066764831543,4.739999999999943
0.7423956394195557,0.40195512771606445,-4.856671333312988,4.749999999999943
0.7456417679786682,0.30643653869628906,-5.112021446228027,4.759999999999943
1.0549633502960205,0.1840362548828125,-4.729726314544678,4.769999999999943
1.7228668928146362,0.2599506378173828,-4.539998531341553,4.7799999999999425
2.083078384399414,0.45568180084228516,-4.666337966918945,4.789999999999942
1.8679243326187134,1.0709514617919922,-4.403388023376465,4.799999999999942
1.5814882516860962,1.5885334014892578,-3.937429428100586,4.809999999999942
1.5718414783477783,1.6705513000488281,-3.9806885719299316,4.819999999999942
1.461342453956604,1.8168106079101562,-4.505486011505127,4.8299999999999415
1.5867576599121094,2.377635955810547,-4.603756904602051,4.839999999999941
2.1865358352661133,3.2569799423217773,-5.034270286560059,4.849999999999941
3.228679895401001,4.2867889404296875,-5.266662120819092,4.859999999999941
3.922558307647705,4.6220502853393555,-4.852204322814941,4.869999999999941
4.185718059539795,4.200322151184082,-4.646862983703613,4.87999999999994
3.7855327129364014,3.796647071838379,-4.50260591506958,4.88999999999994
3.4351272583007812,3.7771873474121094,-3.876066207885742,4.89999999999994
3.112358570098877,4.334134101867676,-3.9292407035827637,4.90999999999994
2.821268320083618,6.439409255981445,-3.689763307571411,4.9199999999999395
2.978318691253662,7.702423095703125,-3.961380958557129,4.929999999999939
2.710200309753418,7.231472969055176,-5.306533336639404,4.939999999999939
2.3985438346862793,5.198058128356934,-6.611534595489502,4.949999999999939
1.975964903831482,3.4710521697998047,-7.228877544403076,4.959999999999939
1.736222743988037,2.881875991821289,-7.326369285583496,4.9699999999999385
1.2221031188964844,3.136648178100586,-7.1040520668029785,4.979999999999938
0.8218613266944885,3.2309064865112305,-6.944767951965332,4.989999999999938
0.32985949516296387,3.070216178894043,-6.37004280090332,4.999999999999938
0.17832326889038086,3.1796207427978516,-6.225739002227783,5.009999999999938
0.4355197548866272,3.5717897415161133,-5.79869270324707,5.019999999999937
0.4644607901573181,4.373044490814209,-4.777166366577148,5.029999999999937
0.45169597864151,4.51389741897583,-4.96295166015625,5.039999999999937
-0.7724418640136719,5.211901664733887,-4.372722625732422,5.049999999999937
-0.955014705657959,5.075765609741211,-4.858968257904053,5.0599999999999365
-1.041770100593567,5.038337230682373,-5.50059700012207,5.069999999999936
-1.200809359550476,4.7837018966674805,-6.526605606079102,5.079999999999936
-1.2538585662841797,4.362003803253174,-7.592496871948242,5.089999999999936
-0.8764642477035522,3.9118518829345703,-8.055737495422363,5.099999999999936
-0.6277099847793579,3.4943089485168457,-7.863658428192139,5.1099999999999355
-0.14909648895263672,2.5265421867370605,-6.687198638916016,5.119999999999935
0.2685014605522156,1.6950464248657227,-5.984841346740723,5.129999999999935
0.6543622016906738,1.185081958770752,-6.298436641693115,5.139999999999935
0.931844174861908,0.8978147506713867,-6.335687637329102,5.149999999999935
0.8391613960266113,0.8427834510803223,-5.608077049255371,5.159999999999934
0.5364958047866821,1.064967155456543,-4.948249816894531,5.169999999999934
-0.014406263828277588,1.4627976417541504,-4.723049163818359,5.179999999999934
-0.3639490604400635,1.5301990509033203,-5.192289352416992,5.189999999999934
-0.5624043941497803,1.1316771507263184,-5.688223838806152,5.199999999999934
-0.5785199403762817,0.31781816482543945,-6.601513862609863,5.209999999999933
-0.3017348647117615,-1.169039249420166,-7.456655025482178,5.219999999999933
-0.13809353113174438,-1.8889873027801514,-7.5089030265808105,5.229999999999933
0.1208571195602417,-2.439633369445801,-7.205318927764893,5.239999999999933
0.4438434839248657,-2.6971633434295654,-6.856674671173096,5.2499999999999325
0.6686949133872986,-2.711461305618286,-6.1370930671691895,5.259999999999932
0.9839967489242554,-2.5433382987976074,-5.2930707931518555,5.269999999999932
1.3185243606567383,-1.9567580223083496,-4.215310096740723,5.279999999999932
1.530238389968872,-1.3796229362487793,-3.6630496978759766,5.289999999999932
1.6642773151397705,-0.7978963851928711,-3.1992039680480957,5.299999999999931
1.6700526475906372,-0.00411224365234375,-3.1624045372009277,5.309999999999931
1.6141818761825562,1.1571855545043945,-3.076981544494629,5.319999999999931
1.7802261114120483,2.6292724609375,-2.6247153282165527,5.329999999999931
2.4365217685699463,4.702486038208008,-2.063384532928467,5.339999999999931
3.1706671714782715,6.552236557006836,-1.7410435676574707,5.34999999999993
4.260978698730469,8.681986808776855,-0.8841724395751953,5.35999999999993
5.057856559753418,10.019617080688477,-0.03980398178100586,5.36999999999993
4.692212104797363,10.365134239196777,0.6968555450439453,5.37999999999993
3.4694223403930664,9.272663116455078,1.080963134765625,5.3899999999999295
2.163905143737793,5.4603986740112305,1.0066661834716797,5.399999999999929
1.8396797180175781,1.3665060997009277,0.3944883346557617,5.409999999999929
2.0945231914520264,-2.226445436477661,-0.6315188407897949,5.419999999999929
1.683236002922058,-1.8587369918823242,-2.1660594940185547,5.429999999999929
1.5498944520950317,1.2969942092895508,-4.148958206176758,5.4399999999999284
0.7550258040428162,4.461425304412842,-5.326947212219238,5.449999999999928
-1.283113718032837,6.191202640533447,-7.488193988800049,5.459999999999928
-2.253831148147583,5.7660346031188965,-9.181357383728027,5.469999999999928
-2.37174654006958,7.384568214416504,-9.850221633911133,5.479999999999928
-1.786434531211853,10.694707870483398,-8.927658081054688,5.489999999999927
-0.06784927845001221,11.1045560836792,-4.9977006912231445,5.499999999999927
0.13814949989318848,7.454533100128174,-2.574761390686035,5.509999999999927
0.17572510242462158,7.520604133605957,-2.624096393585205,5.519999999999927
-0.5426089763641357,2.304377555847168,-4.253865718841553,5.5299999999999265
-0.5555621385574341,2.340137481689453,-4.2867112159729,5.539999999999926
2.09527587890625,-0.7989015579223633,-6.954261302947998,5.549999999999926
3.5277645587921143,-0.4583125114440918,-8.966917037963867,5.559999999999926
4.166790962219238,0.8539514541625977,-10.323932647705078,5.569999999999926
4.4051594734191895,2.64772891998291,-10.040387153625488,5.5799999999999255
3.6419920921325684,3.975142002105713,-8.494312286376953,5.589999999999925
1.8463548421859741,4.507307052612305,-5.764947891235352,5.599999999999925
0.3067814111709595,4.042594909667969,-3.735821485519409,5.609999999999925
-0.6124712228775024,2.9287877082824707,-3.1262168884277344,5.619999999999925
-0.8047393560409546,1.6566720008850098,-3.8900232315063477,5.629999999999924
-0.1275092363357544,0.6331796646118164,-5.611605644226074,5.639999999999924
0.43662965297698975,0.4908113479614258,-6.754946708679199,5.649999999999924
0.6911614537239075,0.7398490905761719,-7.553380012512207,5.659999999999924
1.005528450012207,0.9401063919067383,-7.433445930480957,5.6699999999999235
1.3566983938217163,0.9330649375915527,-7.206075668334961,5.679999999999923
1.9342741966247559,0.5192713737487793,-6.406398296356201,5.689999999999923
1.986666202545166,0.3204779624938965,-5.883494853973389,5.699999999999923
1.7487163543701172,0.14891386032104492,-6.633684158325195,5.709999999999923
1.3025951385498047,0.10820341110229492,-6.37047815322876,5.7199999999999225
1.0459210872650146,-1.7833709716796875E-4,-5.862156867980957,5.729999999999922
0.733684778213501,-0.1811056137084961,-5.491339206695557,5.739999999999922
0.4657953679561615,-0.32699060440063477,-5.167293071746826,5.749999999999922
0.5064776539802551,-0.28359317779541016,-5.125253677368164,5.759999999999922
0.6348703503608704,-0.06188011169433594,-5.344910144805908,5.769999999999921
0.9720065593719482,0.31812381744384766,-4.927722454071045,5.779999999999921
1.5482012033462524,0.6239376068115234,-4.02954626083374,5.789999999999921
1.8182425498962402,0.8131790161132812,-3.6748785972595215,5.799999999999921
1.9901936054229736,0.8265142440795898,-3.329526424407959,5.809999999999921
2.2186203002929688,0.9286956787109375,-3.2063140869140625,5.81999999999992
2.0087685585021973,1.2481689453125,-3.2587814331054688,5.82999999999992
1.6657284498214722,1.6637372970581055,-3.35067081451416,5.83999999999992
1.5868347883224487,1.8626708984375,-3.7340493202209473,5.84999999999992
1.9385493993759155,2.3462343215942383,-4.018458366394043,5.8599999999999195
2.776676654815674,3.2193078994750977,-4.572490692138672,5.869999999999919
3.4887917041778564,4.171408653259277,-4.858108997344971,5.879999999999919
3.9567809104919434,4.32274055480957,-4.6121697425842285,5.889999999999919
4.008894443511963,3.8204050064086914,-4.190739154815674,5.899999999999919
3.4143893718719482,3.326235771179199,-3.5991451740264893,5.909999999999918
3.081484794616699,3.0177392959594727,-3.4429616928100586,5.919999999999918
2.67155385017395,3.868925094604492,-3.455354690551758,5.929999999999918
2.6041150093078613,6.043031692504883,-3.465681314468384,5.939999999999918
2.623720645904541,7.053666114807129,-3.991396427154541,5.949999999999918
2.286691188812256,6.151912689208984,-4.489011764526367,5.959999999999917
2.0132546424865723,4.125539779663086,-5.59044075012207,5.969999999999917
1.4564818143844604,2.6590871810913086,-6.638684272766113,5.979999999999917
0.8430485725402832,2.387195587158203,-7.3884477615356445,5.989999999999917
0.1394059658050537,2.6977128982543945,-7.524906158447266,5.9999999999999165
-0.3882695436477661,2.8714866638183594,-6.891077518463135,6.009999999999916
-0.7069576978683472,2.6630382537841797,-5.467552185058594,6.019999999999916
-0.0018848180770874023,2.1911745071411133,-4.752405643463135,6.029999999999916
1.060373067855835,2.3356285095214844,-4.378410339355469,6.039999999999916
1.0048248767852783,3.541877269744873,-4.410834312438965,6.0499999999999154
0.07984018325805664,5.11497688293457,-4.234408378601074,6.059999999999915
-0.4503530263900757,5.710046291351318,-3.977478504180908,6.069999999999915
-0.8649404048919678,5.725878715515137,-3.97309947013855,6.079999999999915
-1.220231533050537,5.422652721405029,-4.161626815795898,6.089999999999915
-1.512129306793213,4.8896098136901855,-4.864587306976318,6.099999999999914
-1.5622440576553345,4.414656162261963,-5.973429203033447,6.109999999999914
-1.0397186279296875,3.720539093017578,-6.807085037231445,6.119999999999914
-0.5345486402511597,3.261808395385742,-7.0732903480529785,6.129999999999914
0.37668919563293457,2.6767868995666504,-6.727190017700195,6.1399999999999135
1.0490615367889404,1.8580222129821777,-5.87025260925293,6.149999999999913
1.4000154733657837,1.3488903045654297,-5.815938472747803,6.159999999999913
1.6657187938690186,0.886873722076416,-6.034902095794678,6.169999999999913
1.1849195957183838,0.55291748046875,-5.72015380859375,6.179999999999913
0.752185046672821,0.3806777000427246,-5.214019775390625,6.1899999999999125
0.03993576765060425,0.3983917236328125,-4.792229652404785,6.199999999999912
-0.3044835329055786,0.35716772079467773,-4.926067352294922,6.209999999999912
-0.5970656275749207,0.063751220703125,-5.1415910720825195,6.219999999999912
-0.7113492488861084,-0.3571805953979492,-5.767545700073242,6.229999999999912
-0.7292113900184631,-0.976616382598877,-6.625426292419434,6.239999999999911
-0.4967196583747864,-1.6641592979431152,-7.117088794708252,6.249999999999911
-0.27261996269226074,-2.24235463142395,-7.311265468597412,6.259999999999911
0.0030698776245117188,-2.5759379863739014,-7.251508712768555,6.269999999999911
0.2521734833717346,-2.8186511993408203,-6.726834297180176,6.2799999999999105
0.3011248707771301,-3.0382838249206543,-5.701109886169434,6.28999999999991
0.2583617568016052,-2.8561062812805176,-4.418173789978027,6.29999999999991
0.34209901094436646,-2.531989812850952,-3.801584005355835,6.30999999999991
0.6427168846130371,-2.0637197494506836,-3.2401199340820312,6.31999999999991
0.8835943341255188,-1.0009875297546387,-3.2518410682678223,6.3299999999999095
1.4981496334075928,0.7565531730651855,-3.574448585510254,6.339999999999909
2.2826461791992188,2.7427353858947754,-3.4220082759857178,6.349999999999909
2.3999173641204834,4.905198097229004,-2.969205856323242,6.359999999999909
2.3122127056121826,6.687888145446777,-2.3563790321350098,6.369999999999909
2.6357064247131348,8.75385570526123,-1.0480074882507324,6.379999999999908
3.661478042602539,10.34042739868164,1.0103564262390137,6.389999999999908
4.121487617492676,10.525501251220703,2.383772373199463,6.399999999999908
2.6358730792999268,9.2313232421875,1.7497034072875977,6.409999999999908
1.3056015968322754,5.290311813354492,0.5066466331481934,6.419999999999908
0.9894978404045105,1.7800021171569824,0.2992572784423828,6.429999999999907
1.5269831418991089,-0.7020134925842285,-0.5107555389404297,6.439999999999907
1.9184890985488892,-0.5013656616210938,-2.058281421661377,6.449999999999907
1.5287344455718994,1.4927496910095215,-3.5675222873687744,6.459999999999907
1.2556202411651611,3.511416435241699,-3.774980306625366,6.4699999999999065
-0.6279014348983765,5.136218547821045,-4.466553688049316,6.479999999999906
-1.9885834455490112,6.029256820678711,-6.455846786499023,6.489999999999906
-3.2074410915374756,7.885599613189697,-8.06028938293457,6.499999999999906
-2.340285301208496,8.5457181930542,-6.935910224914551,6.509999999999906
-0.6487441062927246,7.091245174407959,-3.3826401233673096,6.519999999999905
0.7225223779678345,4.276767253875732,-1.2438507080078125,6.529999999999905
0.5225541591644287,1.6577363014221191,-3.217698335647583,6.539999999999905
1.078524112701416,-0.02608776092529297,-4.952983856201172,6.549999999999905
2.0144600868225098,-1.1965012550354004,-6.4137654304504395,6.559999999999905
2.810051918029785,-1.0394401550292969,-7.6714067459106445,6.569999999999904
3.632669448852539,0.6319551467895508,-8.382492065429688,6.579999999999904
4.706598281860352,3.163339614868164,-8.964097023010254,6.589999999999904
5.264397621154785,5.1155686378479,-9.200004577636719,6.599999999999904
4.16609001159668,5.315947532653809,-8.640321731567383,6.6099999999999035
4.090577125549316,5.227576732635498,-8.560739517211914,6.619999999999903
-0.6001416444778442,2.5635013580322266,-4.719780921936035,6.629999999999903
-1.6742336750030518,0.9387636184692383,-3.116574764251709,6.639999999999903
-1.5249779224395752,-0.11316061019897461,-3.1184041500091553,6.649999999999903
-0.6306136250495911,0.0013837814331054688,-4.241031646728516,6.659999999999902
0.014390766620635986,0.8498892784118652,-4.96879243850708,6.669999999999902
0.5103839635848999,2.1565160751342773,-5.979496955871582,6.679999999999902
0.8354023694992065,2.8715882301330566,-6.824278831481934,6.689999999999902
1.1500345468521118,2.760274887084961,-7.223974704742432,6.699999999999902
1.5338447093963623,1.9944701194763184,-7.08104944229126,6.709999999999901
2.117705821990967,0.7485537528991699,-5.788452625274658,6.719999999999901
2.071777820587158,0.21663236618041992,-5.309001922607422,6.729999999999901
1.7589082717895508,-0.09683513641357422,-6.051475524902344,6.739999999999901
1.410001277923584,0.056194305419921875,-5.687900543212891,6.7499999999999005
1.1112205982208252,0.32736682891845703,-5.257361888885498,6.7599999999999
0.9677143096923828,0.44454479217529297,-4.848154067993164,6.7699999999999
1.022943139076233,0.3301868438720703,-4.979115962982178,6.7799999999999
1.131361484527588,0.3883399963378906,-4.93493127822876,6.7899999999999
1.4322538375854492,0.6143970489501953,-4.433262825012207,6.7999999999998995
1.7275274991989136,0.6504087448120117,-3.687042236328125,6.809999999999899
1.7250404357910156,0.4666614532470703,-3.2424981594085693,6.819999999999899
1.4476287364959717,-0.11981964111328125,-3.166870594024658,6.829999999999899
1.1543859243392944,-0.8441033363342285,-3.014603853225708,6.839999999999899
1.03518807888031,-0.9239540100097656,-3.248126745223999,6.849999999999898
1.122731328010559,-0.17868804931640625,-3.6066009998321533,6.859999999999898
1.4981114864349365,0.7843456268310547,-4.0090227127075195,6.869999999999898
1.7435860633850098,1.5245838165283203,-4.004154682159424,6.879999999999898
1.928595781326294,1.949751853942871,-4.291635036468506,6.8899999999998975
2.3522589206695557,2.436305046081543,-4.923651218414307,6.899999999999897
2.9737284183502197,2.662653923034668,-5.224976062774658,6.909999999999897
3.890115976333618,2.344667434692383,-5.617700099945068,6.919999999999897
3.9742727279663086,2.114293098449707,-5.690088748931885,6.929999999999897
3.1715240478515625,2.6547889709472656,-5.047844409942627,6.9399999999998965
1.9675735235214233,4.0572614669799805,-3.8743464946746826,6.949999999999896
1.294109582901001,5.689517974853516,-2.6122236251831055,6.959999999999896
1.4787046909332275,6.19304084777832,-2.434406280517578,6.969999999999896
1.919806957244873,5.475358009338379,-3.308706045150757,6.979999999999896
2.031014919281006,4.1511945724487305,-4.5228495597839355,6.989999999999895
1.7853412628173828,3.0852832794189453,-5.228057861328125,6.999999999999895
1.7331011295318604,2.6702308654785156,-5.644430160522461,7.009999999999895
1.671233057975769,3.2016420364379883,-5.918951034545898,7.019999999999895
1.4780809879302979,3.553579330444336,-6.473274230957031,7.0299999999998946
1.0341517925262451,3.136087417602539,-6.845493316650391,7.039999999999894
0.44634073972702026,2.152008056640625,-6.9179582595825195,7.049999999999894
-0.4494413137435913,1.8082666397094727,-6.463077545166016,7.059999999999894
-1.4471070766448975,2.4024925231933594,-4.729608058929443,7.069999999999894
-1.6314948797225952,3.2891016006469727,-2.2611749172210693,7.0799999999998935
-1.5196195840835571,3.8320326805114746,-1.3883490562438965,7.089999999999893
-1.0168131589889526,3.9631805419921875,-1.8806586265563965,7.099999999999893
-0.7303355932235718,3.696476459503174,-3.348238706588745,7.109999999999893
-1.1136752367019653,3.525676727294922,-4.871645927429199,7.119999999999893
-1.4011516571044922,3.5673747062683105,-5.8727545738220215,7.129999999999892
-1.3220417499542236,3.627234935760498,-6.703798770904541,7.139999999999892
-1.101280927658081,3.525698661804199,-7.195722579956055,7.149999999999892
-0.9022027850151062,3.434068202972412,-7.105419158935547,7.159999999999892
-0.8639047741889954,3.4479947090148926,-6.668689250946045,7.169999999999892
-0.7545745968818665,3.3613061904907227,-5.752635478973389,7.179999999999891
-0.7831100821495056,3.457709789276123,-5.850998878479004,7.189999999999891
-0.8013032078742981,2.623136520385742,-5.017658233642578,7.199999999999891
-0.46835970878601074,2.692786693572998,-5.113190650939941,7.209999999999891
-0.8421283960342407,2.402921199798584,-5.123630523681641,7.2199999999998905
-1.042770504951477,1.1356148719787598,-5.944231033325195,7.22999999999989
-0.5069609880447388,0.3979759216308594,-6.78228759765625,7.23999999999989
-0.029392540454864502,0.6861724853515625,-5.986688137054443,7.24999999999989
-0.3987138867378235,0.47704505920410156,-4.848924160003662,7.25999999999989
-0.517017126083374,0.21703004837036133,-5.27426815032959,7.269999999999889
-0.35965216159820557,-0.4910316467285156,-6.2419047355651855,7.279999999999889
-0.2185804843902588,-0.3555874824523926,-5.653010845184326,7.289999999999889
-0.4566618502140045,-0.32555103302001953,-4.334469795227051,7.299999999999889
-1.1354554891586304,-0.7434077262878418,-4.465641021728516,7.309999999999889
-0.43202030658721924,-0.5054779052734375,-4.239912033081055,7.319999999999888
-1.0088204145431519,-1.1783652305603027,-4.683191299438477,7.329999999999888
-0.38339221477508545,-1.3908910751342773,-5.1612043380737305,7.339999999999888
-0.41533902287483215,-1.207620620727539,-5.306869983673096,7.349999999999888
0.21675097942352295,0.06651163101196289,-5.181271076202393,7.3599999999998875
-0.27046453952789307,0.9142365455627441,-5.8111042976379395,7.369999999999887
-0.4710426926612854,1.6354827880859375,-5.560041427612305,7.379999999999887
-0.022592782974243164,2.5412192344665527,-4.222177982330322,7.389999999999887
0.04979938268661499,2.443030834197998,-4.110563278198242,7.399999999999887
1.2432571649551392,4.842720031738281,-1.0183978080749512,7.4099999999998865
2.3661389350891113,5.762086391448975,-0.984405517578125,7.419999999999886
2.1628849506378174,5.338240623474121,-2.238222599029541,7.429999999999886
2.002767324447632,4.265830993652344,-3.5931763648986816,7.439999999999886
1.1940189599990845,3.248391628265381,-4.1948347091674805,7.449999999999886
0.5677645206451416,2.2455945014953613,-3.826050043106079,7.459999999999885
0.32256871461868286,1.090721607208252,-2.707012891769409,7.469999999999885
0.6935122013092041,0.4110112190246582,-3.0863723754882812,7.479999999999885
0.907686710357666,0.1907024383544922,-4.2778778076171875,7.489999999999885
0.9235228896141052,0.33724212646484375,-4.385759353637695,7.4999999999998845
0.9316579699516296,0.5715093612670898,-4.11947774887085,7.509999999999884
0.9561266899108887,0.7555418014526367,-4.296856880187988,7.519999999999884
0.8490011692047119,0.8177485466003418,-5.09812068939209,7.529999999999884
0.060067713260650635,1.8927688598632812,-5.502969264984131,7.539999999999884
-1.4558402299880981,5.242828845977783,-4.518286228179932,7.5499999999998835
-1.6474701166152954,10.43122673034668,-3.519789457321167,7.559999999999883
-0.7494041919708252,12.638664245605469,-3.483487844467163,7.569999999999883
0.7322729229927063,10.980598449707031,-2.7654731273651123,7.579999999999883
1.5341649055480957,5.066521167755127,-1.321061611175537,7.589999999999883
2.4039924144744873,-1.1293234825134277,-2.5617194175720215,7.599999999999882
2.1148080825805664,-4.153591156005859,-6.519920825958252,7.609999999999882
1.153014898300171,-3.6667251586914062,-10.384782791137695,7.619999999999882
0.7373392581939697,-1.2208800315856934,-10.612545013427734,7.629999999999882
0.5342161059379578,2.3879666328430176,-8.264039039611816,7.6399999999998816
1.0734796524047852,4.67942476272583,-5.459874629974365,7.649999999999881
1.2957837581634521,5.458990573883057,-4.304856777191162,7.659999999999881
1.403010368347168,5.120674133300781,-4.593384742736816,7.669999999999881
0.737779974937439,3.443561553955078,-4.7193098068237305,7.679999999999881
0.39611536264419556,2.106731414794922,-4.53753662109375,7.6899999999998805
0.022626519203186035,0.9177141189575195,-4.889606475830078,7.69999999999988
-0.21148681640625,0.34107065200805664,-5.253105640411377,7.70999999999988
-0.08236253261566162,-0.11768198013305664,-5.6167778968811035,7.71999999999988
0.15160518884658813,-0.04077482223510742,-5.940642356872559,7.72999999999988
1.040831446647644,0.27060508728027344,-6.166329383850098,7.739999999999879
1.169445514678955,0.907841682434082,-6.851800918579102,7.749999999999879
0.8955544233322144,1.4001712799072266,-5.919683933258057,7.759999999999879
0.541815996170044,2.04355525970459,-4.21221923828125,7.769999999999879
0.481462299823761,2.605587959289551,-2.8395779132843018,7.779999999999879
1.1476420164108276,2.0542259216308594,-3.33306622505188,7.789999999999878
1.8847310543060303,1.0051546096801758,-5.705901145935059,7.799999999999878
1.8292627334594727,0.5669851303100586,-6.193929195404053,7.809999999999878
1.3919507265090942,1.5285987854003906,-5.387110233306885,7.819999999999878
2.1381866931915283,1.3308591842651367,-4.775358200073242,7.8299999999998775
1.187908411026001,1.030670166015625,-5.3166656494140625,7.839999999999877
1.0026013851165771,1.0641345977783203,-4.595702171325684,7.849999999999877
0.8463369011878967,0.9938669204711914,-4.643379211425781,7.859999999999877
0.5072193145751953,2.125213623046875,-3.859520435333252,7.869999999999877
0.6523336172103882,2.40850830078125,-3.528716564178467,7.879999999999876
1.039301872253418,2.4437179565429688,-3.1992242336273193,7.889999999999876
1.2430771589279175,2.707098960876465,-2.935269355773926,7.899999999999876
1.163926601409912,3.420121192932129,-3.440319538116455,7.909999999999876
1.994539499282837,2.6063709259033203,-7.0450849533081055,7.919999999999876
1.8210399150848389,1.9681663513183594,-6.989363670349121,7.929999999999875
0.8304140567779541,2.084273338317871,-4.5900163650512695,7.939999999999875
0.7614685297012329,1.7821063995361328,-3.9427011013031006,7.949999999999875
0.882880449295044,1.1765727996826172,-4.22080135345459,7.959999999999875
0.7739474773406982,0.7319841384887695,-4.319917678833008,7.9699999999998745
0.35127297043800354,0.5324697494506836,-3.9355459213256836,7.979999999999874
0.2455754280090332,0.5237979888916016,-3.911403179168701,7.989999999999874
0.4348815977573395,0.5626668930053711,-4.2917985916137695,7.999999999999874
