AccX,AccY,AccZ,stepCount
-0.04738259315490723,-0.05782604217529297,-0.047630906105041504,3.8349976539611816
-0.020035624504089355,-0.019227981567382812,-0.008124634623527527,-4.497010707855225
0.028339743614196777,0.03565216064453125,0.028783604502677917,3.663402557373047
0.06192672252655029,0.08055686950683594,0.07981759309768677,-2.8617236614227295
0.06900548934936523,0.09657955169677734,0.15674751996994019,3.666959762573242
0.07122111320495605,0.09108734130859375,0.20960088074207306,-1.440800428390503
0.08760631084442139,0.07138919830322266,0.21230965852737427,-2.883706569671631
0.09435880184173584,0.037606239318847656,0.20092511177062988,0.32827556133270264
0.058405399322509766,-6.322860717773438E-4,0.17307990789413452,0
0.07984364032745361,-0.03378772735595703,0.12640921771526337,0
0.08448266983032227,-0.09515571594238281,0.06577974557876587,0
0.10338830947875977,-0.13463687896728516,0.02938757836818695,0
0.14122164249420166,-0.1191701889038086,-0.009061336517333984,0
0.16701781749725342,-0.09431838989257812,-0.02098087966442108,0
0.2283308506011963,-0.06728553771972656,-0.027905359864234924,0
0.2559579610824585,-0.014357566833496094,0.015331059694290161,0
0.30475473403930664,0.04050445556640625,0.04894872009754181,0
0.2629309892654419,0.047423362731933594,0.06349802017211914,0
0.22617733478546143,0.04715538024902344,0.06624867022037506,0
0.206292986869812,0.04925346374511719,0.09285323321819305,0
0.12959635257720947,0.041838645935058594,0.08841654658317566,0
0.09392869472503662,0.022617340087890625,0.10061070322990417,0
0.018284916877746582,-0.0011777877807617188,0.09124895930290222,0
-0.059074997901916504,-0.043761253356933594,0.06999601423740387,0
-0.10730099678039551,-0.062247276306152344,0.04877173900604248,0
-0.0957721471786499,-0.06395721435546875,0.010869890451431274,0
-0.091461181640625,-0.06327533721923828,0.011133700609207153,0
-0.11092710494995117,-0.06259632110595703,0.0017582625150680542,0
-0.10889279842376709,-0.057175636291503906,-0.007770419120788574,0
-0.1021280288696289,-0.018558502197265625,0.003995433449745178,0
-0.10260045528411865,0.04109477996826172,0.01803421974182129,0
-0.09128522872924805,0.04326057434082031,0.08418795466423035,0
-0.06590688228607178,0.05251502990722656,0.08582621812820435,0
-0.040830016136169434,0.030818939208984375,0.08273334801197052,0
-0.03498721122741699,0.03304004669189453,0.036904215812683105,0
-0.048276424407958984,0.04947471618652344,0.02460959553718567,0
-0.06145930290222168,0.042034149169921875,-0.011450529098510742,0
-0.06984567642211914,0.0037870407104492188,-0.042613446712493896,0
-0.05682814121246338,-0.01990032196044922,-0.06657484918832779,0
-0.05356550216674805,-0.014918327331542969,-0.09052522480487823,0
-0.05991828441619873,0.016127586364746094,-0.109625443816185,0
-0.042566895484924316,0.04452991485595703,-0.11912670731544495,0
-0.05628514289855957,0.10829925537109375,-0.11908005177974701,0
-0.0961226224899292,0.13353443145751953,-0.09056000411510468,0
-0.10728442668914795,0.14429378509521484,-0.062256596982479095,0
-0.12793684005737305,0.15257835388183594,-0.003267139196395874,0
-0.15568482875823975,0.15839862823486328,0.05520164966583252,0
-0.15005171298980713,0.12379932403564453,0.08465233445167542,0
-0.2062244415283203,0.11797618865966797,0.11375439167022705,0
-0.15990233421325684,0.081329345703125,0.11394689977169037,0
-0.1662583351135254,0.03311347961425781,0.09260109066963196,0
-0.13698124885559082,0.0019168853759765625,0.037996694445610046,0
-0.1483398675918579,-0.0029020309448242188,-0.006908535957336426,0
-0.10740482807159424,-0.02430248260498047,-0.0658828541636467,0
-0.08823907375335693,-0.017040252685546875,-0.12453504651784897,0
-0.07879149913787842,-0.005093574523925781,-0.1186826229095459,0
-0.12652242183685303,0.004363059997558594,-0.1390557587146759,0
-0.10278058052062988,0.05170631408691406,-0.13789483904838562,0
-0.11731350421905518,0.03928661346435547,-0.11053596436977386,0
-0.13888108730316162,0.019845962524414062,-0.08812740445137024,0
-0.20538008213043213,5.655288696289062E-4,-0.0706699788570404,0
-0.23334193229675293,0.0028162002563476562,-0.05344036966562271,0
-0.24680006504058838,-0.016315460205078125,-0.007942885160446167,0
-0.2696187496185303,3.299713134765625E-4,0.013397619128227234,0
-0.2685115337371826,-0.0021543502807617188,-0.01067216694355011,0
-0.25320279598236084,0.01674652099609375,-0.05136720836162567,0
-0.235679030418396,0.009377479553222656,-0.11333534866571426,0
-0.21595609188079834,-0.019298553466796875,-0.16068367660045624,0
-0.16072595119476318,-0.02635669708251953,-0.20067743957042694,0
-0.16053354740142822,-0.02622699737548828,-0.2238391488790512,0
-0.1414412260055542,-0.018985748291015625,-0.22318172454833984,0
-0.16774070262908936,-0.040309906005859375,-0.19886572659015656,0
-0.16548430919647217,-0.02348804473876953,-0.17720383405685425,0
-0.14446377754211426,-0.018705368041992188,-0.1770719289779663,0
-0.1951080560684204,-0.011624336242675781,-0.1698385775089264,0
-0.15528583526611328,-0.025991439819335938,-0.172174870967865,0
-0.16342127323150635,-0.06162452697753906,-0.20545139908790588,0
-0.18349957466125488,-0.042369842529296875,-0.23386500775814056,0
-0.18449938297271729,-0.11587333679199219,-0.2717052698135376,0
-0.15468084812164307,-0.12228870391845703,-0.2785699963569641,0
-0.14178669452667236,-0.12390613555908203,-0.2736683487892151,0
-0.15042579174041748,-0.15637874603271484,-0.2737002670764923,0
-0.17329978942871094,-0.1363544464111328,-0.27143508195877075,0
-0.16987526416778564,-0.1141204833984375,-0.2620803713798523,0
-0.12372457981109619,-0.08732223510742188,-0.25038960576057434,0
-0.16578388214111328,-0.060746192932128906,-0.23865197598934174,0
-0.1956024169921875,-0.036765098571777344,-0.2101789116859436,0
-0.17995285987854004,-0.0034761428833007812,-0.18173426389694214,0
-0.16906845569610596,-0.0013141632080078125,-0.14620840549468994,0
-0.14860188961029053,-0.006272315979003906,-0.11799370497465134,0
-0.13524937629699707,-0.0064144134521484375,-0.09235607087612152,0
-0.0980292558670044,-0.03975963592529297,-0.059802547097206116,0
-0.051383376121520996,-0.0704193115234375,-0.07973653078079224,0
-0.028568506240844727,-0.08416366577148438,-0.0662141740322113,0
0.027503252029418945,-0.08589458465576172,-0.055113404989242554,0
0.057196855545043945,-0.09470558166503906,-0.03925725817680359,0
0.0796365737915039,-0.0654449462890625,-0.023383408784866333,0
0.09250545501708984,-0.03641986846923828,-0.004988640546798706,0
0.10300588607788086,-0.007630348205566406,0.05632457137107849,0
0.03281116485595703,0.03754425048828125,0.09615853428840637,0
0.08674073219299316,0.08946514129638672,0.20730876922607422,0
0.05729877948760986,0.10772705078125,0.315652459859848,0
0.011713266372680664,0.08073997497558594,0.4166058301925659,0
-0.023613572120666504,0.054009437561035156,0.5173841714859009,0
-0.06762945652008057,0.010927200317382812,0.611078679561615,0
-0.07979774475097656,-0.048356056213378906,0.7380344867706299,0
-0.06032133102416992,-0.0833292007446289,0.8691812753677368,0
0.02367722988128662,-0.1108083724975586,0.9660153388977051,0
0.0740969181060791,-0.1356182098388672,0.9783813953399658,0
0.14070284366607666,-0.12932968139648438,0.8900620937347412,0
0.25162243843078613,-0.13259124755859375,0.7516579627990723,0
0.3826417922973633,-0.14296913146972656,0.5804646611213684,0
0.4956122636795044,-0.16754150390625,0.40565094351768494,0
0.5074270367622375,-0.2252216339111328,0.3013039827346802,0
0.46152305603027344,-0.28252220153808594,0.2955121397972107,0
0.3534679412841797,-0.30385398864746094,0.35655832290649414,0
0.22868525981903076,-0.2396697998046875,0.5427906513214111,0
0.19181311130523682,-0.12865161895751953,0.7910505533218384,0
0.2350085973739624,-0.013904571533203125,0.984155535697937,0
0.3268200755119324,0.059454917907714844,1.0582085847854614,0
0.4550267457962036,0.07753753662109375,1.0047109127044678,0
0.5717106461524963,0.06928062438964844,0.8271399736404419,0
0.6388882994651794,0.06100940704345703,0.5170809030532837,0
0.687563955783844,0.03132343292236328,0.0662611722946167,0
0.6822813749313354,-0.005367279052734375,-0.4240986406803131,0
0.7755506634712219,-0.08464241027832031,-0.7769986987113953,0
0.8244550228118896,-0.21326732635498047,-0.816882848739624,0
0.7845199704170227,-0.34096717834472656,-0.3866652548313141,0
0.6971001625061035,-0.4700584411621094,0.4283384680747986,0
0.634026050567627,-0.5030879974365234,1.314652442932129,0
0.5620478987693787,-0.5190935134887695,1.954111099243164,0
0.5288673043251038,-0.45403575897216797,2.1388919353485107,0
0.7030190229415894,-0.4747629165649414,1.9137232303619385,0
0.9599184393882751,-0.45709991455078125,1.454355001449585,0
1.1377158164978027,-0.3776979446411133,0.8618354201316833,0
1.1846556663513184,-0.19682788848876953,0.22416174411773682,0
1.1723922491073608,-0.03655242919921875,-0.3127652704715729,0
1.0364991426467896,0.14118099212646484,-0.6522344350814819,0
0.8842520713806152,0.2530679702758789,-0.736547589302063,0
0.7514837384223938,0.3281888961791992,-0.5611513257026672,0
0.6458608508110046,0.41921424865722656,-0.19795462489128113,0
0.4752642512321472,0.5427446365356445,0.2414945363998413,0
0.2787166237831116,0.6178665161132812,0.5636720657348633,0
0.10971301794052124,0.5946292877197266,0.7509105205535889,0
-0.0838584303855896,0.5261402130126953,0.8112305402755737,0
-0.23745858669281006,0.40528106689453125,0.7925456762313843,0
-0.4062618017196655,0.2440805435180664,0.7041276693344116,0
-0.5951738953590393,0.1334686279296875,0.581338107585907,0
-0.7206428647041321,0.006436347961425781,0.48362427949905396,0
-0.7876501083374023,-0.12983036041259766,0.42034316062927246,0
-0.8201642036437988,-0.25141048431396484,0.39160072803497314,0
-0.8398339748382568,-0.36553382873535156,0.34046560525894165,0
-0.8157615661621094,-0.45311832427978516,0.29131782054901123,0
-0.7936025261878967,-0.5357589721679688,0.19441193342208862,0
-0.7710355520248413,-0.558497428894043,0.12436246871948242,0
-0.8175737857818604,-0.5333976745605469,0.05279529094696045,0
-0.7395715117454529,-0.5083675384521484,-0.012891769409179688,0
-0.6880235075950623,-0.5001668930053711,-0.06785562634468079,0
-0.6463278532028198,-0.511174201965332,-0.05488017201423645,0
-0.578727662563324,-0.517460823059082,-0.055441826581954956,0
-0.39215850830078125,-0.5190353393554688,-0.04589167237281799,0
-0.32828831672668457,-0.544586181640625,-0.03598833084106445,0
-0.12638413906097412,-0.5438718795776367,-0.013881415128707886,0
0.0077893733978271484,-0.5695209503173828,-0.005954951047897339,0
0.07659858465194702,-0.5617341995239258,-0.045687347650527954,0
0.132610023021698,-0.5612192153930664,-0.0970456600189209,0
0.1208195686340332,-0.5225410461425781,-0.13606905937194824,0
0.14657020568847656,-0.5031337738037109,-0.1602221429347992,0
0.13819676637649536,-0.4599285125732422,-0.16701313853263855,0
0.13886594772338867,-0.4144716262817383,-0.1826149821281433,0
0.15110594034194946,-0.3380556106567383,-0.22131690382957458,0
0.12213766574859619,-0.27136802673339844,-0.30498218536376953,0
0.07812821865081787,-0.23830413818359375,-0.39806193113327026,0
0.09090566635131836,-0.22684764862060547,-0.42195945978164673,0
0.13660162687301636,-0.20347976684570312,-0.38636893033981323,0
0.19141852855682373,-0.18015766143798828,-0.2793983817100525,0
0.1742997169494629,-0.15686416625976562,-0.16070771217346191,0
0.21463161706924438,-0.12880802154541016,-0.02053925395011902,0
0.18579554557800293,-0.10554027557373047,0.07656443119049072,0
0.19547921419143677,-0.034445762634277344,0.15672889351844788,0
0.19120579957962036,0.05096721649169922,0.2102067768573761,0
0.3026214838027954,0.15914154052734375,0.2280486524105072,0
0.32836079597473145,0.3092498779296875,0.19515880942344666,0
0.3997001051902771,0.38462066650390625,0.13302260637283325,0
0.44491323828697205,0.49270153045654297,0.0418359637260437,0
0.5734103322029114,0.621342658996582,-0.03067868947982788,0
0.6083335876464844,0.7280502319335938,-0.08766137063503265,0
0.4977354109287262,0.7390451431274414,-0.14064639806747437,0
0.07633084058761597,0.640049934387207,-0.2683846652507782,0
0.02142542600631714,0.6918420791625977,-0.2504248023033142,0
0.249750554561615,0.7173681259155273,-0.20154395699501038,0
0.2113494873046875,0.7334260940551758,-0.16694553196430206,0
0.2625043988227844,0.8284626007080078,-0.03887605667114258,0
0.39761316776275635,0.9473133087158203,0.1324094831943512,0
0.6039456129074097,0.977508544921875,0.3107715845108032,0
0.8329571485519409,0.904759407043457,0.45532554388046265,0
1.0005261898040771,0.7267704010009766,0.5634483098983765,0
1.2047157287597656,0.5297536849975586,0.5298601388931274,0
1.3571722507476807,0.38786888122558594,0.37873387336730957,0
1.4007689952850342,0.22693443298339844,0.1439564824104309,0
1.4361698627471924,0.1689128875732422,-0.032696157693862915,0
1.470629096031189,0.1491069793701172,-0.15082456171512604,0
1.4036082029342651,0.16744327545166016,-0.21233071386814117,0
1.2902990579605103,0.2214832305908203,-0.2432956099510193,0
1.2241929769515991,0.26816272735595703,-0.26290443539619446,0
1.1311068534851074,0.23098468780517578,-0.19943861663341522,0
0.9873975515365601,0.19138145446777344,-0.1368962824344635,0
0.8627533912658691,0.09679222106933594,-0.046847641468048096,0
0.7024319767951965,-0.014413833618164062,0.010461032390594482,0
0.5186862349510193,-0.11109733581542969,0.029780805110931396,0
0.3549463450908661,-0.2123565673828125,-0.022847890853881836,0
0.2522094249725342,-0.3659801483154297,-0.027869269251823425,0
0.13178235292434692,-0.42841243743896484,-0.02586604654788971,0
0.04171985387802124,-0.4954051971435547,-0.009456872940063477,0
-0.05149030685424805,-0.5550012588500977,0.016700997948646545,0
-0.19819694757461548,-0.5857009887695312,-0.01914660632610321,0
-0.0681423544883728,-0.6186027526855469,1.1871755123138428E-4,0
0.0611148476600647,-0.6752119064331055,0.05534739792346954,0
0.19683897495269775,-0.7172307968139648,0.10099613666534424,0
0.33651167154312134,-0.6681680679321289,0.10821454226970673,0
0.4727710485458374,-0.6333580017089844,0.1391008347272873,0
0.6341339349746704,-0.48128509521484375,0.15529367327690125,0
0.7174239158630371,-0.34363365173339844,0.2096223682165146,0
0.8540416955947876,-0.16540813446044922,0.22078442573547363,0
0.9312767386436462,-0.06145286560058594,0.22000053524971008,0
0.8961296081542969,0.018492698669433594,0.26726648211479187,0
0.8390448093414307,0.0863637924194336,0.3218632638454437,0
0.8316670656204224,0.16129398345947266,0.31422820687294006,0
0.8333970904350281,0.08786201477050781,0.40963247418403625,0
0.8515734672546387,0.0742940902709961,0.5769479274749756,0
0.8409526944160461,0.024892807006835938,0.6821017861366272,0
0.8711785674095154,-0.100921630859375,0.7153699398040771,0
0.9161326885223389,-0.22890567779541016,0.7242316007614136,0
0.9617129564285278,-0.30881595611572266,0.6821558475494385,0
1.003135085105896,-0.35506248474121094,0.6584276556968689,0
0.9973965883255005,-0.37485599517822266,0.7824026942253113,0
0.9636008143424988,-0.2534646987915039,0.7312772274017334,0
1.0787464380264282,-0.1034402847290039,0.6655986905097961,0
1.1801542043685913,0.024980545043945312,0.5737768411636353,0
1.2317957878112793,0.045737266540527344,0.6215865612030029,0
1.2001093626022339,0.08329391479492188,0.6417582035064697,0
1.252540946006775,0.09698009490966797,0.6079639792442322,0
1.3244472742080688,0.084442138671875,0.5678589344024658,0
1.3318867683410645,-0.042781829833984375,0.6243168115615845,0
1.2915949821472168,-0.12195587158203125,0.7149465084075928,0
1.2180119752883911,-0.16509246826171875,0.7917075753211975,0
1.1926301717758179,-0.1841726303100586,0.8377091288566589,0
1.1262280941009521,-0.15182113647460938,0.8135475516319275,0
1.0823824405670166,-0.1481161117553711,0.7304770946502686,0
0.9707068204879761,-0.16806411743164062,0.6816393136978149,0
0.9319889545440674,-0.2280588150024414,0.6430248022079468,0
0.937332034111023,-0.21140670776367188,0.5480360388755798,0
0.9509286880493164,-0.2635335922241211,0.6585338711738586,0
0.908646285533905,-0.23665714263916016,0.6642112731933594,0
0.905983030796051,-0.1290435791015625,0.6631743907928467,0
0.9806863069534302,0.015918731689453125,0.6269391775131226,0
0.9991278648376465,0.12194061279296875,0.5744374990463257,0
0.902157723903656,0.1062173843383789,0.5578258037567139,0
0.6804395318031311,0.08363056182861328,0.5390227437019348,0
0.7670863270759583,0.14682960510253906,0.5084399580955505,0
0.7680599689483643,0.10284233093261719,0.5638113021850586,0
0.8407852053642273,0.20422649383544922,0.5785133838653564,0
0.7970802783966064,0.32868385314941406,0.5765409469604492,0
0.7589259147644043,0.4166593551635742,0.5389364361763,0
0.6264315843582153,0.4874296188354492,0.5086339116096497,0
0.5309056043624878,0.5078945159912109,0.5424724817276001,0
0.4909522533416748,0.552058219909668,0.6255979537963867,0
0.3684026002883911,0.5389957427978516,0.7432544231414795,0
0.2635164260864258,0.49526309967041016,0.856837272644043,0
0.13794457912445068,0.4685525894165039,1.0066008567810059,0
0.08195173740386963,0.5512866973876953,1.2159008979797363,0
0.05694699287414551,0.6736841201782227,1.4484705924987793,0
0.07200539112091064,0.8472261428833008,1.6229872703552246,0
0.13590097427368164,1.0713825225830078,1.656416416168213,0
0.26452577114105225,1.2720394134521484,1.5565283298492432,0
0.5045149326324463,1.330606460571289,1.4002896547317505,0
0.8188331723213196,1.3336362838745117,1.2285432815551758,0
1.0542075634002686,1.2339773178100586,1.0418705940246582,0
1.3439925909042358,1.1155376434326172,0.8383723497390747,0
1.6090360879898071,0.9974002838134766,0.5875653028488159,0
1.8253531455993652,0.772669792175293,0.45920756459236145,0
2.0026779174804688,0.6321535110473633,0.33638760447502136,0
2.1319189071655273,0.5443029403686523,0.17154854536056519,0
2.2585201263427734,0.5442676544189453,-0.044946134090423584,0
2.201906442642212,0.6835126876831055,-0.24435356259346008,0
2.329253673553467,0.7733392715454102,-0.27740854024887085,0
2.4262137413024902,1.030482292175293,-0.07454898953437805,0
2.5363242626190186,1.487553596496582,0.3017672598361969,0
2.638766050338745,2.1325111389160156,0.6892408132553101,0
2.6773223876953125,2.9127378463745117,1.0712602138519287,0
2.674866199493408,3.7732906341552734,1.321117877960205,0
2.4220683574676514,4.520536422729492,1.3331186771392822,0
2.1352922916412354,5.059069633483887,1.1662936210632324,0
1.8946257829666138,5.296041488647461,0.9202204942703247,0
1.3556408882141113,5.121788024902344,0.70868980884552,0
0.4839496612548828,4.694437026977539,0.5884382128715515,0
-0.37978363037109375,4.162310600280762,0.46571657061576843,0
-0.9160207509994507,3.5852184295654297,0.3232477009296417,0
-1.1397429704666138,3.0373640060424805,0.20596112310886383,0
-1.0366328954696655,2.4255857467651367,0.1471572369337082,0
-0.7548776865005493,1.9438056945800781,0.15638135373592377,0
-0.4669332504272461,1.6063032150268555,0.2483644187450409,0
-0.25443947315216064,1.2264442443847656,0.4091978669166565,0
-0.04136526584625244,0.9119071960449219,0.5840727686882019,0
0.20760750770568848,0.6243877410888672,0.7347509264945984,0
0.40313881635665894,0.3901710510253906,0.8801282644271851,0
0.5133233666419983,0.14705181121826172,1.0130420923233032,0
0.6237434148788452,-0.06423377990722656,1.2222156524658203,0
0.7435733079910278,-0.2555856704711914,1.4197132587432861,0
0.8390915989875793,-0.43169212341308594,1.5702064037322998,0
0.8173495531082153,-0.6330575942993164,1.6671850681304932,0
0.7601672410964966,-0.8738193511962891,1.6632801294326782,0
0.6249603629112244,-1.0174379348754883,1.4988526105880737,0
0.4343021512031555,-1.037489891052246,1.1885372400283813,0
0.2061977982521057,-0.9602489471435547,0.6756776571273804,0
-0.08165287971496582,-0.9651708602905273,0.25409913063049316,0
-0.24308770895004272,-1.1575145721435547,-0.21752071380615234,0
-0.41057395935058594,-1.2073383331298828,-0.46464741230010986,0
-0.661931037902832,-1.0242729187011719,-0.7062597274780273,0
-0.6640809178352356,-1.1325836181640625,-1.044389009475708,0
-0.8070026636123657,-1.070694923400879,-1.3017895221710205,0
-1.0116331577301025,-0.8389244079589844,-1.5867993831634521,0
-1.2258474826812744,-0.7148008346557617,-2.003629684448242,0
-1.369718074798584,-0.5617485046386719,-2.417588710784912,0
-1.4712287187576294,-0.4489917755126953,-2.7512686252593994,0
-1.561098575592041,-0.17300987243652344,-3.051809310913086,0
-1.5907361507415771,0.12273883819580078,-3.2893409729003906,0
-1.7196345329284668,0.42154788970947266,-3.315939426422119,0
-1.6927237510681152,0.8765192031860352,-3.172604560852051,0
-1.5440493822097778,1.4158649444580078,-2.7234108448028564,0
-1.319317102432251,1.951064109802246,-2.013892650604248,0
-1.0182234048843384,2.388749122619629,-1.0290040969848633,0
-0.7397652864456177,2.7956714630126953,0.12977004051208496,0
-0.5481715202331543,3.202495574951172,1.1293611526489258,0
-0.6354548335075378,3.3956499099731445,1.8719780445098877,0
-0.8858399391174316,3.214837074279785,2.1386842727661133,0
-1.0711859464645386,2.842228889465332,1.8889598846435547,0
-1.081329584121704,2.337942123413086,1.3713233470916748,0
-1.1161160469055176,1.8479022979736328,0.822739839553833,0
-1.2368100881576538,1.3241214752197266,0.29363584518432617,0
-1.4042634963989258,0.8598594665527344,-0.1347639560699463,0
-1.5742038488388062,0.4168262481689453,-0.51059889793396,0
-1.646531343460083,-0.059906005859375,-0.7936058044433594,0
-1.6038099527359009,-0.48164939880371094,-1.0538287162780762,0
-1.379855990409851,-0.8387079238891602,-1.3327226638793945,0
-1.0615638494491577,-1.1381254196166992,-1.5904854536056519,0
-0.793893575668335,-1.3703384399414062,-1.7319560050964355,0
-0.6050718426704407,-1.5951790809631348,-1.7599456310272217,0
-0.461453378200531,-1.752892017364502,-1.7679650783538818,0
-0.4420367479324341,-1.90574312210083,-1.7321932315826416,0
-0.4155345559120178,-1.9917254447937012,-1.6403696537017822,0
-0.36541035771369934,-2.0685596466064453,-1.5182971954345703,0
-0.30857351422309875,-2.114957809448242,-1.3966107368469238,0
-0.27124249935150146,-2.1550521850585938,-1.2941157817840576,0
-0.2102450728416443,-2.0982580184936523,-1.1791670322418213,0
-0.16898685693740845,-1.987884521484375,-1.0418827533721924,0
-0.5431933403015137,-2.263845443725586,-0.9899916648864746,0
-0.3429286479949951,-1.7948899269104004,-0.9324979782104492,0
-0.33317989110946655,-1.5982413291931152,-0.9580204486846924,0
-0.4779249131679535,-1.4534735679626465,-1.0309076309204102,0
-0.7201018333435059,-1.3915348052978516,-1.108177661895752,0
-0.9571648836135864,-1.3954038619995117,-1.1925959587097168,0
-1.2229866981506348,-1.4911842346191406,-1.3345844745635986,0
-1.5370595455169678,-1.6140193939208984,-1.5344243049621582,0
-1.892399787902832,-1.8235068321228027,-1.7038735151290894,0
-2.1170358657836914,-2.0333147048950195,-1.8599979877471924,0
-2.3304104804992676,-2.2506046295166016,-1.99574613571167,0
-2.5322794914245605,-2.4945225715637207,-2.0728917121887207,0
-2.593251943588257,-2.6599011421203613,-2.12009596824646,0
-2.759479522705078,-2.923736572265625,-2.168670654296875,0
-2.848862648010254,-3.324069023132324,-2.202171802520752,0
-2.992889642715454,-3.5881571769714355,-2.19429349899292,0
-3.100482702255249,-3.7784104347229004,-2.1449317932128906,0
-2.970191240310669,-3.914182186126709,-2.0682997703552246,0
-2.7356760501861572,-4.031622409820557,-1.8707233667373657,0
-2.6193759441375732,-4.095152378082275,-1.5994369983673096,0
-2.446836471557617,-4.083433628082275,-1.3186235427856445,0
-2.285280704498291,-4.037327766418457,-1.0421481132507324,0
-2.1708569526672363,-3.9065561294555664,-0.8417878150939941,0
-2.017397165298462,-3.700652599334717,-0.7224347591400146,0
-1.875326156616211,-3.424236297607422,-0.6246774196624756,0
-1.7159568071365356,-3.120229721069336,-0.5130021572113037,0
-1.5323197841644287,-2.7070751190185547,-0.43822431564331055,0
-1.3509950637817383,-2.2539453506469727,-0.32442426681518555,0
-1.1248643398284912,-1.7535204887390137,-0.1838846206665039,0
-0.859663188457489,-1.22955322265625,-0.009816408157348633,0
-0.5923464894294739,-0.7034311294555664,0.1831362247467041,0
-0.26669782400131226,-0.18696022033691406,0.40424680709838867,0
0.10668456554412842,0.29601383209228516,0.6462116241455078,0
0.46692901849746704,0.7623157501220703,0.9328112602233887,0
0.8179372549057007,1.2310094833374023,1.2331035137176514,0
1.1714164018630981,1.6614274978637695,1.5446062088012695,0
1.541945457458496,2.055941581726074,1.8242924213409424,0
1.9251861572265625,2.3260679244995117,2.0793685913085938,0
2.228515625,2.589097023010254,2.2547919750213623,0
2.550745964050293,2.78531551361084,2.359903573989868,0
2.676858425140381,2.8983211517333984,2.324516534805298,0
2.645003318786621,2.9715309143066406,2.286525249481201,0
2.301239490509033,2.97653865814209,2.2522659301757812,0
1.8792338371276855,2.949437141418457,2.2092444896698,0
1.4669735431671143,2.921278953552246,2.215029239654541,0
1.1767890453338623,2.8892927169799805,2.2277672290802,0
1.0043305158615112,2.929501533508301,2.339944362640381,0
1.0005502700805664,2.9169578552246094,2.443218946456909,0
1.010833978652954,2.8131847381591797,2.4476850032806396,0
1.0911041498184204,2.594388961791992,2.3343007564544678,0
1.1991376876831055,2.277667999267578,2.1048097610473633,0
1.3116700649261475,1.9280948638916016,1.772264003753662,0
1.3477113246917725,1.5030889511108398,1.3854377269744873,0
1.2383462190628052,1.0699663162231445,1.0509448051452637,0
1.050635576248169,0.6096057891845703,0.8714947700500488,0
0.9212586283683777,0.13608551025390625,0.8407196998596191,0
0.9948202967643738,-0.2315044403076172,1.0293159484863281,0
1.1172475814819336,-0.5919466018676758,1.3241803646087646,0
1.1176159381866455,-0.8526620864868164,1.6867225170135498,0
1.0375070571899414,-1.0072269439697266,1.9062464237213135,0
0.731959342956543,-1.1375675201416016,1.9202055931091309,0
0.304969847202301,-1.1150436401367188,1.7115614414215088,0
-0.2968834638595581,-0.9950990676879883,1.2149548530578613,0
-1.1485825777053833,-0.5770263671875,0.4530506134033203,0
-2.1462433338165283,0.1917705535888672,-0.607513427734375,0
-3.022037982940674,1.0343542098999023,-1.9036781787872314,0
-3.8677778244018555,2.2293758392333984,-3.262216806411743,0
-4.472357749938965,3.3643741607666016,-4.39231014251709,0
-4.981822967529297,4.505687713623047,-5.160391807556152,0
-5.480613708496094,5.494598388671875,-5.373810768127441,0
-6.036174774169922,6.0068159103393555,-5.040911674499512,0
-6.532873630523682,6.075884819030762,-3.949441432952881,0
-6.8093767166137695,5.263181686401367,-2.302778959274292,0
-6.7044572830200195,3.5582847595214844,-0.32079875469207764,0
-5.93250846862793,1.5248956680297852,1.687978744506836,0
-4.410515785217285,-0.3356313705444336,3.351681709289551,0
-2.3385910987854004,-1.9116096496582031,4.107671737670898,0
-0.6260124444961548,-3.2415990829467773,3.9966964721679688,0
0.38917073607444763,-4.294403076171875,3.1387205123901367,0
0.6519427299499512,-5.076810836791992,1.5750280618667603,0
0.5364725589752197,-5.652920246124268,-0.14214861392974854,0
0.1857556849718094,-6.074840545654297,-1.7746140956878662,0
-0.24173936247825623,-6.234547138214111,-3.2562179565429688,0
-0.895269513130188,-6.131953239440918,-4.419748306274414,0
-1.3956687450408936,-5.824530601501465,-5.300574779510498,0
-1.713850498199463,-5.228761672973633,-5.926115036010742,0
-1.8156538009643555,-4.5673828125,-6.296909809112549,0
-1.9013280868530273,-3.6230340003967285,-6.362422943115234,0
-1.9363791942596436,-2.57321834564209,-6.191383361816406,0
-1.9941928386688232,-1.3585233688354492,-5.850137233734131,0
-2.0237855911254883,-0.15879249572753906,-5.304289817810059,0
-1.9337904453277588,0.7889680862426758,-4.5724778175354,0
-1.744980812072754,1.7071800231933594,-3.5804505348205566,0
-1.502146601676941,2.5715208053588867,-2.3152449131011963,0
-1.139435887336731,3.5417022705078125,-0.7125731706619263,0
-0.4086374044418335,3.8110809326171875,1.319754719734192,0
0.6014734506607056,4.092233657836914,3.3973560333251953,0
1.1555545330047607,4.114609718322754,4.036925792694092,0
1.2258120775222778,3.5247421264648438,3.393413782119751,0
1.2846062183380127,2.6059226989746094,2.105212926864624,0
1.233892798423767,1.7297258377075195,0.6499301195144653,0
1.4413890838623047,0.901524543762207,-0.7098369002342224,0
1.6872942447662354,0.3944263458251953,-1.6816961765289307,0
1.9409441947937012,0.12480354309082031,-2.254974842071533,0
2.111483335494995,-0.024499893188476562,-2.387352466583252,0
2.263484001159668,-0.11793041229248047,-2.12267804145813,0
2.6599979400634766,-0.27721691131591797,-1.4861507415771484,0
2.71682071685791,-0.38013362884521484,-0.7827379107475281,0
1.970532774925232,-0.38376617431640625,-0.18992865085601807,0
0.504088819026947,-0.2813434600830078,0.2542802691459656,0
-0.5494269132614136,-0.19756603240966797,0.4813411831855774,0
-1.0782550573349,-0.17316150665283203,0.6358389258384705,0
-1.374445915222168,-0.2104787826538086,0.6276103854179382,0
-1.519438624382019,-0.25922489166259766,0.37309563159942627,0
-1.6381523609161377,-0.32900142669677734,-0.08680903911590576,0
-1.5993025302886963,-0.36483287811279297,-0.5627321004867554,0
-1.4869571924209595,-0.4002971649169922,-0.9392529726028442,0
-1.4091434478759766,-0.37571239471435547,-1.1555426120758057,0
-1.3016841411590576,-0.3940868377685547,-1.1959799528121948,0
-1.1050357818603516,-0.4936981201171875,-1.1167314052581787,0
-0.9724587202072144,-0.638615608215332,-0.9361083507537842,0
-0.79426109790802,-0.7666454315185547,-0.6825324296951294,0
-0.5586438179016113,-0.8777713775634766,-0.44504672288894653,0
-0.3282148838043213,-0.9480829238891602,-0.2963221073150635,0
-0.06273198127746582,-0.9297981262207031,-0.21838980913162231,0
0.20195132493972778,-0.9138383865356445,-0.25331154465675354,0
0.46370935440063477,-0.6921215057373047,-0.4022301733493805,0
0.5741930603981018,-0.568598747253418,-0.4428679943084717,0
0.7032511234283447,-0.4834108352661133,-0.4465963840484619,0
0.7457292675971985,-0.4150047302246094,-0.4435785710811615,0
0.7736632823944092,-0.3370494842529297,-0.3227926194667816,0
0.8498443365097046,-0.21121978759765625,-0.3061233162879944,0
0.7617226839065552,-0.29097843170166016,-0.2735235095024109,0
0.7221764326095581,-0.42782115936279297,-0.27519574761390686,0
0.6235540509223938,-0.5570964813232422,-0.2972658574581146,0
0.621424674987793,-0.7529163360595703,-0.24926361441612244,0
0.5028261542320251,-0.8980321884155273,-0.1314731240272522,0
0.404293954372406,-1.1120424270629883,-0.035090237855911255,0
0.4121277928352356,-1.129410743713379,0.03501616418361664,0
0.3496062755584717,-1.132054328918457,0.13386482000350952,0
0.2146894931793213,-1.2179718017578125,0.21862438321113586,0
0.09107530117034912,-1.236410140991211,0.3086814284324646,0
0.048251986503601074,-1.1300277709960938,0.34187009930610657,0
0.07241988182067871,-0.9634418487548828,0.21497713029384613,0
0.09940600395202637,-1.0259580612182617,0.2772907614707947,0
0.17968308925628662,-1.0876760482788086,0.28238722681999207,0
0.3060370683670044,-1.0074901580810547,0.3353854715824127,0
0.3993173837661743,-0.9649248123168945,0.4263423681259155,0
0.4497029781341553,-0.8212814331054688,0.5142979025840759,0
0.6049951314926147,-0.6126480102539062,0.5484538078308105,0
0.6562238931655884,-0.43489646911621094,0.6266201138496399,0
0.6431831121444702,-0.1542806625366211,0.659987211227417,0
0.6659191846847534,0.1213531494140625,0.6674131155014038,0
0.7743309736251831,0.4660377502441406,0.5482000112533569,0
0.8027793169021606,0.5926275253295898,0.4651462435722351,0
0.7581958770751953,0.7140951156616211,0.34154707193374634,0
0.7864495515823364,0.7945079803466797,0.2608906626701355,0
0.8444235324859619,0.8003768920898438,0.25384992361068726,0
0.9009546041488647,0.6982631683349609,0.36080294847488403,0
0.9942169189453125,0.6436538696289062,0.5216265916824341,0
1.0642752647399902,0.5431804656982422,0.800808310508728,0
1.115842580795288,0.5068483352661133,1.081092119216919,0
1.2780567407608032,0.6277990341186523,1.3217591047286987,0
1.5006096363067627,0.8221521377563477,1.4895391464233398,0
1.7449605464935303,1.11370849609375,1.5610761642456055,0
2.056490659713745,1.4210538864135742,1.366992712020874,0
2.2744715213775635,1.4595575332641602,1.0706515312194824,0
2.4318594932556152,1.4518327713012695,0.8498998880386353,0
2.5667805671691895,1.3979511260986328,0.7485345602035522,0
2.624246835708618,1.431900978088379,0.7262895703315735,0
2.6358766555786133,1.5273542404174805,0.7375538349151611,0
2.5493056774139404,1.6675186157226562,0.7008332014083862,0
2.383882761001587,1.7614736557006836,0.6326295137405396,0
2.168382406234741,1.811650276184082,0.5949951410293579,0
1.9840989112854004,1.9400272369384766,0.6523527503013611,0
1.8450342416763306,2.0460128784179688,0.8548083901405334,0
1.823014497756958,2.199007034301758,1.1709141731262207,0
1.782014012336731,2.4229183197021484,1.5113848447799683,0
1.7797935009002686,2.7057132720947266,1.8247826099395752,0
1.682865858078003,3.0043230056762695,2.0907907485961914,0
1.6065462827682495,3.2781143188476562,2.257819175720215,0
1.5653963088989258,3.5319290161132812,2.190824031829834,0
1.4873859882354736,3.6198883056640625,1.8650946617126465,0
1.3602643013000488,3.64260196685791,1.2607793807983398,0
1.2095482349395752,3.6216020584106445,0.5618139505386353,0
1.089261531829834,3.482785224914551,-0.047525644302368164,0
1.1395158767700195,3.2550315856933594,-0.4757256805896759,0
1.0961740016937256,2.9385147094726562,-0.6265301704406738,0
1.1787617206573486,2.6195640563964844,-0.43013134598731995,0
1.322582483291626,2.2171573638916016,0.10695116221904755,0
1.415567398071289,1.7532424926757812,0.813380777835846,0
0.803969144821167,1.1346616744995117,1.5316400527954102,0
-0.1684497594833374,0.6317892074584961,2.1081881523132324,0
-1.0498963594436646,0.22082138061523438,2.4199650287628174,0
-1.6937235593795776,-0.05470752716064453,2.4491565227508545,0
-2.035922050476074,-0.17498207092285156,2.175973415374756,0
-2.340543746948242,0.042265892028808594,1.6867481470108032,0
-2.7001798152923584,0.4464244842529297,1.1763429641723633,0
-2.8778433799743652,0.8891935348510742,0.7019510269165039,0
-2.94488787651062,1.236520767211914,0.3390350341796875,0
-2.828589916229248,1.4139766693115234,-0.02741086483001709,0
-2.5371198654174805,1.3900337219238281,-0.4575144052505493,0
-2.1984267234802246,1.2431421279907227,-0.9627067446708679,0
-1.957171082496643,1.1904735565185547,-1.467698097229004,0
-1.762231469154358,1.3629379272460938,-1.9101788997650146,0
-1.714074730873108,1.6284074783325195,-2.2814781665802,0
-1.7679232358932495,2.04879093170166,-2.686101198196411,0
-1.7832963466644287,2.4901676177978516,-3.0523180961608887,0
-1.8278346061706543,2.8929195404052734,-3.272134780883789,0
-1.8302361965179443,3.219005584716797,-3.361511707305908,0
-1.6860730648040771,3.538043975830078,-3.3075501918792725,0
-1.564602255821228,3.7569589614868164,-3.0828466415405273,0
-1.214333176612854,3.816372871398926,-2.6529834270477295,0
-0.3878933787345886,3.4538564682006836,-2.122260570526123,0
0.5359868407249451,2.894960403442383,-1.4386008977890015,0
1.3015644550323486,2.2929792404174805,-0.6040217876434326,0
1.8413238525390625,1.9300727844238281,0.13805699348449707,0
2.3358325958251953,1.6048517227172852,0.5711221694946289,0
2.5028843879699707,1.3071699142456055,0.7783298492431641,0
2.322498083114624,1.0843496322631836,0.6867983341217041,0
2.1337151527404785,1.1989421844482422,0.39536213874816895,0
1.6806529760360718,1.1335906982421875,0.05323934555053711,0
1.0776785612106323,1.1441240310668945,-0.3153824806213379,0
0.48943883180618286,1.2016944885253906,-0.7777137756347656,0
0.032809674739837646,1.098123550415039,-1.1472856998443604,0
-0.3305581212043762,1.0128507614135742,-1.51283597946167,0
-0.5000249147415161,0.8454532623291016,-1.8390147686004639,0
-0.7133902907371521,0.5219354629516602,-2.0854175090789795,0
-1.1379450559616089,0.16202831268310547,-2.3408212661743164,0
-1.1886976957321167,0.09564781188964844,-2.519408941268921,0
-1.4399102926254272,-0.22750473022460938,-2.7602620124816895,0
-1.6691315174102783,-0.5106277465820312,-2.9295058250427246,0
-2.047551155090332,-1.0238380432128906,-3.0703957080841064,0
-2.4083707332611084,-1.453394889831543,-3.3005919456481934,0
-2.8791263103485107,-1.8493742942810059,-3.505676746368408,0
-3.4273133277893066,-2.2473831176757812,-3.712494134902954,0
-3.869518756866455,-2.625608444213867,-3.835479259490967,0
-4.297409534454346,-3.000535488128662,-3.963705539703369,0
-4.656625270843506,-3.3075051307678223,-3.996805429458618,0
-4.933403968811035,-3.558579921722412,-3.9346816539764404,0
-5.142353534698486,-3.794569492340088,-3.8608498573303223,0
-5.302886009216309,-3.9773898124694824,-3.7174906730651855,0
-5.432151794433594,-4.119268894195557,-3.5423531532287598,0
-5.351011276245117,-4.165674686431885,-3.289033889770508,0
-4.80025053024292,-4.126852512359619,-3.0810325145721436,0
-3.907345771789551,-4.010682582855225,-2.845853805541992,0
-3.161461114883423,-3.8561549186706543,-2.5849788188934326,0
-2.566575527191162,-3.7690305709838867,-2.2999842166900635,0
-2.1606662273406982,-3.7473230361938477,-2.0664470195770264,0
-1.8315081596374512,-3.7411575317382812,-1.8139779567718506,0
-1.5816112756729126,-3.7676234245300293,-1.565638542175293,0
-1.3826080560684204,-3.798109531402588,-1.3090181350708008,0
-1.3732763528823853,-3.8540802001953125,-1.1086320877075195,0
-1.3524943590164185,-3.8611273765563965,-0.9361131191253662,0
-1.4252046346664429,-3.8165626525878906,-0.7968847751617432,0
-1.540644884109497,-3.710376739501953,-0.732602596282959,0
-1.6120003461837769,-3.6331052780151367,-0.7010273933410645,0
-1.7387800216674805,-3.6059093475341797,-0.6551058292388916,0
-1.8100666999816895,-3.664320945739746,-0.6242096424102783,0
-1.9421652555465698,-3.8056721687316895,-0.5465774536132812,0
-1.9478123188018799,-3.893484115600586,-0.4606139659881592,0
-2.0275156497955322,-4.063954830169678,-0.3832573890686035,0
-2.07539439201355,-4.421850204467773,-0.3127462863922119,0
-2.0961227416992188,-4.889965534210205,-0.2929370403289795,0
-2.1259000301361084,-5.25723123550415,-0.26725292205810547,0
-2.0698564052581787,-5.260281085968018,-0.21964740753173828,0
-1.8551106452941895,-4.875285625457764,-0.14574313163757324,0
-1.4997799396514893,-4.135864734649658,-0.05313825607299805,0
-0.9694110155105591,-3.030162811279297,-0.021307706832885742,0
-0.4254920780658722,-1.7303428649902344,-0.039365530014038086,0
0.1618472933769226,-0.38678932189941406,-0.12552237510681152,0
0.6497805118560791,0.9937639236450195,-0.20254015922546387,0
1.0033226013183594,2.579014778137207,-0.21232366561889648,0
1.4823615550994873,4.294578552246094,-0.14127349853515625,0
1.700169563293457,5.922460556030273,0.11592817306518555,0
1.9675869941711426,7.50554084777832,0.44208478927612305,0
2.076106309890747,8.637266159057617,0.9778826236724854,0
2.0781285762786865,9.466526985168457,1.8152737617492676,0
1.822583556175232,9.733067512512207,2.8862905502319336,0
1.2372376918792725,8.777547836303711,4.090085506439209,0
0.49856775999069214,6.79985237121582,5.046344757080078,0
-0.09741952270269394,4.699943542480469,5.682560443878174,0
-0.25254127383232117,2.754511833190918,5.999988555908203,0
-0.07723873108625412,1.1391057968139648,6.058754920959473,0
0.44545167684555054,0.0792551040649414,5.933250904083252,0
1.1850117444992065,-0.4959430694580078,5.397500038146973,0
2.0385360717773438,-0.6042461395263672,4.503887176513672,0
2.7294535636901855,-0.4207439422607422,3.2049813270568848,0
3.0699880123138428,-0.1916179656982422,1.7650067806243896,0
2.936237335205078,-0.11236572265625,0.41130876541137695,0
2.348668336868286,0.006546974182128906,-0.6522903442382812,0
1.3717117309570312,0.24429798126220703,-1.4129865169525146,0
0.43049630522727966,0.6033287048339844,-1.9244554042816162,0
-0.23434975743293762,1.0572748184204102,-2.285283327102661,0
-0.5492422580718994,1.505563735961914,-2.5432400703430176,0
-0.5712300539016724,1.833230972290039,-2.7309412956237793,0
-0.5052099227905273,2.085556983947754,-2.837347984313965,0
-0.670956015586853,2.2553024291992188,-2.839890718460083,0
-0.8407176733016968,2.08695125579834,-2.92092227935791,0
-1.4200602769851685,2.710230827331543,-2.9038186073303223,0
-2.123880386352539,3.436638832092285,-2.8011603355407715,0
-2.8333215713500977,4.384808540344238,-2.4182777404785156,0
-3.455699920654297,5.398323059082031,-1.7630211114883423,0
-3.8912174701690674,6.176454544067383,-0.9958853721618652,0
-3.931241989135742,5.983954429626465,-0.17439234256744385,0
-3.5649964809417725,4.561168670654297,0.581449031829834,0
-2.991093158721924,2.655674934387207,1.1166905164718628,0
-2.3239874839782715,0.7040367126464844,1.477933645248413,0
-1.6330686807632446,-0.9954061508178711,1.4030166864395142,0
-0.9585226774215698,-2.4976186752319336,0.8529074192047119,0
-0.46191859245300293,-3.7660675048828125,-0.01784491539001465,0
-0.32279086112976074,-4.675536155700684,-1.5009517669677734,0
-0.3746057152748108,-5.2181854248046875,-3.1392898559570312,0
-0.629940390586853,-5.532220363616943,-4.61704158782959,0
-1.2575732469558716,-5.523998737335205,-5.766244411468506,0
-1.8102431297302246,-5.504330635070801,-6.387180328369141,0
-1.9976205825805664,-5.43951416015625,-6.621227264404297,0
-2.334477663040161,-4.923025131225586,-6.536826133728027,0
-2.7903921604156494,-4.15632438659668,-6.115008354187012,0
-3.479032039642334,-3.2091856002807617,-5.46757698059082,0
-4.267118453979492,-2.0939993858337402,-4.442079067230225,0
-4.9261555671691895,-0.7228555679321289,-3.164947986602783,0
-5.385702133178711,0.6042890548706055,-1.5542268753051758,0
-5.42030668258667,2.139920234680176,0.21754956245422363,0
-4.427435874938965,3.3810081481933594,1.1760478019714355,0
-3.176642894744873,3.940333366394043,1.1930917501449585,0
-2.1722636222839355,4.005132675170898,0.7460236549377441,0
-1.4154318571090698,3.757624626159668,0.057723045349121094,0
-0.891552209854126,3.3080434799194336,-0.6197735667228699,0
-0.3909938335418701,2.850231170654297,-1.3282709121704102,0
0.06511402130126953,2.032693862915039,-2.020122528076172,0
0.5689855813980103,1.0927515029907227,-2.5066277980804443,0
1.0844628810882568,0.44217967987060547,-2.8245832920074463,0
1.4368469715118408,-0.19637680053710938,-2.831333637237549,0
1.7316784858703613,-0.6742172241210938,-2.5069739818573,0
2.091344118118286,-1.0078248977661133,-1.9607200622558594,0
2.147719383239746,-1.185063362121582,-1.3970105648040771,0
1.8433541059494019,-1.2202367782592773,-0.9384649991989136,0
1.3109822273254395,-1.3238677978515625,-0.5829248428344727,0
0.5529771447181702,-1.3524551391601562,-0.5171393752098083,0
-0.22589612007141113,-1.3062219619750977,-0.6121429204940796,0
-0.8284494876861572,-1.218876838684082,-0.8229284882545471,0
-1.114547848701477,-1.0714435577392578,-1.223832607269287,0
-1.1155184507369995,-0.9524869918823242,-1.6282622814178467,0
-0.9481908082962036,-0.8524074554443359,-1.9543123245239258,0
-0.7031947374343872,-0.9170827865600586,-2.1099932193756104,0
-0.49496471881866455,-1.076995849609375,-2.0775208473205566,0
-0.2465219497680664,-1.2196693420410156,-1.920159101486206,0
-0.10624182224273682,-1.4934272766113281,-1.5602502822875977,0
-0.14626502990722656,-1.6853704452514648,-1.0878536701202393,0
-0.1756516695022583,-1.8697667121887207,-0.6031947731971741,0
-0.13031244277954102,-1.874467372894287,-0.2142588198184967,0
-0.1446080207824707,-1.7331514358520508,0.008541896939277649,0
-0.12547600269317627,-1.4053325653076172,0.1308724731206894,0
-0.039243102073669434,-0.9055414199829102,0.15873050689697266,0
0.05687308311462402,-0.3415679931640625,0.16572056710720062,0
0.2113121747970581,0.16701126098632812,0.0966791957616806,0
0.3097043037414551,0.4433622360229492,0.11718426644802094,0
0.4120182394981384,0.5858135223388672,0.0869053304195404,0
0.3434262275695801,0.5968990325927734,0.1121339201927185,0
0.27371490001678467,0.6584968566894531,0.0834185853600502,0
0.30808091163635254,0.8279485702514648,-0.06613379716873169,0
0.3723370432853699,0.8110408782958984,-0.12838774919509888,0
0.3826197385787964,0.6773557662963867,-0.12244229018688202,0
0.503890335559845,0.46051883697509766,-0.09648282825946808,0
0.6234235167503357,0.14388179779052734,0.03784877061843872,0
0.7220438122749329,-0.2556905746459961,0.1845269650220871,0
0.7998405694961548,-0.6543912887573242,0.36488625407218933,0
0.8640207052230835,-1.133514404296875,0.6384356021881104,0
1.0009377002716064,-1.5662097930908203,0.8108727931976318,0
1.11000657081604,-1.890401840209961,0.9438045024871826,0
1.0355662107467651,-2.127808094024658,1.0322167873382568,0
1.1078345775604248,-2.3263964653015137,1.0373300313949585,0
1.0035157203674316,-2.414547920227051,1.0525095462799072,0
0.8608841896057129,-2.3375043869018555,1.0612919330596924,0
0.751524806022644,-2.0309362411499023,1.1190944910049438,0
0.6180859804153442,-1.3157634735107422,1.164196491241455,0
0.5349652767181396,-0.4985017776489258,1.2399636507034302,0
0.5692105293273926,0.12185001373291016,1.269791603088379,0
0.6347430944442749,0.4713773727416992,1.1931989192962646,0
0.7770168781280518,0.7416238784790039,1.021194338798523,0
0.8405358791351318,0.7126398086547852,0.980400562286377,0
0.9684421420097351,0.7026844024658203,0.9985769987106323,0
0.8874930739402771,0.7546272277832031,0.8817946314811707,0
1.0645252466201782,0.799067497253418,0.7735123634338379,0
1.3441622257232666,0.7428369522094727,0.8437210917472839,0
1.5925512313842773,0.7152214050292969,0.9537450075149536,0
1.6998111009597778,0.7472667694091797,1.1488037109375,0
1.790526270866394,0.8245658874511719,1.4407925605773926,0
1.852528691291809,0.9589939117431641,1.7533427476882935,0
1.875632643699646,1.262782096862793,2.0583629608154297,0
1.8758740425109863,1.5634193420410156,2.083570718765259,0
1.95039963722229,1.7220239639282227,1.755256175994873,0
2.0911672115325928,1.6883983612060547,1.241536021232605,0
2.26650333404541,1.5200786590576172,0.760672926902771,0
2.5621299743652344,1.3367414474487305,0.35853713750839233,0
2.8199925422668457,1.2005548477172852,0.05915623903274536,0
3.073674201965332,1.121063232421875,-0.08458566665649414,0
3.270787477493286,1.103072166442871,-0.005233466625213623,0
3.4165549278259277,1.1346969604492188,0.23554915189743042,0
3.6719396114349365,1.2949752807617188,0.7098281979560852,0
3.970797061920166,1.5720024108886719,1.2642698287963867,0
4.062773704528809,2.054215431213379,1.8406178951263428,0
3.924699068069458,2.6433029174804688,2.2961318492889404,0
3.561552047729492,3.248072624206543,2.544923782348633,0
2.788712978363037,3.786846160888672,2.6108832359313965,0
2.0458006858825684,4.228314399719238,2.5183944702148438,0
1.4279465675354004,4.3787946701049805,2.259230613708496,0
0.9826834201812744,4.276943206787109,1.8161745071411133,0
0.6909505128860474,3.9399852752685547,1.186640739440918,0
0.5431997776031494,3.576430320739746,0.30798715353012085,0
0.48643314838409424,3.2892723083496094,-0.5641726851463318,0
0.3616570234298706,3.040215492248535,-1.0422722101211548,0
0.29916512966156006,2.9058141708374023,-1.0055568218231201,0
0.3311837911605835,2.6325883865356445,-0.5620373487472534,0
0.4500988721847534,2.1683340072631836,0.17506058514118195,0
0.37339508533477783,1.5995607376098633,1.0627740621566772,0
0.002861499786376953,0.9218015670776367,1.8151458501815796,0
-0.5155869722366333,0.36269092559814453,2.2980942726135254,0
-1.1866614818572998,0.07088947296142578,2.5638999938964844,0
-1.8302361965179443,0.14722728729248047,2.640986442565918,0
-2.315761089324951,0.560887336730957,2.577174663543701,0
-2.6655972003936768,0.9891071319580078,2.3836922645568848,0
-2.820756435394287,1.388920783996582,2.000697612762451,0
-2.8110876083374023,1.7529067993164062,1.5284314155578613,0
-2.6018452644348145,1.970611572265625,0.9778015613555908,0
-2.308908224105835,1.922133445739746,0.2506145238876343,0
-2.1089377403259277,1.7386884689331055,-0.47005128860473633,0
-2.043116569519043,1.623103141784668,-1.2510228157043457,0
-2.1648547649383545,1.756570816040039,-1.8320592641830444,0
-2.283816337585449,2.0642080307006836,-2.349853515625,0
-2.2430264949798584,2.493040084838867,-2.970524311065674,0
-2.1647188663482666,2.918583869934082,-3.582676410675049,0
-2.1134793758392334,3.326441764831543,-4.048178672790527,0
-2.1009535789489746,3.6903371810913086,-4.27457332611084,0
-1.9471814632415771,4.079827308654785,-4.169971466064453,0
-1.8103649616241455,4.263326644897461,-3.7487545013427734,0
-1.380164623260498,4.253739356994629,-3.1410226821899414,0
-0.5742068886756897,3.822299003601074,-2.368210554122925,0
0.17528294026851654,3.0102291107177734,-1.3706570863723755,0
0.8515797853469849,2.307973861694336,-0.4821779727935791,0
1.2904438972473145,1.6698026657104492,0.13569855690002441,0
1.663644552230835,1.4256744384765625,0.31104326248168945,0
1.978063702583313,1.1901817321777344,0.2927815914154053,0
2.0146636962890625,0.915257453918457,0.24190616607666016,0
2.103067398071289,1.0740203857421875,0.05396437644958496,0
2.0795960426330566,1.0771865844726562,-0.09052777290344238,0
1.6215109825134277,1.0895757675170898,-0.22211551666259766,0
1.179258108139038,1.079935073852539,-0.4748876094818115,0
0.7674205899238586,1.019547462463379,-0.6554334163665771,0
0.26353174448013306,0.7984619140625,-0.8406469821929932,0
-0.14303463697433472,0.5605287551879883,-1.1176173686981201,0
-0.41759711503982544,0.5112237930297852,-1.4002970457077026,0
-0.7490068674087524,0.2651386260986328,-1.6741396188735962,0
-1.036840796470642,0.016042709350585938,-1.9413636922836304,0
-1.322469711303711,-0.36054229736328125,-2.2064144611358643,0
-1.59275484085083,-0.7114877700805664,-2.4498496055603027,0
-1.9543510675430298,-1.2662944793701172,-2.6812245845794678,0
-2.143226146697998,-1.6970767974853516,-2.8095126152038574,0
-2.5227463245391846,-2.1878108978271484,-3.0383782386779785,0
-2.941554546356201,-2.6926279067993164,-3.2486307621002197,0
-3.3313684463500977,-3.1250624656677246,-3.4625003337860107,0
-3.7959485054016113,-3.561476707458496,-3.6468849182128906,0
-4.203821659088135,-3.858327865600586,-3.6752207279205322,0
-4.619126796722412,-4.1186652183532715,-3.585906744003296,0
-4.871431350708008,-4.321146011352539,-3.536721706390381,0
-4.910128593444824,-4.37047815322876,-3.381190299987793,0
-4.768002510070801,-4.276858329772949,-3.2118749618530273,0
-4.201979637145996,-4.167604923248291,-3.1407041549682617,0
-3.593636989593506,-4.105313777923584,-3.035547971725464,0
-3.1626381874084473,-4.159692764282227,-2.7880053520202637,0
-2.755570411682129,-4.173114776611328,-2.526693105697632,0
-2.3602535724639893,-4.1865105628967285,-2.296623706817627,0
-1.9764950275421143,-4.2143683433532715,-2.12141752243042,0
-1.6879522800445557,-4.237616062164307,-1.9028136730194092,0
-1.4755511283874512,-4.215624809265137,-1.6670494079589844,0
-1.363077163696289,-4.193840026855469,-1.4572410583496094,0
-1.2952895164489746,-4.145930767059326,-1.2685909271240234,0
-1.2790626287460327,-4.019266128540039,-1.0772521495819092,0
-1.3356884717941284,-3.8783702850341797,-0.9623570442199707,0
-1.45271897315979,-3.746962070465088,-0.9027550220489502,0
-1.6033155918121338,-3.6774115562438965,-0.896477460861206,0
-1.801328420639038,-3.6383118629455566,-0.9200794696807861,0
-2.0269837379455566,-3.672515392303467,-0.9833893775939941,0
-2.2320070266723633,-3.7725725173950195,-1.055577278137207,0
-2.492649555206299,-3.9118599891662598,-1.1154916286468506,0
-2.7347443103790283,-3.9727935791015625,-1.163792371749878,0
-2.8869473934173584,-3.914330005645752,-1.2157689332962036,0
-2.9852778911590576,-3.9488062858581543,-1.225043535232544,0
-2.965066909790039,-3.819766044616699,-1.1881200075149536,0
-2.841101884841919,-3.5222206115722656,-1.0820691585540771,0
-2.583204746246338,-2.9220829010009766,-0.9843409061431885,0
-2.125938653945923,-2.0696916580200195,-0.8236002922058105,0
-1.6646313667297363,-1.0226125717163086,-0.6001009941101074,0
-1.1265273094177246,0.1304759979248047,-0.3545677661895752,0
-0.6949508190155029,1.284250259399414,-0.0655665397644043,0
-0.29489395022392273,2.4411392211914062,0.23306846618652344,0
0.07873948663473129,3.555818557739258,0.5143239498138428,0
0.33533793687820435,4.616483688354492,0.8682103157043457,0
0.5682874917984009,5.582492828369141,1.308501958847046,0
0.8496983647346497,6.355650901794434,1.8592069149017334,0
1.130769968032837,6.842401504516602,2.526207447052002,0
1.505632758140564,7.013728141784668,3.4619688987731934,0
1.9881197214126587,6.6112060546875,4.534119606018066,0
2.3245248794555664,5.393617630004883,5.502501010894775,0
2.383119583129883,3.806149482727051,6.469759941101074,0
2.1224746704101562,2.456083297729492,6.950015068054199,0
1.6624935865402222,1.5124797821044922,6.885538101196289,0
1.2441041469573975,1.1059999465942383,6.3188982009887695,0
1.0794233083724976,1.0945978164672852,5.357122898101807,0
1.16340172290802,1.2838497161865234,4.147799491882324,0
1.3104920387268066,1.477431297302246,2.87591290473938,0
1.5756778717041016,1.7091941833496094,1.6436731815338135,0
1.8566217422485352,1.8770990371704102,0.3697059154510498,0
1.9836223125457764,2.0684070587158203,-0.8660444021224976,0
1.773759365081787,2.2553911209106445,-1.866637110710144,0
1.188843011856079,2.4937973022460938,-2.492173433303833,0
0.5341683030128479,2.817418098449707,-2.651902914047241,0
-0.07449406385421753,3.144831657409668,-2.3922905921936035,0
-0.49481290578842163,3.456594467163086,-1.8707623481750488,0
-0.7577600479125977,3.4723825454711914,-1.2694494724273682,0
-0.8717600107192993,3.4021644592285156,-0.6900043487548828,0
-1.018999695777893,3.2501001358032227,-0.2316272258758545,0
-1.2283169031143188,2.9776687622070312,-0.0354388952255249,0
-1.5245238542556763,2.5805559158325195,-0.14743173122406006,0
-2.0773844718933105,2.103015899658203,-0.6293607950210571,0
-2.6546502113342285,1.3361434936523438,-1.124666452407837,0
-3.2821569442749023,0.48950767517089844,-1.4205536842346191,0
-3.739912509918213,-0.3505105972290039,-1.4504735469818115,0
-3.918747663497925,-1.1992816925048828,-1.183945894241333,0
-3.8481569290161133,-1.8695144653320312,-0.7825272679328918,0
-3.6231837272644043,-2.413060188293457,-0.46087050437927246,0
-3.3607003688812256,-2.888263702392578,-0.3865128755569458,0
-2.9541306495666504,-3.4460206031799316,-0.5027316808700562,0
-2.034668445587158,-3.767940044403076,-0.8648018836975098,0
-1.2280151844024658,-3.9063515663146973,-1.2639256715774536,0
-0.7633212804794312,-3.827394962310791,-1.697746992111206,0
-0.6722192764282227,-3.535435199737549,-2.1910862922668457,0
-0.877108633518219,-3.056328773498535,-2.688154697418213,0
-1.169468879699707,-2.7578892707824707,-3.109457492828369,0
-1.592543363571167,-2.3525190353393555,-3.4057154655456543,0
-2.011105537414551,-1.9549689292907715,-3.5476279258728027,0
-2.455976963043213,-1.6036262512207031,-3.6428394317626953,0
-2.826503276824951,-1.1696643829345703,-3.5486583709716797,0
-3.064861297607422,-0.6727972030639648,-3.4012889862060547,0
-3.184323310852051,-0.044241905212402344,-3.188279628753662,0
-2.9921298027038574,0.528895378112793,-2.9596669673919678,0
-2.5750350952148438,0.9864530563354492,-2.616875648498535,0
-2.031252861022949,1.569523811340332,-1.7854604721069336,0
-1.3945454359054565,2.095792770385742,-1.0512830018997192,0
-0.8620657920837402,2.409510612487793,-0.34276556968688965,0
-0.2795666456222534,2.6016149520874023,0.1516416072845459,0
0.20768606662750244,2.490504264831543,0.292333722114563,0
0.5311833620071411,2.1938161849975586,0.07991015911102295,0
0.7424561381340027,1.8195581436157227,-0.5380722284317017,0
0.986758291721344,1.3871841430664062,-1.284122109413147,0
1.1396691799163818,0.8922481536865234,-2.0626940727233887,0
1.3454910516738892,0.4379310607910156,-2.6319379806518555,0
1.529359221458435,0.10581111907958984,-2.9815430641174316,0
1.7319327592849731,-0.04895782470703125,-3.0045695304870605,0
2.0011723041534424,-0.1052236557006836,-2.6199591159820557,0
2.32783842086792,-0.21346187591552734,-2.0000429153442383,0
2.516378402709961,-0.39250659942626953,-1.1342666149139404,0
2.1694388389587402,-0.5441904067993164,-0.2504445016384125,0
1.0839022397994995,-0.5898399353027344,0.42374491691589355,0
-0.09031641483306885,-0.6277961730957031,0.6736845374107361,0
-0.8830922842025757,-0.7154865264892578,0.38840582966804504,0
-1.2762316465377808,-0.7021455764770508,-0.22356052696704865,0
-1.6125017404556274,-0.5161552429199219,-0.9342302083969116,0
-1.70292329788208,-0.6431179046630859,-1.4406909942626953,0
-1.5064208507537842,-0.8411102294921875,-1.790736436843872,0
-1.225861668586731,-1.0813283920288086,-1.8710575103759766,0
-0.9901036024093628,-1.3900442123413086,-1.7111879587173462,0
-0.8803373575210571,-1.7791595458984375,-1.4745848178863525,0
-0.7679574489593506,-1.9832592010498047,-1.05683434009552,0
-0.6202313899993896,-2.2513232231140137,-0.7038044929504395,0
-0.5264772176742554,-2.3729171752929688,-0.415693998336792,0
-0.41080808639526367,-2.324368476867676,-0.2075594961643219,0
-0.2905449867248535,-2.376133441925049,-0.09724128246307373,0
-0.2400074005126953,-2.1694416999816895,-0.03568888083100319,0
-0.13703930377960205,-1.771561622619629,0.029026156291365623,0
-0.08176243305206299,-1.304642677307129,0.0776132270693779,0
0.024233698844909668,-0.7663497924804688,0.10564079880714417,0
0.13593029975891113,-0.3551626205444336,0.0563863180577755,0
0.40706145763397217,0.008099555969238281,-0.13644851744174957,0
0.5430454015731812,0.015027999877929688,-0.26880311965942383,0
0.6010639667510986,0.03665447235107422,-0.42638880014419556,0
0.6861588954925537,0.11359405517578125,-0.5227665305137634,0
0.7910499572753906,0.14536666870117188,-0.5626727342605591,0
0.9757101535797119,0.2898902893066406,-0.6013766527175903,0
0.9765836596488953,0.1333150863647461,-0.43553975224494934,0
1.0061712265014648,0.0178680419921875,-0.2113996148109436,0
0.9827784299850464,-0.1259136199951172,0.04187744855880737,0
1.0832979679107666,-0.3769407272338867,0.311796098947525,0
1.111403465270996,-0.6203432083129883,0.5788938999176025,0
1.2206876277923584,-0.7245597839355469,0.739983081817627,0
1.2271242141723633,-1.0292720794677734,1.0008223056793213,0
1.3154913187026978,-1.216120719909668,1.1531920433044434,0
1.3735195398330688,-1.3497676849365234,1.2355475425720215,0
1.2647987604141235,-1.415949821472168,1.300729513168335,0
1.2907311916351318,-1.2952079772949219,1.3104796409606934,0
1.145016074180603,-0.9375782012939453,1.2911713123321533,0
0.9015820026397705,-0.3793048858642578,1.3551663160324097,0
0.9218155145645142,0.29328441619873047,1.3393640518188477,0
0.9091101884841919,0.6209630966186523,1.4084341526031494,0
0.8418163061141968,0.8168430328369141,1.3796228170394897,0
0.604999303817749,0.8498296737670898,1.3045120239257812,0
0.7396684885025024,0.7894515991210938,1.189435362815857,0
0.9011266231536865,0.65966796875,1.009878396987915,0
1.0460315942764282,0.541752815246582,0.7775751352310181,0
1.266925573348999,0.5383501052856445,0.5646552443504333,0
1.527205228805542,0.5798912048339844,0.5154552459716797,0
1.790217399597168,0.7044763565063477,0.6378986239433289,0
2.0910439491271973,0.9190425872802734,0.9062885642051697,0
2.5129222869873047,1.3406105041503906,1.373995304107666,0
2.9884018898010254,1.8827810287475586,1.8093743324279785,0
3.430887222290039,2.2917518615722656,1.8915152549743652,0
3.7227680683135986,2.438333511352539,1.6366688013076782,0
3.998086929321289,2.4016799926757812,1.2599092721939087,0
4.187565326690674,2.265727996826172,0.8619259595870972,0
4.143378257751465,2.035496711730957,0.5052396655082703,0
4.13201904296875,1.8882579803466797,0.07738709449768066,0
4.168639183044434,1.7237319946289062,-0.2993839979171753,0
3.928171157836914,1.678375244140625,-0.36353981494903564,0
3.6188740730285645,1.7808427810668945,-0.15707123279571533,0
3.32920503616333,1.9306097030639648,0.3185546100139618,0
3.116875648498535,2.1612186431884766,0.89609694480896,0
2.841027021408081,2.52994441986084,1.5122007131576538,0
2.557129144668579,3.000655174255371,2.099783420562744,0
2.275067090988159,3.5467729568481445,2.627082347869873,0
1.85866379737854,3.9576234817504883,2.957155704498291,0
1.568796992301941,4.209375381469727,2.9177279472351074,0
1.3214898109436035,4.139625549316406,2.4835586547851562,0
1.0635120868682861,3.880324363708496,1.77413010597229,0
0.882660984992981,3.5131454467773438,1.0320225954055786,0
0.7947549819946289,3.210552215576172,0.4287232756614685,0
0.801224946975708,3.0252304077148438,0.10714022815227509,0
0.791243314743042,2.8041515350341797,0.21258296072483063,0
0.6755197048187256,2.50439453125,0.6345051527023315,0
-0.10236787796020508,2.089982032775879,1.2976208925247192,0
-0.9954953193664551,1.5202665328979492,2.013044834136963,0
-1.6956499814987183,1.0466804504394531,2.5064713954925537,0
-2.317305564880371,0.8537187576293945,2.8424630165100098,0
-2.833014965057373,0.8892126083374023,2.953913688659668,0
-3.1623387336730957,1.215947151184082,2.851731538772583,0
-3.2706656455993652,1.6430463790893555,2.57719087600708,0
-3.307419776916504,1.9749317169189453,2.261413335800171,0
-3.276045560836792,2.271805763244629,1.93873929977417,0
-3.110691547393799,2.3924856185913086,1.5684720277786255,0
-2.9081969261169434,2.216991424560547,1.072570562362671,0
-2.5307180881500244,1.9576940536499023,0.2857851982116699,0
-2.2165932655334473,1.7502164840698242,-0.712938666343689,0
-2.0847396850585938,1.7062244415283203,-1.7744696140289307,0
-1.8861889839172363,1.8322534561157227,-2.825319766998291,0
-1.8246257305145264,2.17801570892334,-3.728006601333618,0
-1.7951631546020508,2.480152130126953,-4.451047897338867,0
-1.7313644886016846,2.7053232192993164,-4.941628456115723,0
-1.7800037860870361,2.865633964538574,-5.065252780914307,0
-1.5973613262176514,3.1094627380371094,-4.7063398361206055,0
-1.4872093200683594,3.3170690536499023,-3.8733997344970703,0
-1.361771583557129,3.3833694458007812,-2.9317920207977295,0
-0.7957215905189514,3.160658836364746,-2.041309356689453,0
-0.06163141131401062,2.65201473236084,-1.1311463117599487,0
0.6867092847824097,2.2524290084838867,-0.2631497383117676,0
1.3144046068191528,2.069451332092285,0.5156824588775635,0
1.819676399230957,1.9761543273925781,1.160745620727539,0
2.242330312728882,1.8959770202636719,1.562567949295044,0
2.5187246799468994,1.7522687911987305,1.7911920547485352,0
2.585061550140381,1.7050504684448242,1.708571195602417,0
2.3947067260742188,1.5338506698608398,1.4733805656433105,0
1.9163994789123535,1.3414087295532227,1.0571832656860352,0
1.158859372138977,0.9268550872802734,0.5315818786621094,0
0.63176429271698,0.7996549606323242,-0.007779836654663086,0
0.2536911964416504,0.5861930847167969,-0.5271551609039307,0
-0.04945412278175354,0.34379100799560547,-1.0743415355682373,0
-0.3230113387107849,0.0937490463256836,-1.5461993217468262,0
-0.6193860769271851,-0.20008373260498047,-2.0213332176208496,0
-0.9525406360626221,-0.4685239791870117,-2.4254555702209473,0
-1.375549554824829,-0.9843635559082031,-2.7416746616363525,0
-1.5481698513031006,-1.2165374755859375,-3.099440336227417,0
-1.781510353088379,-1.5646228790283203,-3.513537645339966,0
-2.0452232360839844,-1.9206223487854004,-3.881756067276001,0
-2.3716933727264404,-2.4084224700927734,-4.193192005157471,0
-2.6400821208953857,-2.7834835052490234,-4.537456035614014,0
-3.0478127002716064,-3.126861572265625,-4.8339457511901855,0
-3.4501800537109375,-3.4118785858154297,-5.109804153442383,0
-4.00102424621582,-3.6599602699279785,-5.162051200866699,0
-4.490339279174805,-3.8063883781433105,-5.175428867340088,0
-4.85878849029541,-3.860691547393799,-5.1024322509765625,0
-5.154411315917969,-3.763289451599121,-4.945279121398926,0
-5.4324846267700195,-3.593411922454834,-4.749069690704346,0
-5.6142425537109375,-3.3777151107788086,-4.4557318687438965,0
-5.556121826171875,-3.171794891357422,-4.049727916717529,0
-5.205129623413086,-3.066983222961426,-3.652132511138916,0
-4.524165630340576,-3.078066349029541,-3.2643637657165527,0
-3.858919143676758,-3.1649246215820312,-2.7943530082702637,0
-3.280503988265991,-3.3520588874816895,-2.255178689956665,0
-2.7624258995056152,-3.5873866081237793,-1.6909751892089844,0
-2.345482110977173,-3.8665051460266113,-1.229912519454956,0
-2.041813373565674,-4.180049419403076,-0.8592965602874756,0
-1.7748490571975708,-4.518453121185303,-0.6243183612823486,0
-1.5897016525268555,-4.869609832763672,-0.45574474334716797,0
-1.3899528980255127,-5.144869327545166,-0.3084886074066162,0
-1.2773749828338623,-5.3058881759643555,-0.2117321491241455,0
-1.2316627502441406,-5.390933990478516,-0.12272977828979492,0
-1.3068429231643677,-5.380817413330078,-0.05135297775268555,0
-1.4899778366088867,-5.347121238708496,-0.07941007614135742,0
-1.7802122831344604,-5.366114616394043,-0.18570709228515625,0
-2.0935842990875244,-5.313008785247803,-0.3395993709564209,0
-2.375284433364868,-5.337970733642578,-0.501274585723877,0
-2.642282247543335,-5.344579696655273,-0.6839237213134766,0
-2.8800981044769287,-5.4349260330200195,-0.9130189418792725,0
-2.943270206451416,-5.237565994262695,-1.046539545059204,0
-3.008251428604126,-5.1252241134643555,-1.2512165307998657,0
-2.9482033252716064,-4.757627964019775,-1.3610972166061401,0
-2.5873332023620605,-4.036637783050537,-1.4345148801803589,0
-2.103073835372925,-2.9360928535461426,-1.371541142463684,0
-1.4986037015914917,-1.5327997207641602,-1.253981351852417,0
-0.884047269821167,-0.006388664245605469,-1.0584173202514648,0
-0.32121533155441284,1.5640583038330078,-0.7662026882171631,0
0.22365805506706238,3.2430858612060547,-0.37348103523254395,0
0.7284290790557861,4.958806037902832,0.25980257987976074,0
1.1512038707733154,6.572466850280762,1.0174369812011719,0
1.6237329244613647,8.416229248046875,1.9111454486846924,0
2.135239601135254,10.0491304397583,3.052274227142334,0
2.7824158668518066,11.26711654663086,4.5681352615356445,0
3.62532377243042,11.662922859191895,6.398241996765137,0
4.799665451049805,10.75580883026123,8.42227554321289,0
5.65002965927124,7.867764472961426,9.769701957702637,0
5.636637210845947,4.507846832275391,9.948507308959961,0
4.335531234741211,2.116640090942383,9.077686309814453,0
3.0049846172332764,0.7483310699462891,7.716475486755371,0
2.3866350650787354,0.1719036102294922,6.330009460449219,0
2.190542697906494,0.01741504669189453,4.966609477996826,0
2.2371253967285156,0.2597780227661133,3.665092945098877,0
2.315253734588623,0.6785287857055664,2.244558095932007,0
2.1617531776428223,1.4057188034057617,0.7893462181091309,0
1.6607648134231567,2.449270248413086,-0.6252152919769287,0
0.7351253032684326,3.7573394775390625,-1.7762185335159302,0
-0.42158839106559753,5.227646827697754,-2.5599350929260254,0
-1.6602895259857178,6.413298606872559,-3.033973455429077,0
-2.7294304370880127,7.18559455871582,-3.077479362487793,0
-3.6309618949890137,7.654742240905762,-2.740291118621826,0
-4.390854835510254,7.471515655517578,-2.166841983795166,0
-5.035353183746338,6.708049774169922,-1.5494669675827026,0
-5.454956531524658,5.1976470947265625,-1.1921486854553223,0
-5.499724388122559,2.9919614791870117,-1.2197775840759277,0
-5.1025071144104,0.7740707397460938,-1.4046506881713867,0
-4.551322937011719,-1.087336540222168,-1.5011391639709473,0
-3.807323932647705,-2.5645132064819336,-1.36607027053833,0
-2.8733084201812744,-3.647322654724121,-0.9469457864761353,0
-1.9158021211624146,-4.476263523101807,-0.4371757507324219,0
-0.7922830581665039,-5.181507587432861,-0.24805927276611328,0
0.050722479820251465,-5.677191257476807,-0.5046091079711914,0
0.445618212223053,-6.0276923179626465,-1.1145929098129272,0
0.43015581369400024,-6.041244983673096,-1.958466649055481,0
0.16325315833091736,-5.94707727432251,-2.9439258575439453,0
-0.1410389244556427,-5.778011798858643,-3.8813419342041016,0
-0.4317640960216522,-5.435464859008789,-4.5640974044799805,0
-0.7093925476074219,-4.954939365386963,-4.874469757080078,0
-1.053772211074829,-4.388698101043701,-4.850261688232422,0
-1.4758846759796143,-3.600210666656494,-4.576119422912598,0
-1.865158200263977,-2.7164344787597656,-4.088924884796143,0
-2.2879064083099365,-1.7043256759643555,-3.522878885269165,0
-2.597459316253662,-0.7534875869750977,-3.069922924041748,0
-2.9319210052490234,0.364990234375,-2.6914074420928955,0
-3.252363443374634,1.6524715423583984,-2.264986038208008,0
-3.4000017642974854,2.8376598358154297,-1.8167611360549927,0
-3.5201663970947266,3.713857650756836,-0.7043790221214294,0
-3.4087276458740234,4.340076446533203,0.5201363563537598,0
-2.888148307800293,4.52475643157959,1.1487888097763062,0
-1.9797823429107666,4.07723331451416,0.9818772077560425,0
-0.9916999340057373,3.0633583068847656,0.36245882511138916,0
-0.025189995765686035,1.9723320007324219,-0.45638978481292725,0
0.5941792726516724,1.1253023147583008,-1.243322730064392,0
1.0340214967727661,0.41719532012939453,-1.9479395151138306,0
1.399875283241272,-0.08733272552490234,-2.5832204818725586,0
1.7358546257019043,-0.3883323669433594,-2.9597363471984863,0
2.0751004219055176,-0.5264949798583984,-3.123401165008545,0
2.389303207397461,-0.49704933166503906,-2.8745434284210205,0
2.6988210678100586,-0.3477764129638672,-2.354698657989502,0
2.9860477447509766,-0.24355602264404297,-1.709481954574585,0
3.031705856323242,-0.2248096466064453,-1.1108241081237793,0
2.195457696914673,-0.23654556274414062,-0.8151223063468933,0
0.7418177127838135,-0.3339691162109375,-0.24069514870643616,0
-0.09077537059783936,-0.34960269927978516,-0.24268749356269836,0
-0.5972611904144287,-0.4890604019165039,-0.36064180731773376,0
-1.0124493837356567,-0.6492795944213867,-0.5868477821350098,0
-1.3486429452896118,-0.7752084732055664,-0.8177396059036255,0
-1.4022958278656006,-0.9959506988525391,-0.9422158002853394,0
-1.3668156862258911,-1.1678733825683594,-1.1047054529190063,0
-1.321274757385254,-1.4369583129882812,-1.0874005556106567,0
-1.2801536321640015,-1.6023130416870117,-0.9566503167152405,0
-1.2269891500473022,-1.7024173736572266,-0.7327526807785034,0
-1.212211012840271,-1.8258857727050781,-0.5699973702430725,0
-1.1953662633895874,-1.8603515625,-0.4602857828140259,0
-1.0665899515151978,-1.7844209671020508,-0.42679041624069214,0
-0.9408917427062988,-1.6938800811767578,-0.3949754238128662,0
-0.8136309385299683,-1.5217981338500977,-0.37902289628982544,0
-0.6707214117050171,-1.29937744140625,-0.3333969712257385,0
-0.5171040296554565,-1.1271066665649414,-0.310835063457489,0
-0.31444084644317627,-0.9212017059326172,-0.27797505259513855,0
-0.026577115058898926,-0.6027336120605469,-0.2852605879306793,0
0.12368965148925781,-0.48510265350341797,-0.2203354835510254,0
0.24104833602905273,-0.29078197479248047,-0.1767488270998001,0
0.33689236640930176,-0.1562490463256836,-0.16891206800937653,0
0.47548651695251465,-0.0647420883178711,-0.13958874344825745,0
0.6210055351257324,0.14161014556884766,-0.18955178558826447,0
0.8165328502655029,0.1948709487915039,-0.11286747455596924,0
0.9374465942382812,0.09759998321533203,-0.04063260555267334,0
1.1129167079925537,-0.0065402984619140625,0.041834086179733276,0
1.2591826915740967,-0.1151437759399414,0.12264546751976013,0
1.4219846725463867,-0.3333578109741211,0.2712253928184509,0
1.6589070558547974,-0.6083822250366211,0.38241687417030334,0
1.855292797088623,-0.9329319000244141,0.49915313720703125,0
1.9322679042816162,-1.17303466796875,0.578299880027771,0
2.009596586227417,-1.4124727249145508,0.6914008259773254,0
2.029731035232544,-1.5891237258911133,0.7758727073669434,0
2.061917781829834,-1.734196662902832,0.9438260793685913,0
1.9980970621109009,-1.7713422775268555,1.0750584602355957,0
1.8427942991256714,-1.5979995727539062,1.1859139204025269,0
1.4640934467315674,-1.1548070907592773,1.2975218296051025,0
1.1804735660552979,-0.4851837158203125,1.3447327613830566,0
0.9947041273117065,-6.551742553710938E-4,1.3103199005126953,0
0.852333664894104,0.2153759002685547,1.2272273302078247,0
0.8208295106887817,0.3832588195800781,1.0565506219863892,0
0.5460411310195923,0.4384164810180664,0.9607248306274414,0
0.38666510581970215,0.43114566802978516,1.006871223449707,0
0.48387956619262695,0.46444225311279297,1.1260803937911987,0
0.7084506750106812,0.4857597351074219,1.32856285572052,0
0.950283408164978,0.6314659118652344,1.590840220451355,0
1.2476105690002441,0.8823013305664062,1.8915313482284546,0
1.4590308666229248,1.206954002380371,2.129779815673828,0
1.7254505157470703,1.4569263458251953,2.1014580726623535,0
1.9744679927825928,1.5962200164794922,1.9304349422454834,0
2.2317957878112793,1.7085113525390625,1.6766307353973389,0
2.592421531677246,1.817673683166504,1.374565601348877,0
2.93361759185791,1.8710689544677734,1.1213630437850952,0
3.2144875526428223,2.0504894256591797,0.8675907850265503,0
3.424849510192871,1.9850292205810547,0.7526800632476807,0
3.5525426864624023,1.8972883224487305,0.7407459616661072,0
3.5785305500030518,1.8183507919311523,0.8889469504356384,0
3.582061290740967,1.922677993774414,0.748542070388794,0
3.6522154808044434,1.8872919082641602,0.6080115437507629,0
3.595323085784912,2.0327816009521484,0.584173858165741,0
3.4879493713378906,2.3732852935791016,0.6126642227172852,0
3.3010544776916504,2.808072090148926,0.7343376874923706,0
3.0844838619232178,3.4277801513671875,0.8006800413131714,0
2.8884096145629883,4.028894424438477,0.8062012195587158,0
2.6674060821533203,4.551608085632324,0.6991242170333862,0
2.469546318054199,4.874093055725098,0.5901253819465637,0
2.258863925933838,4.951196670532227,0.5113089084625244,0
2.1886608600616455,4.821669578552246,0.5671402215957642,0
2.031877279281616,4.486049652099609,0.7338237762451172,0
1.8917012214660645,4.083584785461426,1.0359982252120972,0
1.5713331699371338,3.8463878631591797,1.6234015226364136,0
0.2936457395553589,3.647144317626953,2.370894432067871,0
-1.1224756240844727,3.356328010559082,3.006243944168091,0
-2.1776981353759766,3.0195913314819336,3.3153817653656006,0
-2.871328353881836,2.5180301666259766,3.3557870388031006,0
-3.214137077331543,2.2280654907226562,3.089385986328125,0
-3.6090121269226074,2.0761756896972656,2.6445975303649902,0
-3.8827250003814697,2.201554298400879,2.18495512008667,0
-4.094167709350586,2.422689437866211,1.8609082698822021,0
-4.1915740966796875,2.598804473876953,1.694746494293213,0
-4.281038284301758,2.6870222091674805,1.6282438039779663,0
-4.205320358276367,2.641871452331543,1.4763067960739136,0
-4.073162078857422,2.479837417602539,1.0893367528915405,0
-3.857052803039551,2.2436208724975586,0.3693147897720337,0
-3.499357223510742,1.9519338607788086,-0.5368962287902832,0
-3.158820629119873,1.841073989868164,-1.5911725759506226,0
-2.8459157943725586,1.8219661712646484,-2.5573883056640625,0
-2.314666748046875,1.7580385208129883,-3.529971122741699,0
-1.6780189275741577,1.661128044128418,-4.363691806793213,0
-1.3078582286834717,1.5573959350585938,-4.9878082275390625,0
-0.9462896585464478,1.5355100631713867,-5.41654109954834,0
-0.48197853565216064,1.4211311340332031,-5.470716953277588,0
-0.21149641275405884,1.1931171417236328,-4.942621231079102,0
0.37063461542129517,0.9404726028442383,-3.8755786418914795,0
0.9919708967208862,0.6490116119384766,-2.4214415550231934,0
1.495639443397522,0.419036865234375,-0.8259074687957764,0
2.1071393489837646,0.33144664764404297,0.4874560832977295,0
2.5060510635375977,0.24915504455566406,1.5074412822723389,0
2.707305908203125,0.36281871795654297,2.028883218765259,0
2.786177635192871,0.5999746322631836,2.111590623855591,0
2.698361873626709,0.8787708282470703,1.8960530757904053,0
2.4405517578125,1.1918220520019531,1.4093050956726074,0
2.1917665004730225,1.3740606307983398,0.8141872882843018,0
1.8143445253372192,1.3274908065795898,0.2495133876800537,0
1.2394884824752808,1.1361284255981445,-0.32358646392822266,0
0.7914340496063232,1.1424102783203125,-0.8657934665679932,0
0.3917781710624695,0.8945093154907227,-1.380937933921814,0
0.10045519471168518,0.5652599334716797,-1.8656436204910278,0
-0.10339060425758362,0.16706562042236328,-2.3380420207977295,0
-0.21351055800914764,-0.0918722152709961,-2.7438907623291016,0
-0.3056056499481201,-0.43416404724121094,-3.0883865356445312,0
-0.3980026841163635,-0.8025407791137695,-3.273493766784668,0
-0.4446261525154114,-1.161367416381836,-3.3541910648345947,0
-0.5406976342201233,-1.5635027885437012,-3.4643421173095703,0
-0.6885976195335388,-1.9731626510620117,-3.544109344482422,0
-1.1453461647033691,-2.6866941452026367,-3.715907573699951,0
-1.3724133968353271,-2.933568000793457,-3.9445815086364746,0
-1.7411913871765137,-3.2570648193359375,-4.103607654571533,0
-2.218888282775879,-3.515841484069824,-4.298664569854736,0
-2.7443113327026367,-3.7216567993164062,-4.434618949890137,0
-3.2207021713256836,-3.9245171546936035,-4.511992931365967,0
-3.7595081329345703,-4.035697937011719,-4.478608131408691,0
-4.261273384094238,-4.009644508361816,-4.363657474517822,0
-4.717824935913086,-3.9062395095825195,-4.169473648071289,0
-5.099175930023193,-3.7591662406921387,-3.847764253616333,0
-5.308136940002441,-3.638071060180664,-3.4050114154815674,0
-5.2927751541137695,-3.5097928047180176,-2.828401565551758,0
-4.995770454406738,-3.4274535179138184,-2.219661235809326,0
-4.202698707580566,-3.3629159927368164,-1.702089548110962,0
-3.263319492340088,-3.31447696685791,-1.2050490379333496,0
-2.4943034648895264,-3.3282432556152344,-0.6674506664276123,0
-1.7656303644180298,-3.4095911979675293,-0.14532709121704102,0
-1.1439367532730103,-3.554192066192627,0.3673253059387207,0
-0.5790570974349976,-3.759888172149658,0.7637360095977783,0
-0.16204851865768433,-4.012450218200684,1.0351109504699707,0
0.11892491579055786,-4.3069891929626465,1.0836939811706543,0
0.25931698083877563,-4.580939292907715,0.9282810688018799,0
0.10665279626846313,-4.809972286224365,0.6591026782989502,0
-0.29048871994018555,-4.969620704650879,0.33478331565856934,0
-0.7637099027633667,-5.0426530838012695,0.05450701713562012,0
-1.2475593090057373,-5.16731595993042,-0.257174015045166,0
-1.6794517040252686,-5.197216987609863,-0.4744877815246582,0
-2.1046762466430664,-5.222846031188965,-0.6320767402648926,0
-2.523043632507324,-5.279584884643555,-0.7430670261383057,0
-2.791594982147217,-5.072924613952637,-0.7579407691955566,0
-2.845956802368164,-4.739073753356934,-0.696911096572876,0
-2.921355962753296,-4.507336139678955,-0.7287354469299316,0
-2.7565832138061523,-3.8919553756713867,-0.6600995063781738,0
-2.5531320571899414,-2.9936323165893555,-0.5367686748504639,0
-2.3313844203948975,-1.8412113189697266,-0.39717864990234375,0
-2.116903305053711,-0.5925369262695312,-0.225083589553833,0
-1.8611907958984375,0.7215242385864258,-0.07402443885803223,0
-1.6426273584365845,2.1155433654785156,0.08843326568603516,0
-1.2846088409423828,3.4653968811035156,0.29425740242004395,0
-0.9505677223205566,4.874164581298828,0.6111812591552734,0
-0.6430214643478394,6.348957061767578,1.1048102378845215,0
-0.45045050978660583,7.731689453125,1.8244891166687012,0
-0.07777601480484009,8.964635848999023,2.8086400032043457,0
0.21770745515823364,9.688567161560059,4.128028392791748,0
0.5910842418670654,9.293320655822754,5.627706050872803,0
1.071404218673706,7.716946601867676,7.012618064880371,0
1.3955283164978027,5.657955169677734,7.921114921569824,0
1.6702163219451904,3.6779470443725586,7.950290679931641,0
1.807462453842163,2.1158018112182617,7.050314903259277,0
2.007293462753296,0.9540691375732422,5.608194351196289,0
2.493710517883301,0.1542224884033203,4.141361713409424,0
3.1584153175354004,-0.3575162887573242,2.5721211433410645,0
3.8950066566467285,-0.6161479949951172,1.0460107326507568,0
4.563791275024414,-0.6303577423095703,-0.20855093002319336,0
4.964176177978516,-0.3063011169433594,-1.16408109664917,0
5.04484224319458,0.5640268325805664,-1.779930591583252,0
4.3739542961120605,1.9726505279541016,-2.054422616958618,0
2.868623971939087,3.5764808654785156,-1.8695244789123535,0
1.205718994140625,4.989577293395996,-1.4335899353027344,0
-0.02069726586341858,6.070136070251465,-1.0967272520065308,0
-0.8552709817886353,6.525993347167969,-1.0746701955795288,0
-1.2809683084487915,6.204501152038574,-1.343015193939209,0
-1.833245038986206,5.994022369384766,-1.6696735620498657,0
-2.426598310470581,5.606085777282715,-2.0699353218078613,0
-3.212338924407959,4.858250617980957,-2.449399471282959,0
-4.056565761566162,3.7977638244628906,-2.5661396980285645,0
-4.903932571411133,2.145875930786133,-2.2810518741607666,0
-5.467772006988525,-0.059017181396484375,-1.810273289680481,0
-5.519905090332031,-1.9925880432128906,-1.2840685844421387,0
-5.414958477020264,-3.3071675300598145,-1.0388230085372925,0
-5.269981384277344,-4.054197311401367,-1.2537304162979126,0
-4.9591064453125,-4.392052173614502,-1.9246561527252197,0
-4.532059669494629,-4.315873622894287,-2.9185595512390137,0
-3.7661118507385254,-3.9664673805236816,-3.936277389526367,0
-2.3501780033111572,-3.6494617462158203,-4.664063453674316,0
-1.114305019378662,-3.366604804992676,-4.933436393737793,0
-0.3779926896095276,-3.236971378326416,-4.881887435913086,0
-0.13991647958755493,-3.1812028884887695,-4.5743560791015625,0
-0.3019323945045471,-3.20870304107666,-4.121788501739502,0
-0.8340006470680237,-2.965665817260742,-3.496318817138672,0
-1.51068115234375,-2.5197501182556152,-2.6876330375671387,0
-2.23815655708313,-1.9243416786193848,-1.9065980911254883,0
-2.862945079803467,-1.1683740615844727,-1.2985678911209106,0
-3.393763542175293,-0.37503528594970703,-0.4040954113006592,0
-3.5277867317199707,0.43291759490966797,0.5286015272140503,0
-3.4671690464019775,1.2879619598388672,0.9481301307678223,0
-3.156198024749756,2.158367156982422,0.9150135517120361,0
-2.8819613456726074,2.8191261291503906,0.5800210237503052,0
-2.4986400604248047,3.0697555541992188,0.045925021171569824,0
-1.7642662525177002,2.904020309448242,-0.6820089221000671,0
-0.9267845153808594,2.5047550201416016,-1.5472187995910645,0
-0.05869495868682861,2.0042924880981445,-2.273113965988159,0
0.8638327121734619,1.4510002136230469,-2.7525177001953125,0
1.412962794303894,0.9097414016723633,-3.0278196334838867,0
1.8580551147460938,0.5959053039550781,-3.1494054794311523,0
2.332226514816284,0.34673213958740234,-3.1321873664855957,0
2.6317121982574463,0.14073944091796875,-2.922494888305664,0
2.979876756668091,-0.03138542175292969,-2.5783560276031494,0
3.3586981296539307,-0.15261363983154297,-2.164189338684082,0
3.58272647857666,-0.2442464828491211,-1.5546516180038452,0
3.705057144165039,-0.38024234771728516,-1.0387544631958008,0
2.9605236053466797,-0.6443386077880859,-0.6770167946815491,0
1.5797723531723022,-0.8310451507568359,-0.529146134853363,0
0.5038613677024841,-1.108001708984375,-0.5555881261825562,0
-0.1893068552017212,-1.3507537841796875,-0.7294741272926331,0
-0.5019452571868896,-1.6452751159667969,-0.8543295860290527,0
-0.7016401290893555,-1.9890151023864746,-0.8672375082969666,0
-0.9963870048522949,-2.1547603607177734,-0.7764422297477722,0
-1.103603720664978,-2.2909908294677734,-0.5367007255554199,0
-1.2340433597564697,-2.3930211067199707,-0.22403110563755035,0
-1.301844596862793,-2.441831588745117,0.01862267404794693,0
-1.3095762729644775,-2.377744674682617,0.2065306305885315,0
-1.2765963077545166,-2.2081003189086914,0.31901103258132935,0
-1.164845585823059,-1.9593505859375,0.26368486881256104,0
-0.9602744579315186,-1.6913843154907227,0.17546549439430237,0
-0.7375392913818359,-1.4807815551757812,0.06933540105819702,0
-0.48251986503601074,-1.2916069030761719,-0.030312225222587585,0
-0.20963633060455322,-0.9468746185302734,-0.1546708643436432,0
-0.07485067844390869,-0.7935447692871094,-0.14352183043956757,0
0.20132195949554443,-0.6592741012573242,-0.1838408261537552,0
0.3771500587463379,-0.5942573547363281,-0.16369765996932983,0
0.6896014213562012,-0.600773811340332,-0.10483869910240173,0
0.9258285760879517,-0.6619796752929688,-0.03391534090042114,0
1.2224907875061035,-0.5816888809204102,-0.09220728278160095,0
1.392960786819458,-0.6517820358276367,-0.011421769857406616,0
1.4944844245910645,-0.6042852401733398,0.06527191400527954,0
1.5916593074798584,-0.6545190811157227,0.20286870002746582,0
1.801812767982483,-0.7592630386352539,0.38960957527160645,0
1.9863377809524536,-0.8992547988891602,0.5728522539138794,0
2.1932668685913086,-1.0170202255249023,0.7380092144012451,0
2.2262985706329346,-1.1484994888305664,0.9252246618270874,0
2.2098264694213867,-1.2531013488769531,1.0881472826004028,0
2.1532740592956543,-1.2592344284057617,1.2903348207473755,0
1.816744327545166,-0.9926719665527344,1.4955189228057861,0
1.2501230239868164,-0.36065196990966797,1.6941471099853516,0
0.7739901542663574,0.37807750701904297,1.850364089012146,0
0.5538461208343506,1.0656471252441406,1.8802717924118042,0
0.38257551193237305,1.3197240829467773,1.9580036401748657,0
0.2944960594177246,1.3154964447021484,1.9248497486114502,0
0.32831883430480957,1.1345863342285156,1.7726836204528809,0
0.18721747398376465,0.7890586853027344,1.5751183032989502,0
0.5385720729827881,0.3747682571411133,1.313048243522644,0
1.0491102933883667,0.05438995361328125,1.1138497591018677,0
1.4237165451049805,-0.05273723602294922,1.0666972398757935,0
1.7595547437667847,0.05292797088623047,1.195760726928711,0
2.2184553146362305,0.3829212188720703,1.5419468879699707,0
2.6728432178497314,0.8531389236450195,1.9595928192138672,0
3.1602671146392822,1.489593505859375,2.4494009017944336,0
3.6010584831237793,2.160433769226074,2.7537829875946045,0
3.9060797691345215,2.5641050338745117,2.554797649383545,0
4.110877990722656,2.6816225051879883,2.0272817611694336,0
4.176423072814941,2.5896291732788086,1.4565205574035645,0
4.197981357574463,2.326517105102539,0.9601387977600098,0
4.187905788421631,2.040834426879883,0.6816950440406799,0
4.336104393005371,1.8260517120361328,0.43385910987854004,0
4.560149192810059,1.5867633819580078,0.4528156816959381,0
4.586369514465332,1.5768327713012695,0.6737344861030579,0
4.243170261383057,1.788966178894043,1.1259502172470093,0
3.6934518814086914,2.2468271255493164,1.6472781896591187,0
3.193727493286133,2.8137969970703125,2.1095316410064697,0
2.7324674129486084,3.434629440307617,2.4549853801727295,0
2.3291192054748535,4.049274444580078,2.5222373008728027,0
1.9977400302886963,4.5833024978637695,2.2120895385742188,0
1.6967949867248535,4.9002227783203125,1.5434759855270386,0
1.3727145195007324,4.811330795288086,0.7643448114395142,0
1.271204948425293,4.341287612915039,0.07922258973121643,0
1.245177984237671,3.782578468322754,-0.3080310523509979,0
1.2765756845474243,3.353104591369629,-0.252715140581131,0
1.3500151634216309,2.8974246978759766,0.24859896302223206,0
1.4363131523132324,2.492192268371582,0.8800548315048218,0
1.4326391220092773,2.0967960357666016,1.419632077217102,0
0.766789436340332,1.8593673706054688,1.8943556547164917,0
-0.4472386837005615,1.7317581176757812,2.321742296218872,0
-1.6311964988708496,1.8431854248046875,2.7309017181396484,0
-2.8769941329956055,2.0981712341308594,3.0072901248931885,0
-3.7089219093322754,2.5760908126831055,3.032886505126953,0
-4.094724178314209,3.067070960998535,2.8308939933776855,0
-4.043889999389648,3.392533302307129,2.4464948177337646,0
-3.960261821746826,3.550769805908203,1.9315180778503418,0
-3.7000832557678223,3.408184051513672,1.2750390768051147,0
-3.435929298400879,3.077254295349121,0.40146028995513916,0
-3.130300521850586,2.7778568267822266,-0.661350667476654,0
-3.1410608291625977,2.5861282348632812,-1.7769103050231934,0
-3.2834787368774414,2.611617088317871,-2.718684673309326,0
-3.1939456462860107,2.6672706604003906,-3.559340476989746,0
-3.1264266967773438,2.874619483947754,-4.1579132080078125,0
-3.1358940601348877,3.022547721862793,-4.379964828491211,0
-3.0283684730529785,3.0628442764282227,-4.414125919342041,0
-2.851365804672241,3.009777069091797,-4.150966167449951,0
-2.573763847351074,2.8205299377441406,-3.5781497955322266,0
-2.2492148876190186,2.643815040588379,-2.889802932739258,0
-1.6526703834533691,2.223984718322754,-2.2985405921936035,0
-0.8516043424606323,1.5519027709960938,-1.7984691858291626,0
-0.061853647232055664,0.8860340118408203,-1.2797669172286987,0
0.5182854533195496,0.3602142333984375,-0.9098484516143799,0
0.9325085878372192,-0.018636703491210938,-0.7360244989395142,0
1.1176984310150146,-0.22446441650390625,-0.6139724254608154,0
1.3831684589385986,-0.3028402328491211,-0.5527548789978027,0
1.7046384811401367,-0.2873077392578125,-0.45854616165161133,0
1.9919319152832031,-0.0727701187133789,-0.3643209934234619,0
2.1855053901672363,0.06766796112060547,-0.19257855415344238,0
2.3789608478546143,0.4231300354003906,-0.0838315486907959,0
2.438248872756958,0.564997673034668,-0.03274822235107422,0
2.2594218254089355,0.7347660064697266,-0.15153264999389648,0
1.8191509246826172,0.7696428298950195,-0.32305026054382324,0
1.2819874286651611,0.6123790740966797,-0.6002833843231201,0
0.9571720361709595,0.5883121490478516,-0.976269006729126,0
0.69754958152771,0.5200891494750977,-1.2978641986846924,0
0.5107936263084412,0.2640829086303711,-1.6416394710540771,0
0.27990108728408813,0.02590179443359375,-1.9523354768753052,0
-0.006936192512512207,-0.28061580657958984,-2.1919779777526855,0
-0.29451730847358704,-0.6217441558837891,-2.5240318775177,0
-0.6595810651779175,-0.9732341766357422,-2.8680622577667236,0
-1.0620203018188477,-1.3275527954101562,-3.1628401279449463,0
-1.4101650714874268,-1.6460375785827637,-3.4188082218170166,0
-1.8300917148590088,-2.0527453422546387,-3.5983190536499023,0
-2.203681230545044,-2.2125630378723145,-3.830946445465088,0
-2.662116050720215,-2.3791418075561523,-4.030445098876953,0
-3.1353304386138916,-2.5596165657043457,-4.120087623596191,0
-3.6249825954437256,-2.7611684799194336,-4.097247123718262,0
-4.046173095703125,-2.978935718536377,-4.098304271697998,0
-4.3973236083984375,-3.1268906593322754,-4.029660701751709,0
-4.690682888031006,-3.2889442443847656,-3.9149205684661865,0
-4.823209285736084,-3.441370964050293,-3.739299774169922,0
-5.0074992179870605,-3.6752700805664062,-3.5453743934631348,0
-5.118765830993652,-3.966891288757324,-3.260789394378662,0
-5.029786109924316,-4.273537635803223,-2.829655885696411,0
-4.490029335021973,-4.552631855010986,-2.4784393310546875,0
-3.542335271835327,-4.819031715393066,-2.182511568069458,0
-2.765866279602051,-5.108975887298584,-1.8624823093414307,0
-2.1233646869659424,-5.377171516418457,-1.573205590248108,0
-1.5519499778747559,-5.630828857421875,-1.286020278930664,0
-1.1998037099838257,-5.822052001953125,-1.0465233325958252,0
-0.8991832733154297,-5.92685604095459,-0.8788721561431885,0
-0.6950957179069519,-5.911773681640625,-0.7257535457611084,0
-0.665975034236908,-5.836633205413818,-0.5872514247894287,0
-0.8166459202766418,-5.754019737243652,-0.38194870948791504,0
-1.0776572227478027,-5.735595703125,-0.1527857780456543,0
-1.3628073930740356,-5.709428787231445,0.038164377212524414,0
-1.6644811630249023,-5.74458646774292,0.16667461395263672,0
-1.9415282011032104,-5.757006645202637,0.23008155822753906,0
-2.2081387042999268,-5.693700790405273,0.31397080421447754,0
-2.5312044620513916,-5.5231428146362305,0.3336949348449707,0
-2.757768154144287,-5.182765007019043,0.27168703079223633,0
-2.897948980331421,-4.614733695983887,0.17688918113708496,0
-2.895101547241211,-3.892798900604248,0.004785299301147461,0
-2.75506329536438,-2.8994178771972656,-0.17661118507385254,0
-2.510787010192871,-1.6823267936706543,-0.3134770393371582,0
-2.1955924034118652,-0.33228015899658203,-0.44797706604003906,0
-1.905247449874878,1.1341667175292969,-0.5054100751876831,0
-1.551522970199585,2.7267894744873047,-0.4333146810531616,0
-1.137587308883667,4.328676223754883,-0.2638111114501953,0
-0.8144832849502563,6.210262298583984,0.21039772033691406,0
-0.5678717494010925,8.321039199829102,1.1683995723724365,0
-0.41060149669647217,10.492965698242188,2.635324239730835,0
-0.16216707229614258,12.44269847869873,4.649025917053223,0
0.44540849328041077,13.563589096069336,7.194070339202881,0
1.4340276718139648,12.771261215209961,9.797968864440918,0
2.468907356262207,10.369935989379883,11.440178871154785,0
3.288172721862793,7.644497871398926,11.833012580871582,0
3.7130117416381836,5.446191787719727,10.975470542907715,0
4.002546787261963,3.7673816680908203,9.263864517211914,0
4.287099838256836,2.3857269287109375,7.226480484008789,0
4.467291831970215,1.2373847961425781,5.021204471588135,0
4.237582206726074,0.3616065979003906,2.78312349319458,0
3.762726068496704,0.024721145629882812,0.5439164638519287,0
3.0347564220428467,0.2556133270263672,-1.4987691640853882,0
1.9548923969268799,0.998809814453125,-3.0425496101379395,0
0.6632571220397949,2.0835533142089844,-3.9626078605651855,0
-0.5446657538414001,2.9851865768432617,-4.451299667358398,0
-1.4592764377593994,3.366151809692383,-4.671511650085449,0
-1.9663262367248535,3.370192527770996,-4.722105026245117,0
-2.496699571609497,3.4331493377685547,-4.708661079406738,0
-2.9936439990997314,3.405170440673828,-4.813562870025635,0
-3.629707098007202,3.1730918884277344,-4.904181480407715,0
-4.513009548187256,2.853806495666504,-4.664295196533203,0
-5.353085994720459,1.9941892623901367,-4.093740463256836,0
-5.756490230560303,0.29942893981933594,-3.025613307952881,0
-5.544832229614258,-1.5579185485839844,-1.6132255792617798,0
-5.0018439292907715,-2.9653124809265137,-0.3708280324935913,0
-4.029344081878662,-3.9794068336486816,0.5058889389038086,0
-2.821385145187378,-4.567196369171143,0.8024468421936035,0
-1.597609519958496,-4.680413722991943,0.24816346168518066,0
-0.19013965129852295,-4.566854000091553,-0.9656131863594055,0
0.6409549713134766,-4.098513126373291,-2.362173318862915,0
1.081950068473816,-3.4276223182678223,-3.4771780967712402,0
1.1884055137634277,-2.7974720001220703,-4.175746440887451,0
0.90865159034729,-2.3367724418640137,-4.543196678161621,0
0.5536524057388306,-1.9664411544799805,-4.592493534088135,0
0.10392630100250244,-1.6412229537963867,-4.393743515014648,0
-0.3932722210884094,-1.3639421463012695,-4.003018856048584,0
-1.0776124000549316,-0.9437990188598633,-3.3778233528137207,0
-1.8505051136016846,-0.6063938140869141,-2.6479744911193848,0
-2.6637284755706787,-0.1157674789428711,-1.5861696004867554,0
-3.555462121963501,0.4119873046875,-0.39749419689178467,0
-4.238617420196533,0.8511762619018555,0.9359050989151001,0
-4.542984485626221,1.2223968505859375,1.927975058555603,0
-4.1639556884765625,1.3867673873901367,2.04864764213562,0
-3.5431339740753174,1.3185348510742188,1.4183437824249268,0
-2.8489294052124023,1.0997533798217773,0.519997239112854,0
-1.9787014722824097,0.8172016143798828,-0.3048597574234009,0
-1.1212985515594482,0.5169458389282227,-1.085778832435608,0
-0.3404024839401245,0.4267597198486328,-1.9096686840057373,0
0.26158034801483154,0.25982189178466797,-2.546975612640381,0
0.7641786336898804,0.24602794647216797,-3.1072216033935547,0
1.0986411571502686,0.23943233489990234,-3.4787707328796387,0
1.1914323568344116,0.25672340393066406,-3.6709885597229004,0
1.3187752962112427,0.4317474365234375,-3.709303379058838,0
1.5179468393325806,0.5012950897216797,-3.6903486251831055,0
1.6299734115600586,0.45598602294921875,-3.6512258052825928,0
1.7109915018081665,0.35343360900878906,-3.531524181365967,0
1.9413729906082153,0.09101104736328125,-3.3071208000183105,0
2.1855430603027344,-0.32138538360595703,-2.9135453701019287,0
2.465773582458496,-0.7543125152587891,-2.372750759124756,0
2.6776437759399414,-1.171743392944336,-1.7903878688812256,0
2.912796974182129,-1.4564008712768555,-1.2961058616638184,0
2.875028371810913,-1.7972702980041504,-0.7802010774612427,0
2.60740065574646,-1.9814672470092773,-0.44653934240341187,0
2.0876035690307617,-2.2005701065063477,-0.2762761414051056,0
1.1997119188308716,-2.2586307525634766,-0.16431275010108948,0
0.39046603441238403,-2.0507469177246094,-0.06523722410202026,0
-0.19457507133483887,-1.7374811172485352,-0.007897883653640747,0
-0.6249542236328125,-1.4217958450317383,0.08467322587966919,0
-0.8669217824935913,-1.151474952697754,0.256045937538147,0
-0.8911901712417603,-0.8833141326904297,0.3654429018497467,0
-1.0014315843582153,-0.865936279296875,0.41324394941329956,0
-1.1306095123291016,-0.8646697998046875,0.35413143038749695,0
-1.3124451637268066,-0.9058017730712891,0.17616510391235352,0
-1.3487712144851685,-0.951045036315918,-0.0011191274970769882,0
-1.400160789489746,-0.8043212890625,-0.21398350596427917,0
-1.3998394012451172,-0.721735954284668,-0.41013437509536743,0
-1.4005721807479858,-0.6912574768066406,-0.5684381723403931,0
-1.354620099067688,-0.6363134384155273,-0.5502634048461914,0
-1.3266308307647705,-0.6956243515014648,-0.3966881036758423,0
-1.2543201446533203,-0.64666748046875,-0.15364420413970947,0
-1.0705522298812866,-0.5301980972290039,0.14503693580627441,0
-0.8351236581802368,-0.5184440612792969,0.49922385811805725,0
-0.5263893604278564,-0.6136407852172852,0.8225514888763428,0
-0.1276252269744873,-0.660243034362793,0.9208710193634033,0
0.18143177032470703,-0.538818359375,0.9976159334182739,0
0.574960470199585,-0.4577064514160156,0.981011688709259,0
0.9712361693382263,-0.3691072463989258,0.8832428455352783,0
1.3171093463897705,-0.1822366714477539,0.7913260459899902,0
1.5784900188446045,-0.09576129913330078,0.7852907180786133,0
1.821824073791504,-0.08569049835205078,0.8353472352027893,0
1.9126218557357788,-0.20221519470214844,0.9470405578613281,0
2.058882713317871,-0.3065481185913086,1.1107172966003418,0
2.068819761276245,-0.41798973083496094,1.282570719718933,0
1.904079794883728,-0.3861083984375,1.5781326293945312,0
1.7492358684539795,-0.055809974670410156,1.8805816173553467,0
1.6097545623779297,0.35012245178222656,2.121267318725586,0
1.7472012042999268,0.5375738143920898,2.289773941040039,0
1.7763307094573975,0.6382389068603516,2.0819530487060547,0
1.8258960247039795,0.568324089050293,1.5480244159698486,0
2.067976236343384,0.47383880615234375,0.9417728781700134,0
2.3705809116363525,0.45520687103271484,0.5555962324142456,0
2.759734869003296,0.6032629013061523,0.5269618034362793,0
3.0965120792388916,0.9083518981933594,0.7566491961479187,0
3.4739999771118164,1.4468746185302734,1.0857383012771606,0
3.7793073654174805,2.031966209411621,1.263766884803772,0
3.885028839111328,2.479184150695801,1.1015928983688354,0
3.9031238555908203,2.6760854721069336,0.8096945285797119,0
3.904907464981079,2.6084556579589844,0.7466844320297241,0
4.036275386810303,2.3506956100463867,0.6798542141914368,0
4.257079124450684,2.0681114196777344,0.6870951652526855,0
4.400035858154297,1.686570167541504,0.5998129844665527,0
4.369919776916504,1.474024772644043,0.3192688226699829,0
4.284701824188232,1.425724983215332,0.14513123035430908,0
4.051297187805176,1.4819221496582031,0.1270771622657776,0
3.923440456390381,1.6642379760742188,0.36266905069351196,0
3.8129403591156006,1.96795654296875,0.7572536468505859,0
3.8349976539611816,2.4074106216430664,1.3179888725280762,0
3.844146251678467,3.0087718963623047,1.9477368593215942,0
3.8000926971435547,3.788461685180664,2.447591781616211,0
3.676990032196045,4.385032653808594,2.7157201766967773,0
3.408008575439453,4.772202491760254,2.5379269123077393,0
2.930724620819092,4.679873466491699,1.9380226135253906,0
2.3663644790649414,4.314215660095215,1.1451632976531982,0
1.8957217931747437,3.814363479614258,0.5888062119483948,0
1.4648921489715576,3.417365074157715,0.3574938178062439,0
0.7154043912887573,3.094318389892578,0.636560320854187,0
-0.06248593330383301,2.763723373413086,1.408046007156372,0
-0.9920792579650879,2.3035106658935547,2.37496280670166,0
-1.7290904521942139,1.8023996353149414,3.182864189147949,0
-2.416440486907959,1.5262441635131836,3.721144676208496,0
-3.0000340938568115,1.4468059539794922,3.8583121299743652,0
-3.5069241523742676,1.6915349960327148,3.68379807472229,0
-4.043756484985352,2.222644805908203,3.189452886581421,0
-4.495041847229004,2.7678680419921875,2.609555244445801,0
-4.781165599822998,3.1817541122436523,2.0318455696105957,0
-5.015795707702637,3.4837722778320312,1.5662652254104614,0
-5.111382484436035,3.561528205871582,1.1840219497680664,0
-5.090540885925293,3.4746904373168945,0.7669492959976196,0
-4.9836835861206055,3.1630945205688477,0.1432105302810669,0
-4.759194374084473,2.820018768310547,-0.7327117919921875,0
-4.548376083374023,2.5189504623413086,-1.7086199522018433,0
-4.319584846496582,2.433889389038086,-2.6454827785491943,0
-4.215928554534912,2.549776077270508,-3.438190460205078,0
-4.079084396362305,2.6699647903442383,-3.9701626300811768,0
-3.7476871013641357,2.787210464477539,-4.254667282104492,0
-3.5583176612854004,2.739071846008301,-4.234098434448242,0
-3.1109778881073,2.8060264587402344,-3.837956428527832,0
-2.292783737182617,2.711009979248047,-3.0986685752868652,0
-1.30657958984375,2.3205556869506836,-2.2775344848632812,0
-0.5014232397079468,1.8288345336914062,-1.5988742113113403,0
0.1285949945449829,1.3650331497192383,-1.0653202533721924,0
0.6892633438110352,1.1058588027954102,-0.7115974426269531,0
1.1824977397918701,1.0578489303588867,-0.4038829803466797,0
1.596852421760559,1.0099258422851562,-0.08248114585876465,0
2.195016384124756,1.1245689392089844,0.10085344314575195,0
2.5749404430389404,1.112238883972168,0.2928624153137207,0
2.983471632003784,1.0641660690307617,0.3593149185180664,0
3.306972026824951,1.0189104080200195,0.3068368434906006,0
3.2730321884155273,0.8641748428344727,0.2617366313934326,0
2.9100570678710938,0.6789817810058594,0.17813539505004883,0
2.441694736480713,0.4536905288696289,0.012790203094482422,0
1.9981938600540161,0.1978139877319336,-0.224961519241333,0
1.5181734561920166,-0.1319446563720703,-0.48933887481689453,0
1.0285415649414062,-0.42127132415771484,-0.7697482109069824,0
0.7041162252426147,-0.84759521484375,-1.0726525783538818,0
0.3417220413684845,-1.172037124633789,-1.421298861503601,0
-0.06439134478569031,-1.8445825576782227,-1.7241336107254028,0
-0.2438012659549713,-2.011300563812256,-2.0887913703918457,0
-0.5083081722259521,-2.2968454360961914,-2.4031126499176025,0
-0.8757504820823669,-2.619551181793213,-2.7968597412109375,0
-1.2401505708694458,-2.9359865188598633,-3.1583404541015625,0
-1.6965492963790894,-3.3079333305358887,-3.447826623916626,0
-2.1317739486694336,-3.617644786834717,-3.822025775909424,0
-2.5495786666870117,-3.859941005706787,-4.2078423500061035,0
-3.048994541168213,-4.056060314178467,-4.477025985717773,0
-3.5376179218292236,-4.217753887176514,-4.651849746704102,0
-4.035027027130127,-4.285205841064453,-4.689562797546387,0
-4.4507551193237305,-4.239433765411377,-4.616522312164307,0
-4.787495136260986,-4.147573947906494,-4.463803291320801,0
-5.165036201477051,-4.036195278167725,-4.2309346199035645,0
-5.423122406005859,-3.939094066619873,-3.96505069732666,0
-5.6307759284973145,-3.8972678184509277,-3.6365807056427,0
-5.742326259613037,-3.8703646659851074,-3.2829604148864746,0
-5.6380228996276855,-3.882692813873291,-2.893627643585205,0
-5.1347856521606445,-3.9418163299560547,-2.5417959690093994,0
-4.2839155197143555,-4.045681953430176,-2.162038803100586,0
-3.605707883834839,-4.173035144805908,-1.784813642501831,0
-2.991795063018799,-4.374269485473633,-1.3976969718933105,0
-2.5495738983154297,-4.589600563049316,-1.0387415885925293,0
-2.121040105819702,-4.826132297515869,-0.7151594161987305,0
-1.76326584815979,-5.038394927978516,-0.4627418518066406,0
-1.5116610527038574,-5.176156044006348,-0.2479391098022461,0
-1.324995756149292,-5.272914886474609,0.005784034729003906,0
-1.2503716945648193,-5.300102233886719,0.2676856517791748,0
-1.2561390399932861,-5.310503005981445,0.49527406692504883,0
-1.3398866653442383,-5.230083465576172,0.7011797428131104,0
-1.5232069492340088,-5.161712646484375,0.8714644908905029,0
-1.6836386919021606,-5.131381034851074,0.960561990737915,0
-1.8979392051696777,-5.040447235107422,0.9533617496490479,0
-2.03214955329895,-4.807028293609619,0.8942315578460693,0
-2.059412956237793,-4.4758782386779785,0.8196580410003662,0
-1.9435769319534302,-3.9530773162841797,0.7326889038085938,0
-1.799626350402832,-3.266712188720703,0.5786266326904297,0
-1.5734609365463257,-2.365917205810547,0.32875704765319824,0
-1.1613143682479858,-1.1977062225341797,0.08857917785644531,0
-0.5908505320549011,0.24502944946289062,-0.06951093673706055,0
-0.07098287343978882,1.8900461196899414,-0.12053513526916504,0
0.4196142554283142,3.6004438400268555,-0.03950381278991699,0
0.9607324004173279,5.229903221130371,0.19847798347473145,0
1.4680254459381104,7.065025329589844,0.6999266147613525,0
1.9845526218414307,9.01669979095459,1.580979824066162,0
2.4794912338256836,10.871535301208496,2.9464828968048096,0
3.1963400840759277,12.220195770263672,4.508486747741699,0
4.288047790527344,12.440693855285645,6.49411678314209,0
5.617212772369385,10.979157447814941,8.231210708618164,0
6.477691173553467,8.253592491149902,8.874370574951172,0
6.671714782714844,5.693024635314941,8.692113876342773,0
6.327101707458496,3.911593437194824,8.088408470153809,0
5.3735175132751465,2.8938512802124023,7.188607692718506,0
4.601849555969238,2.110499382019043,6.016706466674805,0
3.927156925201416,1.4444971084594727,4.549986839294434,0
2.9578585624694824,0.8627967834472656,2.863004446029663,0
1.8330796957015991,0.3442535400390625,1.271949052810669,0
0.6171270608901978,-0.087127685546875,-0.025806427001953125,0
-0.6432065367698669,-0.4269132614135742,-0.8936548233032227,0
-1.8130786418914795,-0.5084085464477539,-1.33957839012146,0
-2.869920015335083,-0.31097412109375,-1.538732647895813,0
-3.7706923484802246,0.12647438049316406,-1.6691920757293701,0
-4.497010707855225,0.7320146560668945,-1.8624905347824097,0
-5.048148155212402,1.290670394897461,-2.18668794631958,0
-5.126325607299805,1.3274211883544922,-2.737520217895508,0
-5.1178879737854,1.472701072692871,-3.233675956726074,0
-5.09910774230957,1.6294670104980469,-3.6344480514526367,0
-5.218782901763916,2.0334434509277344,-3.6735000610351562,0
-5.604704856872559,2.7811708450317383,-3.244236707687378,0
-6.1362080574035645,3.3317461013793945,-2.4426116943359375,0
-6.5625433921813965,2.9157400131225586,-1.4703378677368164,0
-6.5130696296691895,1.6342182159423828,-0.5213642120361328,0
-5.654631614685059,0.15556907653808594,0.16826772689819336,0
-4.1790642738342285,-1.1646184921264648,0.3359715938568115,0
-2.7348103523254395,-2.1829724311828613,0.05756664276123047,0
-1.1196256875991821,-2.886892318725586,-0.8519944548606873,0
0.13583284616470337,-3.4475555419921875,-2.045132637023926,0
0.9816710948944092,-3.8806252479553223,-3.236513137817383,0
1.443551778793335,-4.137376308441162,-4.1625518798828125,0
1.7283848524093628,-4.348636627197266,-4.770040512084961,0
1.5472866296768188,-4.332002639770508,-5.110526084899902,0
0.8325983285903931,-3.9821090698242188,-5.313382625579834,0
-0.09995436668395996,-3.4260072708129883,-5.401116847991943,0
-0.9886742830276489,-2.728787422180176,-5.269831657409668,0
-1.6588902473449707,-1.881605625152588,-4.93863582611084,0
-2.1755104064941406,-0.9475536346435547,-4.325338840484619,0
-2.452822208404541,0.13204383850097656,-3.557279586791992,0
-2.484133720397949,1.1788272857666016,-2.471543312072754,0
-2.3149845600128174,2.1627960205078125,-1.3187485933303833,0
-1.8800537586212158,2.953521728515625,-0.061653733253479004,0
-1.2708866596221924,3.6075830459594727,0.9893912076950073,0
-0.5879911184310913,3.8714427947998047,1.3988655805587769,0
0.10861492156982422,3.5285158157348633,0.9738520383834839,0
0.7442307472229004,2.850714683532715,-0.07484519481658936,0
1.1652534008026123,2.064229965209961,-1.1837705373764038,0
1.1777708530426025,1.3660001754760742,-2.183615207672119,0
1.3796415328979492,0.8831558227539062,-2.9117751121520996,0
1.5696755647659302,0.5583372116088867,-3.345696449279785,0
1.7722939252853394,0.39634037017822266,-3.4855170249938965,0
2.0918161869049072,0.30395984649658203,-3.325505018234253,0
2.593229293823242,0.20742416381835938,-2.892547130584717,0
3.0599746704101562,-0.021927833557128906,-2.2363991737365723,0
3.237082004547119,-0.3047142028808594,-1.568528413772583,0
2.9115962982177734,-0.6169242858886719,-0.9367934465408325,0
2.119981288909912,-0.9085845947265625,-0.4102522134780884,0
1.1104872226715088,-1.1322698593139648,-0.0724177360534668,0
0.43276429176330566,-1.3408584594726562,-0.1393667459487915,0
0.26561129093170166,-1.3670063018798828,-0.7540237903594971,0
-0.40642333030700684,-1.5338249206542969,-0.4581061601638794,0
-0.5356494188308716,-1.712012767791748,-0.6021569967269897,0
-0.48124945163726807,-1.9206342697143555,-0.5524396300315857,0
-0.2835797071456909,-2.0232505798339844,-0.6662228107452393,0
-0.17228937149047852,-2.2423415184020996,-0.6929068565368652,0
-0.09972059726715088,-2.39370059967041,-0.6829176545143127,0
0.04644274711608887,-2.61135196685791,-0.6554067134857178,0
0.13434040546417236,-2.723113536834717,-0.5622342824935913,0
0.1036461591720581,-2.643169403076172,-0.328560471534729,0
0.1360563039779663,-2.2809433937072754,-0.22407525777816772,0
0.2604858875274658,-1.6391363143920898,-0.18355396389961243,0
0.3311769962310791,-1.0097789764404297,-0.18490514159202576,0
0.40802764892578125,-0.6271610260009766,-0.22301223874092102,0
0.4765106439590454,-0.3044767379760742,-0.27156656980514526,0
0.4934905767440796,0.22137832641601562,-0.3551071882247925,0
0.7678932547569275,0.4528818130493164,-0.36392590403556824,0
1.111013412475586,0.3570232391357422,-0.36251839995384216,0
1.2836072444915771,0.08008289337158203,-0.29072120785713196,0
0.9713484644889832,0.052486419677734375,-0.012253932654857635,0
0.5057815313339233,0.14934349060058594,0.0865827426314354,0
0.3748664855957031,0.23178768157958984,0.07895299792289734,0
0.46423232555389404,0.13974761962890625,0.12943795323371887,0
0.44896137714385986,-0.04516887664794922,0.19060544669628143,0
0.4275470972061157,-0.1673603057861328,0.29169756174087524,0
0.4553341865539551,-0.15269756317138672,0.3447868227958679,0
0.4582979679107666,-0.2953987121582031,0.5179406404495239,0
0.43142974376678467,-0.47095298767089844,0.6127145290374756,0
0.3578050136566162,-0.7008857727050781,0.7315205335617065,0
0.29002976417541504,-0.9158153533935547,0.9095532894134521,0
0.28805816173553467,-1.1157522201538086,1.1581405401229858,0
0.26358890533447266,-1.231318473815918,1.4652957916259766,0
0.212202787399292,-1.2410106658935547,1.771454095840454,0
0.2943902015686035,-1.0683765411376953,1.9691860675811768,0
0.31648755073547363,-0.6418561935424805,1.9222846031188965,0
0.5058718919754028,-0.08129405975341797,1.6929070949554443,0
0.4911644458770752,0.1898040771484375,1.5201845169067383,0
0.6402206420898438,0.44664669036865234,1.3179033994674683,0
0.7945432662963867,0.6221866607666016,1.1505181789398193,0
1.0829639434814453,0.7331972122192383,1.046654462814331,0
1.3137049674987793,0.7701044082641602,1.0300675630569458,0
1.5367419719696045,0.7352867126464844,1.0788599252700806,0
1.7829465866088867,0.7100057601928711,1.146849274635315,0
2.0018744468688965,0.694117546081543,1.2620508670806885,0
2.1599442958831787,0.8022737503051758,1.431050181388855,0
2.242794990539551,0.9433870315551758,1.7228988409042358,0
2.4204623699188232,1.064835548400879,1.9963810443878174,0
2.455919027328491,1.2598295211791992,2.112844944000244,0
2.3678104877471924,1.3918399810791016,2.116060972213745,0
2.404264450073242,1.671219825744629,2.0474939346313477,0
2.5502076148986816,1.8704767227172852,1.749725341796875,0
2.7357137203216553,1.9585027694702148,1.3523796796798706,0
2.9725279808044434,2.2294836044311523,0.9346304535865784,0
3.166802167892456,2.2143983840942383,0.7311986684799194,0
3.2990903854370117,2.1478538513183594,0.6992532014846802,0
3.405259847640991,2.082477569580078,0.7213782072067261,0
3.593198299407959,2.0254364013671875,0.7225366234779358,0
3.552260637283325,2.007826805114746,0.7593211531639099,0
3.5866880416870117,2.0440120697021484,0.8552616238594055,0
3.663402557373047,2.1364898681640625,1.0582646131515503,0
3.7589011192321777,2.426422119140625,1.217513084411621,0
3.660527229309082,2.904047966003418,1.2465651035308838,0
3.4689340591430664,3.5547266006469727,1.1011414527893066,0
3.176844358444214,4.091175079345703,0.7291246652603149,0
2.7864766120910645,4.391467094421387,0.25037333369255066,0
2.5512819290161133,4.408111572265625,-0.21002334356307983,0
2.317843437194824,4.194221496582031,-0.5401307344436646,0
2.1693928241729736,3.848322868347168,-0.526103138923645,0
2.1245625019073486,3.502354621887207,-0.11094173789024353,0
2.231178045272827,3.1949338912963867,0.6748727560043335,0
2.091622829437256,2.8448009490966797,1.7025679349899292,0
0.9822132587432861,2.633380889892578,2.662397861480713,0
-0.545637845993042,2.4501266479492188,3.4092843532562256,0
-1.796278715133667,2.405122756958008,3.748018741607666,0
-2.7066750526428223,2.3841943740844727,3.796760320663452,0
-3.311340570449829,2.3811540603637695,3.5052928924560547,0
-3.872020721435547,2.530872344970703,3.002629280090332,0
-4.3227033615112305,2.630703926086426,2.544495105743408,0
-4.573933124542236,2.709798812866211,2.1778886318206787,0
-4.744357585906982,2.6964521408081055,1.8601412773132324,0
-4.665423393249512,2.499553680419922,1.4339581727981567,0
-4.4387288093566895,2.200061798095703,0.8417066335678101,0
-4.106189727783203,1.8883609771728516,0.06696915626525879,0
-3.669354200363159,1.7217941284179688,-0.7292358875274658,0
-3.342925548553467,1.7524633407592773,-1.528422474861145,0
-2.995286464691162,1.8411598205566406,-2.1690359115600586,0
-2.6818861961364746,1.9660749435424805,-2.779191017150879,0
-2.482553720474243,2.155642509460449,-3.254786968231201,0
-2.158860206604004,2.2997617721557617,-3.676358222961426,0
-1.7595621347427368,2.2837705612182617,-3.949772834777832,0
-1.2330684661865234,2.3900718688964844,-4.035739421844482,0
-0.650547981262207,2.312509536743164,-3.823336124420166,0
-0.03394877910614014,2.0514345169067383,-3.2594714164733887,0
0.6408064365386963,1.9134912490844727,-2.5591800212860107,0
1.221881628036499,1.6812095642089844,-1.7209663391113281,0
1.6376020908355713,1.3573236465454102,-0.9386749267578125,0
2.0909743309020996,1.1166000366210938,-0.24241328239440918,0
2.5354602336883545,1.028249740600586,0.2664449214935303,0
2.7853915691375732,0.9363775253295898,0.6948552131652832,0
2.8800301551818848,1.0416231155395508,0.8069300651550293,0
2.668332576751709,1.149683952331543,0.7592246532440186,0
2.253589630126953,1.231414794921875,0.5741291046142578,0
1.4292587041854858,1.2195310592651367,0.25218749046325684,0
0.7646058797836304,1.369903564453125,-0.14938735961914062,0
0.3260124623775482,1.3020896911621094,-0.5662920475006104,0
0.07456033676862717,1.181340217590332,-1.0156445503234863,0
-0.20819011330604553,0.9599761962890625,-1.4023089408874512,0
-0.4939975142478943,0.7003946304321289,-1.7627522945404053,0
-0.666377067565918,0.3858766555786133,-2.087538719177246,0
-0.9368939995765686,-0.010140419006347656,-2.2252893447875977,0
-1.161761999130249,-0.3562278747558594,-2.4198193550109863,0
-1.1801139116287231,-0.6551065444946289,-2.5366830825805664,0
-1.3244709968566895,-1.0576505661010742,-2.6857094764709473,0
-1.4511756896972656,-1.4203405380249023,-2.819009304046631,0
-1.6061995029449463,-1.857968807220459,-2.939180374145508,0
-1.8665577173233032,-2.370312213897705,-3.0825114250183105,0
-2.19926118850708,-2.775373935699463,-3.215974807739258,0
-2.6408767700195312,-3.1281204223632812,-3.3830230236053467,0
-3.081836462020874,-3.4785995483398438,-3.5339608192443848,0
-3.57047176361084,-3.7644195556640625,-3.753028392791748,0
-4.004430294036865,-3.9376277923583984,-3.9114983081817627,0
-4.353222370147705,-4.084344863891602,-4.000078201293945,0
-4.68204927444458,-4.197391986846924,-4.09779167175293,0
-4.946089744567871,-4.267249584197998,-4.135195255279541,0
-5.0834784507751465,-4.308470726013184,-4.040225028991699,0
-4.7966837882995605,-4.285538196563721,-3.903271436691284,0
-3.980618476867676,-4.237137317657471,-3.7788937091827393,0
-3.2914645671844482,-4.204343318939209,-3.5636188983917236,0
-2.7088563442230225,-4.21863317489624,-3.263965129852295,0
-2.261064291000366,-4.273135662078857,-2.927107334136963,0
-1.8475847244262695,-4.40393590927124,-2.643345832824707,0
-1.5883924961090088,-4.563243389129639,-2.390753746032715,0
-1.3715548515319824,-4.748683452606201,-2.1977486610412598,0
-1.1401082277297974,-4.97215461730957,-2.004412889480591,0
-1.0067815780639648,-5.238343238830566,-1.7605130672454834,0
-0.8588477969169617,-5.413259983062744,-1.5210957527160645,0
-0.767365574836731,-5.57596492767334,-1.2262074947357178,0
-0.7722436189651489,-5.652407646179199,-0.9449810981750488,0
-0.8727420568466187,-5.695350646972656,-0.6675143241882324,0
-1.1783783435821533,-5.716834545135498,-0.3670620918273926,0
-1.420621395111084,-5.762330055236816,-0.08865547180175781,0
-1.7213139533996582,-5.743212699890137,0.17512869834899902,0
-1.9510138034820557,-5.731019973754883,0.36444783210754395,0
-2.1426596641540527,-5.784927845001221,0.48565173149108887,0
-2.3459107875823975,-5.677029609680176,0.5472855567932129,0
-2.533823251724243,-5.449812889099121,0.5934901237487793,0
-2.6366546154022217,-4.959152698516846,0.6155378818511963,0
-2.5205907821655273,-4.149709224700928,0.6169774532318115,0
-2.2573506832122803,-3.1025643348693848,0.541684627532959,0
-1.8457106351852417,-1.7289214134216309,0.4170694351196289,0
-1.2624945640563965,0.007260322570800781,0.23659491539001465,0
-0.8685197234153748,1.9100170135498047,0.004800558090209961,0
-0.49401670694351196,3.941399574279785,-0.20067977905273438,0
-0.18220782279968262,6.092103958129883,-0.22896075248718262,0
0.017272770404815674,8.897660255432129,-0.0075490474700927734,0
0.25556063652038574,11.627495765686035,0.8151531219482422,0
0.5877182483673096,13.871835708618164,2.2530570030212402,0
1.1975270509719849,15.297282218933105,4.321759223937988,0
2.3573341369628906,15.18552017211914,7.170114517211914,0
3.5683045387268066,12.205288887023926,9.382251739501953,0
4.375292778015137,7.990080833435059,10.759075164794922,0
4.775294780731201,4.573428153991699,11.065593719482422,0
4.672147750854492,2.133668899536133,10.208114624023438,0
4.526600360870361,0.42360782623291016,8.725475311279297,0
4.31881856918335,-0.6624326705932617,7.15077018737793,0
4.063047409057617,-1.4378719329833984,5.4420623779296875,0
3.831737756729126,-2.095918655395508,3.609037399291992,0
3.260108470916748,-2.542513370513916,1.7850441932678223,0
2.4059627056121826,-2.781891345977783,0.03867959976196289,0
1.3252311944961548,-2.8355612754821777,-1.3279942274093628,0
0.3261221945285797,-2.5964574813842773,-2.1832997798919678,0
-0.5634183883666992,-2.10861873626709,-2.585533618927002,0
-1.1900577545166016,-1.428055763244629,-2.757235288619995,0
-1.7418016195297241,-0.6918869018554688,-2.846700429916382,0
-2.2435402870178223,0.10418415069580078,-3.0071215629577637,0
