AccX,AccY,AccZ,stepCount
1.8077641725540161,2.508406639099121,3.1888113021850586,2.5028507709503174
1.4281010627746582,2.044297218322754,1.5598077774047852,-1.451207160949707
0.7940586805343628,1.7858686447143555,0.3136613368988037,3.530270576477051
0.008777394890785217,1.6727724075317383,-0.3774549961090088,-1.4179506301879883
-0.873357892036438,1.8112974166870117,-0.5421032905578613,1.4861644506454468
-1.7116529941558838,2.144495964050293,-0.4197103977203369,0.6264776587486267
-2.4339773654937744,2.4696130752563477,-0.3733844757080078,0.5926822423934937
-3.049154758453369,2.6130781173706055,-0.5223753452301025,0.6481753587722778
-3.580512046813965,2.332808494567871,-1.037508249282837,0
-3.867271661758423,1.868535041809082,-2.02030611038208,0
-4.093728065490723,1.276810646057129,-3.427898406982422,0
-4.263265132904053,0.720149040222168,-4.8310089111328125,0
-4.574215412139893,0.34194087982177734,-5.654545307159424,0
-4.965613842010498,0.20172691345214844,-5.830410003662109,0
-5.252207279205322,0.1951904296875,-5.261265754699707,0
-4.979478359222412,-0.17640209197998047,-3.964540481567383,0
-3.5911054611206055,-0.9364814758300781,-2.4438793659210205,0
-1.2359081506729126,-1.7227487564086914,-1.3829622268676758,0
0.7984622716903687,-2.437657356262207,-1.0215080976486206,0
2.284965753555298,-3.009204864501953,-1.2512977123260498,0
3.022559404373169,-3.41998291015625,-1.9740391969680786,0
3.2328579425811768,-3.6524925231933594,-3.025799036026001,0
3.140766143798828,-3.7825927734375,-4.018422603607178,0
2.6036548614501953,-3.809756278991699,-4.776655673980713,0
2.0848388671875,-3.580563545227051,-5.206806659698486,0
1.5351669788360596,-3.482288360595703,-5.3173980712890625,0
0.9529979228973389,-2.983889102935791,-4.990879058837891,0
0.22491586208343506,-2.5451126098632812,-4.454364776611328,0
-0.5800474882125854,-2.0349416732788086,-3.4940552711486816,0
-1.4463176727294922,-1.3730897903442383,-2.4611728191375732,0
-2.2848310470581055,-0.6517219543457031,-1.4763518571853638,0
-3.006751537322998,0.13267803192138672,-0.6722599267959595,0
-3.644862651824951,0.7540874481201172,-0.12671995162963867,0
-4.0159382820129395,1.5201044082641602,0.2754812240600586,0
-4.151495933532715,2.140660285949707,0.45618700981140137,0
-3.917634963989258,2.4581079483032227,0.5025088787078857,0
-3.6420459747314453,2.5545406341552734,0.3466078042984009,0
-3.2695956230163574,2.3473358154296875,-0.011788606643676758,0
-2.8097729682922363,1.8880329132080078,-0.47121095657348633,0
-2.188961982727051,1.3667993545532227,-0.917269229888916,0
-1.5013158321380615,0.9518604278564453,-1.1643972396850586,0
-0.7455278635025024,0.6316156387329102,-1.2277603149414062,0
0.11334288120269775,0.5233039855957031,-1.2959567308425903,0
0.931323766708374,0.5620441436767578,-1.4740787744522095,0
1.7231202125549316,0.5370750427246094,-1.807712435722351,0
2.229107618331909,0.3861122131347656,-2.084784507751465,0
2.647378921508789,0.2956562042236328,-2.1832988262176514,0
2.8965063095092773,0.13401126861572266,-2.0092720985412598,0
2.8690624237060547,-0.0749053955078125,-1.621638536453247,0
2.6750102043151855,-0.31674957275390625,-1.2373590469360352,0
2.1913914680480957,-0.4409170150756836,-0.9855248332023621,0
1.4354636669158936,-0.4739370346069336,-0.9266427755355835,0
0.5358664989471436,-0.5020809173583984,-0.9643055200576782,0
-0.07982850074768066,-0.5181484222412109,-1.1703362464904785,0
-0.47660791873931885,-0.5172052383422852,-1.4883108139038086,0
-0.7002490758895874,-0.7333955764770508,-1.8623168468475342,0
-0.7990238666534424,-1.0419626235961914,-2.0764997005462646,0
-0.9481415748596191,-1.3566360473632812,-2.1042683124542236,0
-0.9474363327026367,-1.6630706787109375,-2.009864091873169,0
-0.9746416807174683,-1.9445948600769043,-1.7638885974884033,0
-0.7218477725982666,-2.304137706756592,-1.418030023574829,0
-0.45998501777648926,-2.409355640411377,-0.9803851246833801,0
-0.20621931552886963,-2.351576805114746,-0.5036228895187378,0
0.04680585861206055,-2.0569510459899902,-0.0301225483417511,0
0.3019524812698364,-1.626215934753418,0.4318982660770416,0
0.4664994478225708,-0.9734573364257812,0.6856292486190796,0
0.6220925450325012,-0.3213205337524414,0.7089048027992249,0
0.6992538571357727,0.16278934478759766,0.5077654123306274,0
0.6087992191314697,0.4215879440307617,0.16200445592403412,0
0.5938395261764526,0.4886913299560547,-0.19646960496902466,0
0.7088668346405029,0.43841075897216797,-0.4625892639160156,0
0.805203914642334,0.26607322692871094,-0.6702262163162231,0
0.8324527740478516,0.07939338684082031,-0.8388952612876892,0
1.0469390153884888,-0.09524917602539062,-0.877916693687439,0
1.10224449634552,-0.22670841217041016,-0.8376930952072144,0
1.1233108043670654,-0.31975650787353516,-0.7469857931137085,0
1.103438138961792,-0.44849395751953125,-0.574571967124939,0
0.9901846051216125,-0.5172061920166016,-0.24131211638450623,0
0.9129390120506287,-0.5498504638671875,-8.67202877998352E-4,0
0.9196199178695679,-0.5153570175170898,0.24000823497772217,0
0.8261003494262695,-0.5166139602661133,0.46904808282852173,0
0.7712079286575317,-0.5990104675292969,0.6691062450408936,0
0.7166425585746765,-0.5592126846313477,0.8206818103790283,0
0.7820994853973389,-0.43084144592285156,0.8588134050369263,0
0.7834541201591492,-0.49374866485595703,0.96297687292099,0
0.8907161951065063,-0.623321533203125,1.030532956123352,0
0.9748829007148743,-0.7261571884155273,1.0357813835144043,0
1.112809419631958,-0.8356781005859375,1.0823073387145996,0
1.2854032516479492,-0.9757270812988281,1.0940437316894531,0
1.2746636867523193,-0.9119787216186523,1.0665597915649414,0
1.0894834995269775,-0.9986972808837891,1.1030902862548828,0
1.116722583770752,-1.0134506225585938,1.1555790901184082,0
1.2555575370788574,-0.7937698364257812,1.1853039264678955,0
1.3648581504821777,-0.5623388290405273,1.217969298362732,0
1.420674204826355,-0.3455324172973633,1.3102573156356812,0
1.4636423587799072,-0.16253662109375,1.3584833145141602,0
1.465004801750183,-0.046871185302734375,1.3834973573684692,0
1.5015370845794678,-0.003269195556640625,1.3702576160430908,0
1.4993610382080078,0.01616191864013672,1.315793752670288,0
1.5615601539611816,-0.03638935089111328,1.217282772064209,0
1.6092593669891357,-0.06283092498779297,1.1031696796417236,0
1.6857224702835083,-0.01774883270263672,1.0093233585357666,0
1.783966064453125,0.1848907470703125,1.0052385330200195,0
1.7606110572814941,0.4779634475708008,1.0431022644042969,0
1.847558617591858,0.8421764373779297,1.0343893766403198,0
1.7643933296203613,1.0310754776000977,1.0775628089904785,0
1.6352818012237549,1.2265663146972656,1.0750476121902466,0
1.840910792350769,1.3426942825317383,1.0943093299865723,0
1.8740216493606567,1.4489412307739258,1.032798409461975,0
1.98818838596344,1.5596723556518555,0.8813173174858093,0
2.082723617553711,1.5983505249023438,0.7119143605232239,0
2.066343307495117,1.5984325408935547,0.46468111872673035,0
2.0655019283294678,1.665060043334961,0.17529702186584473,0
1.979091763496399,1.7286605834960938,-0.022313475608825684,0
1.9261423349380493,1.8919486999511719,-0.10401672124862671,0
1.9468196630477905,2.1690902709960938,-0.07184725999832153,0
1.9305081367492676,2.4594717025756836,0.15856456756591797,0
1.9989690780639648,2.9209136962890625,0.5328837037086487,0
2.125760555267334,3.457564353942871,0.9243180155754089,0
2.2058866024017334,4.004778861999512,1.253157138824463,0
2.376338005065918,4.435833930969238,1.3742039203643799,0
2.443976402282715,4.700649261474609,1.3690632581710815,0
2.548172950744629,4.9189653396606445,1.1564728021621704,0
2.553006172180176,4.995222091674805,0.9093630909919739,0
2.628565788269043,5.027736663818359,0.6631124019622803,0
2.6501433849334717,5.097958564758301,0.5473269820213318,0
2.6650686264038086,5.239421844482422,0.6803735494613647,0
2.6060428619384766,5.399575233459473,0.9988484382629395,0
2.633326530456543,5.363354682922363,1.4101791381835938,0
2.00929594039917,5.095074653625488,1.9527345895767212,0
0.44996345043182373,4.668774604797363,2.4839625358581543,0
-0.7967205047607422,3.96743106842041,2.8894755840301514,0
-1.5367014408111572,3.1042137145996094,3.199127197265625,0
-1.974121332168579,2.2211427688598633,3.3479366302490234,0
-2.240896701812744,1.5844268798828125,3.2313642501831055,0
-2.3542726039886475,1.141805648803711,2.9919724464416504,0
-2.3247427940368652,0.8313770294189453,2.5424206256866455,0
-2.1753363609313965,0.6413984298706055,1.94092857837677,0
-2.0516655445098877,0.5791339874267578,1.2695398330688477,0
-2.0040106773376465,0.4197559356689453,0.7279497385025024,0
-1.805411458015442,0.3808860778808594,0.2583519220352173,0
-1.796236276626587,0.44522666931152344,-0.0713951587677002,0
-1.6298177242279053,0.4710264205932617,-0.3610111474990845,0
-1.5678865909576416,0.5461435317993164,-0.7110450267791748,0
-1.4294935464859009,0.662775993347168,-1.079696536064148,0
-1.3084735870361328,0.8754940032958984,-1.3974816799163818,0
-1.1839327812194824,1.0451068878173828,-1.719327688217163,0
-0.9677343368530273,1.1594314575195312,-2.1146249771118164,0
-0.7485854029655457,1.1681547164916992,-2.6147656440734863,0
-0.6583918333053589,1.1071758270263672,-3.0935542583465576,0
-0.5459890961647034,1.0770797729492188,-3.614043712615967,0
-0.382448673248291,1.0253400802612305,-4.048018932342529,0
-0.23006367683410645,0.9785451889038086,-4.258350372314453,0
-0.05130380392074585,0.989715576171875,-4.161296844482422,0
0.0013042688369750977,0.8845005035400391,-3.859133720397949,0
-0.06386637687683105,0.9764204025268555,-3.6013033390045166,0
-0.02675783634185791,1.0883750915527344,-3.2680537700653076,0
0.03354597091674805,1.2273626327514648,-2.8919875621795654,0
0.12449908256530762,1.3716392517089844,-2.4672887325286865,0
0.2614954710006714,1.499344825744629,-2.064258098602295,0
0.400714248418808,1.5840654373168945,-1.7634719610214233,0
0.43618714809417725,1.6424856185913086,-1.4783554077148438,0
0.40105536580085754,1.7008476257324219,-1.2015734910964966,0
0.2011670023202896,1.6251106262207031,-0.9593455791473389,0
0.020468834787607193,1.6210155487060547,-0.9025528430938721,0
-0.21843916177749634,1.4349384307861328,-0.9213361740112305,0
-0.4113650321960449,1.2678747177124023,-0.9681723117828369,0
-0.5712416768074036,1.0551633834838867,-1.103238821029663,0
-0.8171205520629883,0.7894916534423828,-1.2188873291015625,0
-1.0415384769439697,0.5088100433349609,-1.3313391208648682,0
-1.3388373851776123,0.14345455169677734,-1.459155797958374,0
-1.6768628358840942,-0.32329463958740234,-1.6548810005187988,0
-1.9710427522659302,-0.8171701431274414,-1.882676601409912,0
-2.252030611038208,-1.271000862121582,-2.128598213195801,0
-2.5076680183410645,-1.682133674621582,-2.3789267539978027,0
-2.73284649848938,-2.071791648864746,-2.689371109008789,0
-2.9603848457336426,-2.4707999229431152,-2.9599709510803223,0
-3.177159309387207,-2.82388973236084,-3.2223594188690186,0
-3.3099422454833984,-3.109440326690674,-3.4504876136779785,0
-3.356600046157837,-3.4062705039978027,-3.6255950927734375,0
-3.131791591644287,-3.556476593017578,-3.826904296875,0
-2.583719491958618,-3.598722457885742,-3.8149259090423584,0
-2.098484516143799,-3.5860543251037598,-3.7591755390167236,0
-1.6842318773269653,-3.444744110107422,-3.6519975662231445,0
-1.3136032819747925,-3.270904541015625,-3.550337076187134,0
-1.00973641872406,-3.1127238273620605,-3.381916046142578,0
-0.7913661003112793,-3.0039544105529785,-3.189333915710449,0
-0.636725664138794,-2.925741195678711,-2.950470447540283,0
-0.6007227301597595,-2.9357361793518066,-2.683925151824951,0
-0.5806235671043396,-2.9647297859191895,-2.3772706985473633,0
-0.6723812818527222,-3.0750465393066406,-2.1018781661987305,0
-0.8689578771591187,-3.187798023223877,-1.8143749237060547,0
-1.0483391284942627,-3.3388800621032715,-1.5648918151855469,0
-1.3323289155960083,-3.52105712890625,-1.3701374530792236,0
-1.5387587547302246,-3.686400890350342,-1.2086498737335205,0
-1.7917842864990234,-3.899400234222412,-1.0972776412963867,0
-2.041152000427246,-4.073849201202393,-1.0216214656829834,0
-2.279877185821533,-4.231175899505615,-0.9650156497955322,0
-2.4962637424468994,-4.433431625366211,-0.9299147129058838,0
-2.6953418254852295,-4.618135452270508,-0.9548969268798828,0
-2.827103853225708,-4.816141128540039,-0.961327314376831,0
-2.8581130504608154,-4.962550163269043,-0.9784774780273438,0
-2.819255828857422,-5.090668678283691,-0.994776725769043,0
-2.6860830783843994,-5.138071060180664,-0.96297287940979,0
-2.5130696296691895,-5.121372222900391,-0.8787679672241211,0
-2.2495687007904053,-4.978236198425293,-0.7737782001495361,0
-1.9743572473526,-4.641589641571045,-0.5792076587677002,0
-1.7159335613250732,-4.152126789093018,-0.35524582862854004,0
-1.3953231573104858,-3.4883594512939453,-0.08776283264160156,0
-1.065347671508789,-2.5954179763793945,0.20649099349975586,0
-0.7598946690559387,-1.595411777496338,0.47963714599609375,0
-0.4390072822570801,-0.5265264511108398,0.7624988555908203,0
-0.1586766093969345,0.5707788467407227,0.9731736183166504,0
0.1180180162191391,1.7183189392089844,1.2088801860809326,0
0.3271685540676117,2.928386688232422,1.4179747104644775,0
0.44988882541656494,4.208396911621094,1.6898889541625977,0
0.5030315518379211,5.460518836975098,2.0491201877593994,0
0.7430729866027832,6.70892333984375,2.520111322402954,0
0.8904444575309753,7.721739768981934,3.3069992065429688,0
1.0505812168121338,8.456164360046387,4.152480125427246,0
1.142851710319519,8.36717700958252,4.941352844238281,0
1.1450753211975098,7.438755035400391,5.63825798034668,0
1.1101139783859253,6.180734634399414,6.09913444519043,0
1.2082996368408203,5.0899763107299805,6.212924003601074,0
1.4500117301940918,4.320616722106934,6.082402229309082,0
1.7002429962158203,3.892849922180176,5.723753929138184,0
1.9398027658462524,3.6335878372192383,5.106300354003906,0
2.1194868087768555,3.341825485229492,4.357653617858887,0
2.322075605392456,2.9536495208740234,3.452500104904175,0
2.355102777481079,2.3410024642944336,2.4524757862091064,0
2.123307466506958,1.6724481582641602,1.4451663494110107,0
1.6666394472122192,0.9989089965820312,0.6813859939575195,0
1.1172564029693604,0.47835254669189453,0.39899444580078125,0
0.6331566572189331,0.03139305114746094,0.5670785903930664,0
0.17605441808700562,-0.14422893524169922,1.1130783557891846,0
-0.18664488196372986,-0.009168624877929688,1.8343770503997803,0
-0.5429041385650635,0.2939186096191406,2.4434807300567627,0
-0.9425010681152344,0.8974838256835938,2.73492431640625,0
-1.5240682363510132,1.7713193893432617,2.4580495357513428,0
-2.1397852897644043,2.6442346572875977,1.4043331146240234,0
-2.669189929962158,3.1842308044433594,-0.4154421091079712,0
-3.0925955772399902,3.730466842651367,-2.6150026321411133,0
-3.3375041484832764,3.8452272415161133,-4.694952964782715,0
-3.4352352619171143,3.883014678955078,-6.235989570617676,0
-3.4458823204040527,4.2906904220581055,-7.099559783935547,0
-3.215149402618408,4.468015670776367,-7.372834205627441,0
-2.7554426193237305,3.8780813217163086,-6.622793197631836,0
-2.133928060531616,2.5007410049438477,-5.276311874389648,0
-1.5297503471374512,0.7327117919921875,-3.774625539779663,0
-0.9501111507415771,-0.9596567153930664,-2.3087806701660156,0
-0.43013668060302734,-2.463918685913086,-1.1728821992874146,0
-0.05927370488643646,-3.6243953704833984,-0.612542450428009,0
0.02795127034187317,-4.555725574493408,-0.551067590713501,0
-0.14020246267318726,-5.217014312744141,-0.7901648879051208,0
-0.4454554319381714,-5.7563934326171875,-1.1220057010650635,0
-0.826073944568634,-6.199969291687012,-1.469817876815796,0
-1.3007683753967285,-6.528512954711914,-1.8370838165283203,0
-1.9373536109924316,-6.596201419830322,-2.161538600921631,0
-2.606398344039917,-6.393866539001465,-2.3915348052978516,0
-3.28726863861084,-5.993814468383789,-2.51046085357666,0
-3.775620698928833,-5.461238384246826,-2.5921740531921387,0
-4.082122802734375,-4.653335094451904,-2.6361968517303467,0
-4.137822151184082,-3.499293804168701,-2.6372363567352295,0
-4.121667861938477,-2.1339988708496094,-2.6836509704589844,0
-4.125643730163574,-0.572545051574707,-2.6895694732666016,0
-3.994943141937256,1.1270942687988281,-2.7373828887939453,0
-3.753709554672241,2.7947168350219727,-2.596226692199707,0
-3.361692428588867,4.224515914916992,-2.1791887283325195,0
-2.7338919639587402,5.23721981048584,-1.4306551218032837,0
-2.0130670070648193,5.751895904541016,-0.5469606518745422,0
-1.093372106552124,5.659206390380859,0.17134416103363037,0
-0.20414483547210693,5.093976974487305,0.6830744743347168,0
0.4614124298095703,4.284185409545898,0.8333576917648315,0
1.1273040771484375,3.2974205017089844,0.6318399310112,0
1.6638787984848022,2.2871904373168945,0.2727928161621094,0
2.0904388427734375,1.4688701629638672,-0.1366744041442871,0
2.3293051719665527,0.7299747467041016,-0.6308798789978027,0
2.543466567993164,0.13043689727783203,-1.1228569746017456,0
2.8015799522399902,-0.2864522933959961,-1.5368921756744385,0
3.008025646209717,-0.6758632659912109,-1.734786033630371,0
3.086170196533203,-0.9681730270385742,-1.5226035118103027,0
2.925220251083374,-1.2566165924072266,-1.0505778789520264,0
2.3646750450134277,-1.431314468383789,-0.5311174392700195,0
1.3923752307891846,-1.4161882400512695,-0.3111323416233063,0
0.45121002197265625,-1.3337783813476562,-0.34371912479400635,0
-0.3800598382949829,-1.296788215637207,-0.17436501383781433,0
-0.761327862739563,-1.0780611038208008,-0.4765973687171936,0
-0.7298176288604736,-0.8762311935424805,-0.9239538908004761,0
-0.5638105869293213,-0.7509927749633789,-1.2738256454467773,0
-0.31375741958618164,-0.6543722152709961,-1.479574203491211,0
-0.08260703086853027,-0.7632312774658203,-1.535243034362793,0
0.1317659616470337,-0.9458131790161133,-1.5064936876296997,0
0.23348963260650635,-1.1111936569213867,-1.231380581855774,0
0.454612672328949,-1.3789806365966797,-0.7508553266525269,0
0.5247610807418823,-1.5314998626708984,-0.22954235970973969,0
0.49422717094421387,-1.5856819152832031,0.2926039695739746,0
0.40645259618759155,-1.6157646179199219,0.6368446350097656,0
0.3337148427963257,-1.5619630813598633,0.7106759548187256,0
0.25505131483078003,-1.3310737609863281,0.6224196553230286,0
0.1876557469367981,-1.1312932968139648,0.4297356903553009,0
0.1799941062927246,-0.850123405456543,0.19009602069854736,0
0.04333925247192383,-0.7650032043457031,0.07836997509002686,0
-0.05258619785308838,-0.5887594223022461,-0.02020440623164177,0
-0.05542564392089844,-0.4315023422241211,-0.10340990126132965,0
-0.025184273719787598,-0.29320812225341797,-0.21230369806289673,0
0.06699079275131226,-0.2742471694946289,-0.2777835726737976,0
0.1826101541519165,-0.31948280334472656,-0.24258796870708466,0
0.23303872346878052,-0.4694843292236328,-0.1594369262456894,0
0.3857383728027344,-0.7312889099121094,8.124113082885742E-5,0
0.5402230024337769,-0.8130388259887695,0.1015218198299408,0
0.507311999797821,-0.9875621795654297,0.3770516514778137,0
0.6794478893280029,-1.223642349243164,0.6113553643226624,0
0.7886605858802795,-1.286855697631836,0.7805097103118896,0
0.8250279426574707,-1.2276678085327148,0.934963047504425,0
0.7044670581817627,-1.1132230758666992,1.0630567073822021,0
0.788318395614624,-1.0367956161499023,1.122315526008606,0
0.9594026803970337,-0.9480381011962891,1.1612939834594727,0
1.067125678062439,-0.7631912231445312,1.1543666124343872,0
1.0206630229949951,-0.5062484741210938,1.082573413848877,0
1.0284062623977661,-0.15812969207763672,0.9909886121749878,0
0.9921162724494934,0.10647869110107422,0.9819014072418213,0
0.8636592030525208,0.3808555603027344,1.0568989515304565,0
0.7505539655685425,0.6624898910522461,1.1166815757751465,0
0.6236593127250671,0.7647018432617188,1.1529488563537598,0
0.49462008476257324,0.9003238677978516,1.0949934720993042,0
0.45666277408599854,0.8754816055297852,1.042159914970398,0
0.48548662662506104,0.8312902450561523,1.024873971939087,0
0.5978372097015381,0.7318611145019531,1.0381579399108887,0
0.7287094593048096,0.6369524002075195,1.029523253440857,0
0.8753278255462646,0.5393457412719727,1.1024494171142578,0
1.04441237449646,0.6613578796386719,1.178469181060791,0
1.2690951824188232,0.8855161666870117,1.2341680526733398,0
1.5513484477996826,1.0322837829589844,1.2936677932739258,0
1.6801197528839111,1.1494712829589844,1.3524880409240723,0
1.9445184469223022,1.4474983215332031,1.5475902557373047,0
2.185992956161499,1.7969207763671875,1.661637306213379,0
2.499912977218628,1.9823532104492188,1.4767735004425049,0
2.840503215789795,1.9512720108032227,1.0885205268859863,0
3.0114736557006836,1.7995452880859375,0.7410500049591064,0
3.2306711673736572,1.6158466339111328,0.4538748264312744,0
3.3979454040527344,1.4792613983154297,0.32326072454452515,0
3.571253776550293,1.4472713470458984,0.21793264150619507,0
3.626743793487549,1.467270851135254,0.05674475431442261,0
3.586292266845703,1.5846881866455078,-0.01667630672454834,0
3.4429874420166016,1.8209772109985352,0.09335482120513916,0
3.3645339012145996,2.0828237533569336,0.44200560450553894,0
3.3680472373962402,2.3153228759765625,0.9669933319091797,0
3.3536787033081055,2.552077293395996,1.4880731105804443,0
3.2215614318847656,2.9700002670288086,1.8719291687011719,0
3.051173210144043,3.480304718017578,1.984644889831543,0
2.7804064750671387,3.7957868576049805,1.8499252796173096,0
2.435152530670166,3.9284772872924805,1.3987443447113037,0
2.0743181705474854,3.9598045349121094,0.7402263879776001,0
1.7662070989608765,3.8899221420288086,0.1352117657661438,0
1.5384182929992676,3.79799747467041,-0.2526389956474304,0
1.4139633178710938,3.6747169494628906,-0.20633861422538757,0
1.3610893487930298,3.613621711730957,0.18031258881092072,0
1.4204432964324951,3.411686897277832,0.9069850444793701,0
1.3314039707183838,2.94497013092041,1.9082449674606323,0
0.19578540325164795,2.505373001098633,2.8323118686676025,0
-1.0780798196792603,2.157382011413574,3.396852970123291,0
-1.9995570182800293,1.9300365447998047,3.4834117889404297,0
-2.512352466583252,1.7499008178710938,3.32417631149292,0
-3.00705623626709,1.8042945861816406,2.9694604873657227,0
-3.3508362770080566,1.9572525024414062,2.5050554275512695,0
-3.6382689476013184,2.1779727935791016,2.0366532802581787,0
-3.674192190170288,2.2920303344726562,1.6725072860717773,0
-3.586667060852051,2.2755327224731445,1.3802324533462524,0
-3.4031589031219482,2.1640520095825195,1.0634121894836426,0
-3.1900014877319336,1.8469152450561523,0.6615003347396851,0
-2.8584542274475098,1.531473159790039,0.09635424613952637,0
-2.557018756866455,1.3388614654541016,-0.5180540084838867,0
-2.3317577838897705,1.268336296081543,-1.2487081289291382,0
-2.219620704650879,1.3839197158813477,-1.9648544788360596,0
-2.2120418548583984,1.6396722793579102,-2.6363296508789062,0
-2.2093653678894043,1.8248157501220703,-3.230531930923462,0
-2.2190704345703125,1.9919872283935547,-3.7149767875671387,0
-2.1477768421173096,2.1628007888793945,-4.1124114990234375,0
-1.9910306930541992,2.1966114044189453,-4.277098178863525,0
-1.8121941089630127,2.4289941787719727,-4.253023624420166,0
-1.421574354171753,2.509018898010254,-3.8739800453186035,0
-0.7870278358459473,2.423358917236328,-3.317800760269165,0
-0.0698147714138031,2.136930465698242,-2.653102397918701,0
0.4856772720813751,1.817704200744629,-2.064441442489624,0
0.9949383735656738,1.6618785858154297,-1.4027451276779175,0
1.3969377279281616,1.5853805541992188,-0.6020181179046631,0
1.9066393375396729,1.5541410446166992,0.23458170890808105,0
2.1629114151000977,1.4858598709106445,1.0144572257995605,0
2.4314301013946533,1.6140289306640625,1.5032107830047607,0
2.5512819290161133,1.6769657135009766,1.6669390201568604,0
2.4729373455047607,1.5689697265625,1.5738029479980469,0
2.270650625228882,1.3975048065185547,1.219538927078247,0
1.8724422454833984,1.1289749145507812,0.7430496215820312,0
1.5169492959976196,0.7946224212646484,0.2514965534210205,0
1.1614251136779785,0.29168224334716797,-0.3201785087585449,0
0.9582951664924622,0.12001800537109375,-0.8529953956604004,0
0.7601310014724731,-0.2277669906616211,-1.314070463180542,0
0.5008557438850403,-0.5842113494873047,-1.7229331731796265,0
0.20952469110488892,-0.9277944564819336,-2.115928888320923,0
-0.29852890968322754,-1.5069022178649902,-2.560947895050049,0
-0.5423229932785034,-1.8043742179870605,-3.0567269325256348,0
-0.9514439105987549,-2.229045867919922,-3.563314914703369,0
-1.544306993484497,-2.6822638511657715,-3.9785425662994385,0
-2.1719281673431396,-3.0534515380859375,-4.422927379608154,0
-2.8189337253570557,-3.4212193489074707,-4.827658653259277,0
-3.397672414779663,-3.703939914703369,-5.155067443847656,0
-3.9642720222473145,-3.920670986175537,-5.383836269378662,0
-4.579514026641846,-4.045078754425049,-5.528387069702148,0
-5.110087871551514,-4.09635591506958,-5.603074550628662,0
-5.5129804611206055,-4.120108604431152,-5.471454620361328,0
-5.800325870513916,-4.116569995880127,-5.24086332321167,0
-5.972330570220947,-4.098019599914551,-4.898739337921143,0
-6.10098123550415,-4.081614971160889,-4.415566444396973,0
-5.973506450653076,-4.024968147277832,-3.7757186889648438,0
-5.5009379386901855,-4.03411340713501,-3.0950841903686523,0
-4.741677284240723,-4.040438175201416,-2.5111398696899414,0
-3.9433116912841797,-4.059089183807373,-1.8670809268951416,0
-3.2917633056640625,-4.112346649169922,-1.2141940593719482,0
-2.7268428802490234,-4.162549018859863,-0.6445426940917969,0
-2.251218795776367,-4.191009998321533,-0.1594526767730713,0
-1.9367400407791138,-4.236135959625244,0.1099863052368164,0
-1.728224754333496,-4.3145928382873535,0.27162599563598633,0
-1.532085657119751,-4.36875581741333,0.29659605026245117,0
-1.3932812213897705,-4.41035795211792,0.23007631301879883,0
-1.3299846649169922,-4.427090167999268,0.04516458511352539,0
-1.3099979162216187,-4.423308849334717,-0.18238425254821777,0
-1.3201239109039307,-4.45111608505249,-0.46555614471435547,0
-1.3973827362060547,-4.488399028778076,-0.7480297088623047,0
-1.497950553894043,-4.592026233673096,-0.9518053531646729,0
-1.6314631700515747,-4.627470016479492,-1.080164909362793,0
-1.8270900249481201,-4.6372246742248535,-1.1533021926879883,0
-2.0895767211914062,-4.685317039489746,-1.1650822162628174,0
-2.3186287879943848,-4.663570404052734,-1.0925798416137695,0
-2.4220056533813477,-4.442478656768799,-0.9365994930267334,0
-2.3145203590393066,-4.005161762237549,-0.7289807796478271,0
-2.232491970062256,-3.4735217094421387,-0.5470287799835205,0
-1.8508996963500977,-2.6729092597961426,-0.3599579334259033,0
-1.3798191547393799,-1.5675549507141113,-0.1872100830078125,0
-0.877079963684082,-0.2246084213256836,-0.007541179656982422,0
-0.36497318744659424,1.2650346755981445,0.1279144287109375,0
0.08645617961883545,2.8824682235717773,0.23409652709960938,0
0.4809972643852234,4.420029640197754,0.3058919906616211,0
0.7942986488342285,6.255919456481934,0.5154514312744141,0
0.9380727410316467,8.184022903442383,0.9786028861999512,0
1.1502271890640259,10.06747055053711,1.824446678161621,0
1.5670994520187378,11.496609687805176,3.3845179080963135,0
2.1547794342041016,12.16738224029541,5.326346397399902,0
2.9528050422668457,11.204893112182617,7.16200065612793,0
3.37218976020813,8.30706787109375,8.436902046203613,0
3.432908296585083,5.321577072143555,9.467694282531738,0
3.0539023876190186,3.1181869506835938,9.656963348388672,0
2.591984510421753,1.7647771835327148,8.921241760253906,0
2.416144847869873,1.0423212051391602,7.6097002029418945,0
2.4398515224456787,0.6914691925048828,6.066393852233887,0
2.5619025230407715,0.42957019805908203,4.481141090393066,0
2.587245464324951,0.25946044921875,2.7689008712768555,0
2.357172966003418,0.2944469451904297,0.9814591407775879,0
1.8820760250091553,0.39671897888183594,-0.6341443061828613,0
1.1112796068191528,0.6937665939331055,-1.8041698932647705,0
0.0813000500202179,1.233506202697754,-2.4567372798919678,0
-0.9404967427253723,2.113485336303711,-2.5968801975250244,0
-1.9269206523895264,3.167668342590332,-2.323394775390625,0
-2.783540725708008,4.1175737380981445,-1.9177699089050293,0
-3.3031935691833496,4.761564254760742,-1.6225810050964355,0
-3.5555789470672607,4.791008949279785,-1.6334744691848755,0
-3.516072988510132,4.577383995056152,-1.9187772274017334,0
-3.394265651702881,4.325099945068359,-2.390376091003418,0
-3.3451530933380127,4.157709121704102,-2.7676100730895996,0
-3.439074754714966,4.062739372253418,-2.8900816440582275,0
-3.6842918395996094,3.9268083572387695,-2.555532693862915,0
-3.8493425846099854,3.177867889404297,-1.7054235935211182,0
-3.682272434234619,1.5988893508911133,-0.41973769664764404,0
-3.0100932121276855,-0.09678173065185547,0.8396542072296143,0
-2.1943609714508057,-1.5854387283325195,1.6524882316589355,0
-1.171455979347229,-2.831939220428467,1.6825637817382812,0
-0.08393985033035278,-3.895814895629883,0.8052119016647339,0
0.5674611330032349,-4.7809038162231445,-0.6048265695571899,0
0.8776673078536987,-5.507614612579346,-2.24385404586792,0
0.8740935325622559,-6.046248435974121,-3.7464709281921387,0
0.6341679096221924,-6.410404205322266,-4.871610641479492,0
0.29678016901016235,-6.467975616455078,-5.536039352416992,0
-0.12208333611488342,-6.378855228424072,-5.8762335777282715,0
-0.6819354295730591,-5.994419097900391,-5.970353603363037,0
-1.324514627456665,-5.360250473022461,-5.779409885406494,0
-2.0578722953796387,-4.417142391204834,-5.356986999511719,0
-2.7998874187469482,-3.221205711364746,-4.65096378326416,0
-3.4036319255828857,-1.804811954498291,-3.919024705886841,0
-3.7069997787475586,-0.2194509506225586,-3.210883378982544,0
-3.8343892097473145,1.368708610534668,-2.6128411293029785,0
-3.6488499641418457,2.848674774169922,-1.8526238203048706,0
-3.2236244678497314,3.9995336532592773,-0.7728129625320435,0
-2.4543657302856445,4.914008140563965,0.5897687673568726,0
-1.4736974239349365,5.357475280761719,1.7852815389633179,0
-0.5032484531402588,5.155852317810059,2.4094953536987305,0
0.3907712697982788,4.281664848327637,2.342501163482666,0
0.9774428009986877,3.1262073516845703,1.639678716659546,0
1.3905202150344849,2.058887481689453,0.7696518898010254,0
1.759595513343811,1.1903295516967773,-0.13609707355499268,0
2.0448760986328125,0.44676876068115234,-0.9620490670204163,0
2.247990608215332,-0.06390857696533203,-1.5792477130889893,0
2.4454007148742676,-0.36794090270996094,-2.063232183456421,0
2.670825958251953,-0.47728443145751953,-2.4498395919799805,0
2.867910385131836,-0.5377702713012695,-2.647374153137207,0
2.956784725189209,-0.5922451019287109,-2.7097530364990234,0
2.7926461696624756,-0.6907682418823242,-2.654897689819336,0
2.2749381065368652,-0.8309450149536133,-2.3567698001861572,0
1.4256906509399414,-0.9173126220703125,-2.009955644607544,0
0.4735974669456482,-1.0578737258911133,-1.617628812789917,0
-0.1929476261138916,-1.2552490234375,-1.3075470924377441,0
-0.6640479564666748,-1.2919740676879883,-1.0787625312805176,0
-0.7998701333999634,-1.3715810775756836,-0.9407529234886169,0
-0.7568950653076172,-1.3936052322387695,-0.8340523838996887,0
-0.6076245307922363,-1.4370203018188477,-0.5989358425140381,0
-0.348016619682312,-1.5328826904296875,-0.5328025221824646,0
-0.038510680198669434,-1.542435646057129,-0.5621435642242432,0
0.2581981420516968,-1.5399236679077148,-0.5965820550918579,0
0.5536885261535645,-1.494314193725586,-0.6195513010025024,0
0.8672415614128113,-1.4224004745483398,-0.6595559120178223,0
1.1158260107040405,-1.3217716217041016,-0.6156944632530212,0
1.4078083038330078,-1.1804618835449219,-0.42769840359687805,0
1.5739421844482422,-0.9195671081542969,-0.17415565252304077,0
1.6005878448486328,-0.5678691864013672,0.06871891021728516,0
1.1716454029083252,-0.25703907012939453,0.19551745057106018,0
0.638016939163208,-0.09711456298828125,0.19162574410438538,0
0.2551880478858948,-0.030542373657226562,0.10183176398277283,0
0.07347977161407471,-0.061936378479003906,-0.029031023383140564,0
-0.03831076622009277,-0.16002941131591797,-0.11989100277423859,0
-0.02690744400024414,-0.14054298400878906,-0.21182546019554138,0
-0.18156707286834717,-0.24988937377929688,-0.20442526042461395,0
-0.3826802968978882,-0.20817947387695312,-0.21720632910728455,0
-0.35484862327575684,-0.25467872619628906,-0.13265849649906158,0
-0.25090205669403076,-0.30553436279296875,-0.08940821886062622,0
-0.3101569414138794,-0.42052555084228516,0.04434825852513313,0
-0.30513083934783936,-0.6880273818969727,0.09636997431516647,0
-0.2383718490600586,-0.94525146484375,0.1599981188774109,0
-0.1647564172744751,-1.1324043273925781,0.23271813988685608,0
-0.1394944190979004,-1.2400236129760742,0.3935087323188782,0
-0.033361077308654785,-1.3829584121704102,0.6043095588684082,0
0.12009239196777344,-1.5300626754760742,0.7836853861808777,0
0.13156020641326904,-1.7626619338989258,0.9842343330383301,0
0.20172607898712158,-1.8391799926757812,1.1367104053497314,0
0.20343053340911865,-1.7168011665344238,1.2534048557281494,0
0.37335073947906494,-1.6564035415649414,1.3512624502182007,0
0.5294737815856934,-1.3996648788452148,1.4065296649932861,0
0.647747814655304,-0.9611845016479492,1.4074281454086304,0
0.6632325053215027,-0.3818855285644531,1.3517524003982544,0
0.6090718507766724,0.053447723388671875,1.2322814464569092,0
0.6575450897216797,0.27564239501953125,1.0989447832107544,0
0.8064016103744507,0.4164752960205078,0.9318536520004272,0
0.6248787641525269,0.3229532241821289,0.9171539545059204,0
0.8167591691017151,0.20342063903808594,0.9824825525283813,0
1.121611475944519,0.16082096099853516,1.0916759967803955,0
1.3984043598175049,0.22374439239501953,1.1557731628417969,0
1.599115252494812,0.19830322265625,1.2151093482971191,0
1.8383605480194092,0.2662353515625,1.2285041809082031,0
2.046280860900879,0.4129295349121094,1.3079047203063965,0
2.2057974338531494,0.7003335952758789,1.3835232257843018,0
2.46022629737854,0.7886295318603516,1.4381383657455444,0
2.56532883644104,0.8453712463378906,1.533907175064087,0
2.642993688583374,0.9279794692993164,1.7122251987457275,0
2.831660747528076,1.1344213485717773,1.71757972240448,0
3.0518860816955566,1.3641204833984375,1.7068591117858887,0
3.0279958248138428,1.7939262390136719,1.5736180543899536,0
3.1040198802948,2.040945053100586,1.4361791610717773,0
3.191178321838379,2.3660154342651367,1.3285207748413086,0
3.3469653129577637,2.5896949768066406,1.209726333618164,0
3.4162955284118652,2.805365562438965,1.1051985025405884,0
3.44262433052063,2.9723196029663086,0.994251012802124,0
3.512321949005127,2.987715721130371,0.7413826584815979,0
3.532127618789673,3.076457977294922,0.6880123019218445,0
3.319941997528076,3.259903907775879,0.8054603338241577,0
3.1982195377349854,3.5426292419433594,1.0079928636550903,0
3.0754644870758057,3.919618606567383,1.1088393926620483,0
2.788163185119629,4.421597480773926,0.9782341718673706,0
2.4575371742248535,4.897487640380859,0.6673333048820496,0
2.2098915576934814,5.284978866577148,0.2435583472251892,0
1.9561611413955688,5.529116630554199,-0.2776986360549927,0
1.791698694229126,5.6086626052856445,-0.5523089170455933,0
1.7405580282211304,5.34004020690918,-0.4577323794364929,0
1.8513516187667847,4.953749656677246,0.12456128001213074,0
2.012864828109741,4.493556976318359,1.0860775709152222,0
2.169250965118408,3.9242401123046875,2.3568789958953857,0
1.0998482704162598,3.451479911804199,3.61714768409729,0
-0.8552061319351196,3.1224803924560547,4.288662910461426,0
-2.2731552124023438,2.6884374618530273,4.303083896636963,0
-2.8707947731018066,2.1765260696411133,3.8767077922821045,0
-3.242081880569458,1.7145509719848633,3.319338798522949,0
-3.4404287338256836,1.5136661529541016,2.745814800262451,0
-3.474398612976074,1.5261640548706055,2.242102861404419,0
-3.435906410217285,1.5176305770874023,1.7151079177856445,0
-3.287820339202881,1.5549554824829102,1.159254789352417,0
-3.017263412475586,1.453730583190918,0.5387227535247803,0
-2.8075485229492188,1.3956069946289062,-0.06412255764007568,0
-2.61057710647583,1.294112205505371,-0.6582901477813721,0
-2.448570728302002,1.1680011749267578,-1.245765209197998,0
-2.3466081619262695,1.0144233703613281,-1.7638040781021118,0
-2.2414724826812744,0.8473615646362305,-2.2961649894714355,0
-2.1102135181427,0.6904239654541016,-2.835627794265747,0
-1.9679150581359863,0.6222610473632812,-3.3200840950012207,0
-1.771637201309204,0.5852956771850586,-3.750140428543091,0
-1.3897285461425781,0.5868244171142578,-4.06040620803833,0
-0.9871037006378174,0.7538623809814453,-4.255434989929199,0
-0.4703418016433716,0.8667316436767578,-4.254276275634766,0
0.031185120344161987,0.9955024719238281,-3.978823661804199,0
0.5601223707199097,1.0378761291503906,-3.4887962341308594,0
0.9676743745803833,1.0898809432983398,-2.8256239891052246,0
1.3591824769973755,1.1658058166503906,-2.062635660171509,0
1.730554461479187,1.2222461700439453,-1.2122353315353394,0
2.0416738986968994,1.291971206665039,-0.2857487201690674,0
2.31023907661438,1.361978530883789,0.5841131210327148,0
2.307133674621582,1.4648361206054688,1.1896240711212158,0
1.9798790216445923,1.67156982421875,1.4488904476165771,0
1.5076684951782227,1.7999601364135742,1.3890511989593506,0
1.1198769807815552,1.8501386642456055,1.0503380298614502,0
0.8772972822189331,1.8726692199707031,0.5918734073638916,0
0.7167955636978149,1.7435083389282227,0.09608197212219238,0
0.6134989857673645,1.539484977722168,-0.3757965564727783,0
0.39837104082107544,1.1531181335449219,-0.7215819358825684,0
0.20657697319984436,0.9457015991210938,-1.130901575088501,0
-0.09128186106681824,0.5320158004760742,-1.5441502332687378,0
-0.4692208170890808,0.1371326446533203,-1.9736534357070923,0
-0.8272254467010498,-0.23896121978759766,-2.364574909210205,0
-1.1324553489685059,-0.6082706451416016,-2.7265512943267822,0
-1.4765827655792236,-1.0354022979736328,-3.030839204788208,0
-1.9587924480438232,-1.5703320503234863,-3.3472137451171875,0
-2.2643275260925293,-1.8994665145874023,-3.6928937435150146,0
-2.7966346740722656,-2.2499141693115234,-4.006272792816162,0
-3.190542221069336,-2.5949954986572266,-4.309690475463867,0
-3.6666691303253174,-2.8674330711364746,-4.541774272918701,0
-4.0839667320251465,-3.0813746452331543,-4.696130752563477,0
-4.506974697113037,-3.2079429626464844,-4.747177600860596,0
-4.847118377685547,-3.3044066429138184,-4.793600559234619,0
-5.130782127380371,-3.358759880065918,-4.747069835662842,0
-5.217265605926514,-3.378390312194824,-4.506704807281494,0
-4.963184356689453,-3.301604747772217,-4.105087757110596,0
-4.312816143035889,-3.2176671028137207,-3.6198463439941406,0
-3.662545680999756,-3.108180046081543,-3.0615007877349854,0
-3.0047695636749268,-3.02413272857666,-2.3807010650634766,0
-2.420950412750244,-3.002074718475342,-1.6692521572113037,0
-1.8706018924713135,-3.011472225189209,-1.0094988346099854,0
-1.3705034255981445,-3.0600690841674805,-0.38572192192077637,0
-0.9421370029449463,-3.193725109100342,0.1648695468902588,0
-0.5587986707687378,-3.345762252807617,0.5785727500915527,0
-0.22448945045471191,-3.5712623596191406,0.86045241355896,0
-0.13431894779205322,-3.8747925758361816,0.9337656497955322,0
-0.08134323358535767,-4.165042877197266,0.8098351955413818,0
-0.19622904062271118,-4.513273239135742,0.5618939399719238,0
-0.5884735584259033,-4.789763927459717,0.23203802108764648,0
-1.0903452634811401,-5.03952693939209,-0.144744873046875,0
-1.555574893951416,-5.276398658752441,-0.5288975238800049,0
-1.9168481826782227,-5.456921577453613,-0.8687453269958496,0
-2.169207811355591,-5.621424674987793,-1.1197314262390137,0
-2.310011625289917,-5.666749477386475,-1.3090581893920898,0
-2.3962507247924805,-5.838974475860596,-1.411327600479126,0
-2.418172836303711,-5.860227584838867,-1.4178457260131836,0
-2.241964817047119,-5.699426174163818,-1.262049913406372,0
-1.997244119644165,-5.308882713317871,-1.0110297203063965,0
-1.605597972869873,-4.715137958526611,-0.7053086757659912,0
-1.1204041242599487,-3.987733840942383,-0.4164121150970459,0
-0.5929977893829346,-3.026273727416992,-0.15380191802978516,0
-0.050919950008392334,-1.938467025756836,0.08720564842224121,0
0.4162243604660034,-0.7073860168457031,0.3106210231781006,0
0.8340533971786499,0.5906972885131836,0.49131107330322266,0
1.1204068660736084,2.0780811309814453,0.7234604358673096,0
1.2999931573867798,3.7189788818359375,1.0535058975219727,0
1.3012216091156006,5.501500129699707,1.479935884475708,0
1.3634644746780396,7.133913040161133,1.9534385204315186,0
1.3746201992034912,8.448999404907227,2.597421407699585,0
1.388739824295044,9.267542839050293,3.471512794494629,0
1.2903344631195068,8.934591293334961,4.458950996398926,0
0.9962603449821472,7.374636650085449,5.40285587310791,0
0.7900235652923584,5.23188591003418,6.254807472229004,0
0.7275774478912354,3.1426124572753906,6.751287460327148,0
0.6871742010116577,1.3885040283203125,6.784152030944824,0
0.7015019655227661,0.1121969223022461,6.472528457641602,0
0.9101715087890625,-0.6969976425170898,5.904717445373535,0
1.269120693206787,-1.1168251037597656,5.159943580627441,0
1.6810038089752197,-1.0742473602294922,4.307943820953369,0
2.1875181198120117,-0.6060075759887695,3.436758518218994,0
2.621652126312256,0.37110233306884766,2.492074489593506,0
2.83555269241333,1.9332799911499023,1.5547635555267334,0
2.530623197555542,3.8124332427978516,0.6450188159942627,0
1.5457584857940674,5.733687400817871,-0.31793665885925293,0
0.36314600706100464,7.747373580932617,-1.2581167221069336,0
-0.4429992735385895,8.884718894958496,-2.1432032585144043,0
-0.6985090970993042,9.148980140686035,-2.9238529205322266,0
-0.8031179308891296,9.124567985534668,-3.510181427001953,0
-0.8701345920562744,8.768952369689941,-3.8682520389556885,0
-0.8091045618057251,7.8678789138793945,-4.231337547302246,0
-0.7030307650566101,6.432589530944824,-4.672597408294678,0
-0.6336350440979004,4.290337562561035,-5.085174083709717,0
-0.601158618927002,1.8637008666992188,-5.347890377044678,0
-0.6671380996704102,-0.32537078857421875,-5.409464359283447,0
-0.6407269239425659,-2.1171975135803223,-5.136824607849121,0
-0.6748342514038086,-3.5462374687194824,-4.548295497894287,0
-0.7808180451393127,-4.646817684173584,-3.791694164276123,0
-1.101564645767212,-5.39087438583374,-3.015814781188965,0
-1.600159764289856,-5.905630588531494,-2.2294135093688965,0
-2.187096357345581,-6.294132232666016,-1.4894890785217285,0
-2.7694289684295654,-6.666403293609619,-0.8858011364936829,0
-3.3162810802459717,-6.98402214050293,-0.473349392414093,0
-3.782010555267334,-7.301883697509766,-0.3557860255241394,0
-4.185791969299316,-7.409449577331543,-0.5041248798370361,0
-4.530316352844238,-7.177814483642578,-0.7334567308425903,0
-4.791672229766846,-6.645734786987305,-0.8633848428726196,0
-4.97190523147583,-5.694194316864014,-0.8907355666160583,0
-5.2072834968566895,-4.407623291015625,-0.9062631130218506,0
-5.5146942138671875,-2.6719164848327637,-1.0613270998001099,0
-6.002209663391113,-0.6194610595703125,-1.4170926809310913,0
-6.350243091583252,1.713068962097168,-1.9875869750976562,0
-6.693920135498047,4.083181381225586,-2.5495946407318115,0
-6.38715124130249,6.186311721801758,-2.7396531105041504,0
-5.455294132232666,7.612993240356445,-2.4347617626190186,0
-4.0355119705200195,8.200737953186035,-1.8400378227233887,0
-2.4640467166900635,7.624875068664551,-1.3292404413223267,0
-1.3306630849838257,6.204703330993652,-1.1154444217681885,0
-0.36621201038360596,4.618127822875977,-1.2010202407836914,0
0.41625654697418213,3.0116539001464844,-1.3822216987609863,0
1.0783458948135376,1.639266014099121,-1.487031102180481,0
1.629475712776184,0.5011196136474609,-1.5104953050613403,0
2.0703558921813965,-0.40741825103759766,-1.6237163543701172,0
2.4916796684265137,-1.0956134796142578,-1.9230678081512451,0
2.8800971508026123,-1.651559829711914,-2.2743000984191895,0
3.1870174407958984,-2.015071392059326,-2.565868616104126,0
3.450230121612549,-2.135716438293457,-2.7447078227996826,0
3.595183849334717,-2.1616926193237305,-2.7927820682525635,0
3.6548333168029785,-2.0833396911621094,-2.1241626739501953,0
3.7475810050964355,-2.113506317138672,-1.430120587348938,0
3.7681970596313477,-2.177936553955078,-0.8566742539405823,0
3.442843198776245,-1.9682331085205078,-0.4019532799720764,0
2.874363422393799,-1.7168331146240234,-0.07441152632236481,0
1.9461669921875,-1.4790258407592773,0.016412541270256042,0
0.3555753827095032,-1.2695226669311523,0.02805998921394348,0
-0.8913467526435852,-1.0981788635253906,0.007604867219924927,0
-1.5743385553359985,-0.9602956771850586,-0.010366901755332947,0
-1.7083616256713867,-0.9442863464355469,-0.015291547402739525,0
-1.6638388633728027,-0.9949226379394531,0.07995898276567459,0
-1.6700942516326904,-1.037984848022461,0.21719792485237122,0
-1.5236073732376099,-1.1308727264404297,0.4442402720451355,0
-1.2697792053222656,-1.089402198791504,0.6205829977989197,0
-0.992419958114624,-1.0261259078979492,0.7256172299385071,0
-0.6892552375793457,-0.9673662185668945,0.7414501905441284,0
-0.44196808338165283,-0.8964004516601562,0.6570032238960266,0
-0.19098544120788574,-0.6865234375,0.4320048689842224,0
0.05149495601654053,-0.44791316986083984,0.17192968726158142,0
0.4119222164154053,-0.17345046997070312,-0.010761409997940063,0
0.7561513185501099,5.37872314453125E-4,-0.07988160848617554,0
1.0937023162841797,0.07420158386230469,-0.07580244541168213,0
1.3862072229385376,0.0978860855102539,-0.022396355867385864,0
1.6743113994598389,0.031015396118164062,0.041915059089660645,0
1.9652976989746094,-0.14540481567382812,0.14309728145599365,0
2.1039199829101562,-0.2566661834716797,0.27109599113464355,0
2.351325750350952,-0.47974109649658203,0.44710326194763184,0
2.4062306880950928,-0.8001375198364258,0.6610419750213623,0
2.1391918659210205,-1.0050249099731445,0.8715987205505371,0
1.7075945138931274,-1.1903257369995117,1.1360011100769043,0
1.4171594381332397,-1.2939910888671875,1.3106095790863037,0
1.0570429563522339,-1.1703109741210938,1.4219669103622437,0
0.7352056503295898,-0.7429962158203125,1.5135884284973145,0
0.5334314107894897,-0.15578269958496094,1.5859308242797852,0
0.4785435199737549,0.41193580627441406,1.5819720029830933,0
0.4440346956253052,0.790492057800293,1.5280182361602783,0
0.3438587188720703,0.9729633331298828,1.4838027954101562,0
0.3452877998352051,1.1460447311401367,1.4081604480743408,0
0.4000738859176636,1.2044200897216797,1.2572726011276245,0
0.40480971336364746,0.95916748046875,1.1906777620315552,0
0.3346433639526367,0.5610370635986328,1.2458460330963135,0
0.291900634765625,0.3686866760253906,1.2307512760162354,0
0.5615911483764648,0.06624794006347656,1.3219406604766846,0
0.8782941102981567,-0.14530277252197266,1.3919566869735718,0
1.1034027338027954,-0.21593666076660156,1.4185630083084106,0
1.2942211627960205,-0.3204460144042969,1.4686741828918457,0
1.4979462623596191,-0.1935415267944336,1.544595718383789,0
2.0896925926208496,-0.10577011108398438,1.6009373664855957,0
2.5804028511047363,0.23694133758544922,1.6554458141326904,0
2.949922561645508,0.6308526992797852,1.4651483297348022,0
3.273705005645752,0.9992151260375977,1.1081191301345825,0
3.478940486907959,1.1936893463134766,0.7679652571678162,0
3.6464619636535645,1.1498832702636719,0.4650117754936218,0
3.8985648155212402,1.0427122116088867,0.24962633848190308,0
4.109326362609863,0.8962879180908203,0.027556538581848145,0
4.330456256866455,0.7945652008056641,-0.06388205289840698,0
4.498714447021484,0.8238153457641602,0.13696616888046265,0
4.624617576599121,1.2207775115966797,0.4117307662963867,0
4.716036796569824,1.6958694458007812,0.8755503296852112,0
4.352022647857666,2.2514142990112305,1.4881352186203003,0
3.7215735912323,2.796365737915039,2.1202001571655273,0
3.028068780899048,3.335402488708496,2.614969253540039,0
2.49694561958313,3.734600067138672,2.9028666019439697,0
2.073974370956421,3.977410316467285,2.8103692531585693,0
1.6491796970367432,3.9372472763061523,2.3246543407440186,0
1.3008232116699219,3.7674694061279297,1.477195143699646,0
1.0729260444641113,3.5041580200195312,0.5810414552688599,0
0.9374347925186157,3.138050079345703,0.001644730567932129,0
1.069922924041748,2.6719493865966797,-0.19062404334545135,0
1.3260321617126465,2.1828174591064453,-0.08528642356395721,0
1.514417052268982,1.6207504272460938,0.25581395626068115,0
1.6214025020599365,1.1797895431518555,0.7475906610488892,0
1.5188560485839844,0.6640357971191406,1.2886821031570435,0
0.5942196846008301,0.4658498764038086,1.8031609058380127,0
-0.8257929086685181,1.0296087265014648,2.260777711868286,0
-2.179710865020752,1.9768600463867188,2.593336343765259,0
-3.015265464782715,2.9537792205810547,2.8320088386535645,0
-3.4370057582855225,3.769467353820801,2.9362826347351074,0
-3.6569435596466064,4.369172096252441,2.919984817504883,0
-3.745861768722534,4.642890930175781,2.6750574111938477,0
-3.6734790802001953,4.669639587402344,2.0993402004241943,0
-3.469198703765869,4.468629837036133,1.2684729099273682,0
-3.280024766921997,4.231443405151367,0.3084641695022583,0
-3.4477367401123047,4.223517417907715,-0.6002117395401001,0
-3.6427555084228516,4.205230712890625,-1.3241665363311768,0
-3.758434295654297,4.104360580444336,-1.853080153465271,0
-3.7663965225219727,3.970705032348633,-2.004211664199829,0
-3.505401134490967,3.734490394592285,-2.025395631790161,0
-3.1263978481292725,3.3162126541137695,-1.9431792497634888,0
-2.823660373687744,2.8827285766601562,-1.8419852256774902,0
-2.5321309566497803,2.328396797180176,-1.7623231410980225,0
-2.433201313018799,1.8398933410644531,-1.9163076877593994,0
-2.096954345703125,1.3816308975219727,-2.19146466255188,0
-1.5096094608306885,0.8632183074951172,-2.4108057022094727,0
-0.7206518054008484,0.6177434921264648,-2.5433671474456787,0
-0.0033212006092071533,0.5954866409301758,-2.4962856769561768,0
0.5823647975921631,0.7804317474365234,-2.2297592163085938,0
1.1062248945236206,0.9435501098632812,-1.81302809715271,0
1.6410186290740967,1.1211786270141602,-1.2901510000228882,0
2.113908529281616,1.236943244934082,-0.7186033725738525,0
2.5793938636779785,1.3434629440307617,-0.2006702423095703,0
2.891545057296753,1.3687372207641602,0.24794244766235352,0
3.1828360557556152,1.3432598114013672,0.5382077693939209,0
3.1684296131134033,1.1227970123291016,0.7463030815124512,0
2.8855221271514893,0.8358392715454102,0.8119964599609375,0
2.3249337673187256,0.5031614303588867,0.6869196891784668,0
1.6749647855758667,0.12413787841796875,0.39658451080322266,0
1.1352903842926025,-0.2180166244506836,0.013972043991088867,0
0.7141082286834717,-0.6242094039916992,-0.47673678398132324,0
0.3247668743133545,-0.9847583770751953,-0.8476643562316895,0
0.026878297328948975,-1.352358341217041,-1.2761855125427246,0
-0.397295206785202,-1.8559679985046387,-1.738999605178833,0
-0.7202590107917786,-2.1724491119384766,-2.1650004386901855,0
-1.0068315267562866,-2.514577865600586,-2.5956544876098633,0
-1.2859764099121094,-2.915449619293213,-2.972057342529297,0
-1.5723698139190674,-3.2933220863342285,-3.3955605030059814,0
-1.7543513774871826,-3.612001419067383,-3.752044439315796,0
-1.9812195301055908,-3.947753429412842,-4.111516952514648,0
-2.2470357418060303,-4.171093463897705,-4.467353820800781,0
-2.529369354248047,-4.355996608734131,-4.76736307144165,0
-2.825279712677002,-4.504459381103516,-5.074500560760498,0
-3.1344151496887207,-4.5467448234558105,-5.32489538192749,0
-3.3985416889190674,-4.480414390563965,-5.487730979919434,0
-3.6638615131378174,-4.334364414215088,-5.534174919128418,0
-3.8205838203430176,-4.199748516082764,-5.45433235168457,0
-3.853865385055542,-4.02671480178833,-5.187812805175781,0
-3.615912914276123,-3.911457061767578,-4.7746686935424805,0
-3.164055824279785,-3.7945656776428223,-4.405808448791504,0
-2.7329697608947754,-3.6837072372436523,-3.8963680267333984,0
-2.445282459259033,-3.600903034210205,-3.293546676635742,0
-2.246975898742676,-3.489180564880371,-2.692384958267212,0
-2.3095157146453857,-3.3847808837890625,-2.130556583404541,0
-2.4937496185302734,-3.3548660278320312,-1.60996413230896,0
-2.7374765872955322,-3.3397793769836426,-1.1157162189483643,0
-2.9954535961151123,-3.3707008361816406,-0.69525146484375,0
-3.138821840286255,-3.3975281715393066,-0.3144865036010742,0
-3.1921987533569336,-3.396479606628418,0.07735753059387207,0
-3.201601982116699,-3.3820114135742188,0.4161531925201416,0
-3.1963324546813965,-3.365997791290283,0.6853575706481934,0
-3.1434829235076904,-3.3411269187927246,0.9305551052093506,0
-3.096109390258789,-3.319190502166748,1.0633103847503662,0
-2.987302541732788,-3.335794448852539,1.1146588325500488,0
-2.804786205291748,-3.4120917320251465,1.0962841510772705,0
-2.538834810256958,-3.482999324798584,1.0076255798339844,0
-2.2661423683166504,-3.5049386024475098,0.8622362613677979,0
-1.9867531061172485,-3.5083208084106445,0.6874387264251709,0
-1.7075716257095337,-3.3992300033569336,0.5176432132720947,0
-1.3143657445907593,-3.076702117919922,0.3273756504058838,0
-0.9687448740005493,-2.485433578491211,0.15825867652893066,0
-0.4928225874900818,-1.587076187133789,-0.005320549011230469,0
0.01878872513771057,-0.5108127593994141,-0.19083905220031738,0
0.5870705842971802,0.635807991027832,-0.4281768798828125,0
1.0849647521972656,1.8194999694824219,-0.6469264030456543,0
1.5383089780807495,2.9927453994750977,-0.7819039821624756,0
1.9441529512405396,4.268321990966797,-0.868690013885498,0
2.364004611968994,5.304351806640625,-0.6911382675170898,0
2.7515501976013184,6.177471160888672,-0.18753886222839355,0
3.137774705886841,6.712746620178223,0.7029626369476318,0
3.5190768241882324,6.8237762451171875,1.8937311172485352,0
3.7154152393341064,6.158902168273926,3.1978085041046143,0
3.3887524604797363,5.0199995040893555,4.374845504760742,0
2.847407102584839,3.687307357788086,5.265203475952148,0
2.2898001670837402,2.4048728942871094,5.9341535568237305,0
1.7779011726379395,1.4593706130981445,6.437733173370361,0
1.3007919788360596,0.8955059051513672,6.753411293029785,0
0.9159237742424011,0.6502008438110352,6.897398471832275,0
0.6985922455787659,0.7487173080444336,6.865108489990234,0
0.6112746000289917,1.113448143005371,6.761966705322266,0
0.5758897662162781,1.7602577209472656,6.463315486907959,0
0.3490363359451294,2.702885627746582,6.013383388519287,0
-0.18608473241329193,3.9409446716308594,5.204422950744629,0
-1.079484224319458,5.144245147705078,4.050694942474365,0
-1.8486530780792236,5.297080039978027,2.2976090908050537,0
-2.6433355808258057,6.36640739440918,0.7276701927185059,0
-3.153395652770996,6.679904937744141,-0.659503698348999,0
-3.501455068588257,7.011562347412109,-1.6654126644134521,0
-4.093123435974121,7.866558074951172,-2.1900336742401123,0
-4.828686237335205,8.314495086669922,-2.333692789077759,0
-5.557894706726074,8.262945175170898,-2.4909868240356445,0
-5.953524589538574,7.048229217529297,-2.9590933322906494,0
-5.62355375289917,4.5933332443237305,-3.430147647857666,0
-4.562275409698486,2.0187292098999023,-3.5716991424560547,0
-2.911966323852539,-0.09998893737792969,-3.408000946044922,0
-0.9279378056526184,-1.8242506980895996,-3.137920379638672,0
0.6726800203323364,-3.3154520988464355,-3.0602455139160156,0
1.4954807758331299,-4.638458728790283,-3.216827869415283,0
1.8973150253295898,-5.735513687133789,-3.5861639976501465,0
1.8694112300872803,-6.582209587097168,-4.112494468688965,0
1.5620651245117188,-7.182936668395996,-4.486807346343994,0
1.2444674968719482,-7.604401588439941,-4.722902774810791,0
1.0710784196853638,-7.85591983795166,-4.839329242706299,0
0.90484619140625,-7.908571720123291,-4.842756748199463,0
0.7526340484619141,-7.7789692878723145,-4.7082953453063965,0
0.41889798641204834,-7.328498840332031,-4.451737403869629,0
0.036343395709991455,-6.40472936630249,-3.960537910461426,0
-0.5029453039169312,-5.156892776489258,-3.4190499782562256,0
-1.0281120538711548,-3.927741527557373,-2.8726658821105957,0
-1.6681489944458008,-2.354276180267334,-2.4483587741851807,0
-2.432788372039795,-0.4756755828857422,-2.130431652069092,0
-3.307835340499878,1.5254220962524414,-1.9517285823822021,0
-4.090204238891602,3.3086442947387695,-1.634056568145752,0
-5.012503147125244,4.844542503356934,-0.7547155022621155,0
-5.800690174102783,6.134577751159668,0.3772634267807007,0
-6.288898944854736,6.848031997680664,1.324827790260315,0
-5.312535762786865,6.633995056152344,1.496280312538147,0
-3.368576765060425,5.436892509460449,0.9113569259643555,0
-1.4116517305374146,3.925922393798828,0.40448999404907227,0
0.12193441390991211,2.5494556427001953,-0.01086282730102539,0
1.243308663368225,1.2649402618408203,-0.3590317964553833,0
2.0513861179351807,0.20170974731445312,-0.5148518681526184,0
2.49491024017334,-0.4848947525024414,-0.7388663291931152,0
2.6854610443115234,-0.8478765487670898,-1.1868114471435547,0
2.732572555541992,-1.009531021118164,-1.8047218322753906,0
2.7634153366088867,-1.0344781875610352,-2.4378116130828857,0
2.7188971042633057,-1.1043567657470703,-2.886164903640747,0
2.5802178382873535,-1.0658636093139648,-3.132244110107422,0
2.452333927154541,-1.1366004943847656,-3.0342142581939697,0
2.377361297607422,-1.199233055114746,-2.593644618988037,0
2.2149481773376465,-1.299245834350586,-1.9865083694458008,0
2.0635790824890137,-1.4916887283325195,-1.2878150939941406,0
1.8463010787963867,-1.475311279296875,-0.6730810403823853,0
1.5458524227142334,-1.456110954284668,-0.31832355260849,0
1.1155567169189453,-1.496358871459961,-0.14945673942565918,0
0.41495710611343384,-1.3785228729248047,-0.12676522135734558,0
-0.10723936557769775,-1.2032890319824219,-0.17218944430351257,0
-0.4635434150695801,-1.0400543212890625,-0.19584651291370392,0
-0.6945434808731079,-0.9580869674682617,-0.23458446562290192,0
-0.7949259281158447,-0.8232889175415039,-0.31067463755607605,0
-0.8356620073318481,-0.8627910614013672,-0.2567492723464966,0
-0.8136699199676514,-0.801325798034668,-0.23046937584877014,0
-0.857837438583374,-0.8039827346801758,-0.10898888111114502,0
-0.9087255001068115,-0.7272701263427734,0.029665537178516388,0
-0.8473609685897827,-0.5904731750488281,0.08816549926996231,0
-0.6550745964050293,-0.4199810028076172,-0.03842135891318321,0
-0.46155333518981934,-0.34497737884521484,-0.19237849116325378,0
-0.16928231716156006,-0.20279216766357422,-0.4149624705314636,0
0.09685909748077393,-0.13701820373535156,-0.563180148601532,0
0.30529332160949707,0.022136688232421875,-0.644458532333374,0
0.5800874829292297,0.01627063751220703,-0.5895834565162659,0
0.8085756301879883,-0.0038042068481445312,-0.4631384611129761,0
1.050612211227417,-0.06914806365966797,-0.2766885757446289,0
1.231928825378418,-0.11037445068359375,-0.09705609083175659,0
1.3383457660675049,-0.21118545532226562,0.08544483780860901,0
1.4157253503799438,-0.20647335052490234,0.18446408212184906,0
1.4045037031173706,-0.4215364456176758,0.31713974475860596,0
1.4151108264923096,-0.6217365264892578,0.4256163239479065,0
1.388042688369751,-0.8285923004150391,0.4806250035762787,0
1.2396364212036133,-0.963221549987793,0.6467441916465759,0
0.9339597225189209,-1.0616340637207031,0.8471494317054749,0
0.7011250257492065,-1.2816400527954102,1.0459411144256592,0
0.5462430715560913,-1.4341373443603516,1.1497373580932617,0
0.29026973247528076,-1.5024003982543945,1.3382072448730469,0
0.07477927207946777,-1.4936046600341797,1.4874802827835083,0
-0.1407867670059204,-1.2308349609375,1.6100245714187622,0
-0.26527857780456543,-1.0921249389648438,1.6079537868499756,0
-0.20465469360351562,-0.9599828720092773,1.6270570755004883,0
-0.1430269479751587,-0.6549882888793945,1.672109842300415,0
-0.09274053573608398,-0.22760963439941406,1.7238465547561646,0
0.03139197826385498,0.24292564392089844,1.6838650703430176,0
-0.03779780864715576,0.5697383880615234,1.6645792722702026,0
0.416705846786499,0.7791891098022461,1.653886318206787,0
0.8368328809738159,0.8139495849609375,1.599008560180664,0
1.3323025703430176,0.8558530807495117,1.4662449359893799,0
1.828486442565918,0.7923603057861328,1.3725175857543945,0
2.21014404296875,0.8338661193847656,1.3079872131347656,0
2.5941104888916016,0.8844423294067383,1.3084022998809814,0
2.8129358291625977,1.1233434677124023,1.4357463121414185,0
3.2614502906799316,1.3900032043457031,1.3038179874420166,0
3.568840503692627,1.3112859725952148,1.3235492706298828,0
3.6560604572296143,1.3322458267211914,1.4204788208007812,0
3.6043596267700195,1.4192132949829102,1.5087852478027344,0
3.5428719520568848,1.5195198059082031,1.598795771598816,0
3.3779702186584473,1.7597951889038086,1.4421545267105103,0
3.082582950592041,1.8886423110961914,1.1691197156906128,0
2.5028507709503174,1.956294059753418,1.2738240957260132,0
2.753746509552002,2.2018299102783203,0.6254599094390869,0
2.892690420150757,2.225736618041992,0.21141433715820312,0
2.881469249725342,2.238697052001953,0.01708221435546875,0
2.877995014190674,2.3555383682250977,-0.01949673891067505,0
2.949141263961792,2.5236129760742188,-0.007691621780395508,0
2.9486823081970215,2.7118091583251953,-0.018405795097351074,0
3.068284034729004,2.6094322204589844,0.11413615942001343,0
3.2024662494659424,3.280729293823242,-0.5182297825813293,0
3.2887678146362305,3.6126623153686523,-1.0080583095550537,0
3.432783603668213,3.6774587631225586,-1.1270384788513184,0
3.6777944564819336,3.772092819213867,-1.0003385543823242,0
3.916729688644409,3.7987518310546875,-0.5517908334732056,0
4.049833297729492,3.858242988586426,0.07742959260940552,0
4.060860633850098,4.163576126098633,0.7084300518035889,0
3.8766186237335205,4.533019065856934,1.353452444076538,0
3.5700631141662598,4.866341590881348,1.8587901592254639,0
1.8626537322998047,5.055678367614746,2.3048715591430664,0
-0.5181354284286499,4.964328765869141,2.7238118648529053,0
-2.032559394836426,4.363151550292969,2.992460012435913,0
-2.955502986907959,3.4781036376953125,3.0266482830047607,0
-3.4939136505126953,2.6473875045776367,2.9774653911590576,0
-3.940406560897827,2.0461864471435547,2.809441566467285,0
-4.312273025512695,1.6676969528198242,2.472637414932251,0
-4.311366081237793,1.5815544128417969,2.137418508529663,0
-4.297857761383057,1.4554576873779297,1.8266921043395996,0
-4.187012672424316,1.2897224426269531,1.527942180633545,0
-4.028224945068359,1.1394824981689453,1.2865785360336304,0
-3.7447290420532227,0.9017171859741211,1.0671354532241821,0
-3.420559883117676,0.6478166580200195,0.7556904554367065,0
-3.090090751647949,0.38184261322021484,0.33668506145477295,0
-2.8046579360961914,0.1939067840576172,-0.21138715744018555,0
-2.5941319465637207,0.15021991729736328,-0.8254920840263367,0
-2.3518664836883545,0.2692728042602539,-1.335990309715271,0
-2.1792352199554443,0.3114662170410156,-1.8419054746627808,0
-2.0770015716552734,0.33180809020996094,-2.344780683517456,0
-1.978881597518921,0.3256845474243164,-2.7512316703796387,0
-1.8618359565734863,0.39136409759521484,-3.14475679397583,0
-1.6522129774093628,0.4357271194458008,-3.452791690826416,0
-1.3597787618637085,0.48779964447021484,-3.6171488761901855,0
-0.9297260642051697,0.5241127014160156,-3.6159920692443848,0
-0.3911832571029663,0.5690164566040039,-3.341012954711914,0
0.03033125400543213,0.622807502746582,-2.8722915649414062,0
0.4901960492134094,0.7334518432617188,-2.233821392059326,0
0.915155291557312,0.8722877502441406,-1.4633617401123047,0
1.3380119800567627,1.1515779495239258,-0.4974939823150635,0
1.6241066455841064,1.4895267486572266,0.5530569553375244,0
1.785272479057312,1.653426170349121,1.566688060760498,0
1.5310791730880737,2.015645980834961,2.3906686305999756,0
0.8690887689590454,2.154449462890625,2.732536554336548,0
0.22493402659893036,2.1488494873046875,2.5137088298797607,0
-0.2297155112028122,1.8939323425292969,1.917931079864502,0
-0.5431909561157227,1.4785289764404297,1.1482317447662354,0
-0.6679366827011108,1.065394401550293,0.42688465118408203,0
-0.7623793482780457,0.5658102035522461,-0.19802474975585938,0
-0.788417398929596,0.20905685424804688,-0.7211260795593262,0
-0.8707894086837769,-0.14641666412353516,-1.1301119327545166,0
-0.9162518978118896,-0.5485458374023438,-1.4968712329864502,0
-1.015516996383667,-0.9493808746337891,-1.8673588037490845,0
-1.0606426000595093,-1.3893013000488281,-2.201888084411621,0
-1.1040480136871338,-1.7748117446899414,-2.427093267440796,0
-1.2243891954421997,-2.2110157012939453,-2.632209300994873,0
-1.3110136985778809,-2.5039896965026855,-2.8681271076202393,0
-1.4641989469528198,-2.7804155349731445,-3.1761789321899414,0
-1.5999399423599243,-3.020998954772949,-3.4947164058685303,0
-1.830636978149414,-3.223109722137451,-3.783890962600708,0
-2.0795764923095703,-3.37697696685791,-4.087498664855957,0
-2.3518588542938232,-3.460907459259033,-4.332001209259033,0
-2.6072235107421875,-3.429440975189209,-4.498604774475098,0
-2.8797359466552734,-3.2779645919799805,-4.546631813049316,0
-3.1174514293670654,-3.0593419075012207,-4.487830638885498,0
-3.2635574340820312,-2.883777618408203,-4.3769378662109375,0
-3.3518223762512207,-2.729837417602539,-4.194522380828857,0
-3.401557683944702,-2.6431994438171387,-3.9376111030578613,0
-3.391150951385498,-2.5666189193725586,-3.6105663776397705,0
-3.222022771835327,-2.562592029571533,-3.2127766609191895,0
-2.950972557067871,-2.60756778717041,-2.7745018005371094,0
-2.6492912769317627,-2.7163305282592773,-2.3043205738067627,0
-2.4195635318756104,-2.922783374786377,-1.839447259902954,0
-2.1614441871643066,-3.1674399375915527,-1.3454632759094238,0
-1.9421617984771729,-3.522319793701172,-0.893359899520874,0
-1.769030213356018,-3.9445486068725586,-0.4727804660797119,0
-1.5917003154754639,-4.372007369995117,-0.09050393104553223,0
-1.3931576013565063,-4.804745197296143,0.2417600154876709,0
-1.2590720653533936,-5.242753028869629,0.5241711139678955,0
-1.1694529056549072,-5.564006805419922,0.7495822906494141,0
-1.2385865449905396,-5.735098838806152,0.9707224369049072,0
-1.3653268814086914,-5.961581230163574,1.2039766311645508,0
-1.5179115533828735,-6.317235469818115,1.367717981338501,0
-1.6311402320861816,-6.557764530181885,1.4762077331542969,0
-1.7905155420303345,-6.699857711791992,1.5510718822479248,0
-2.00968074798584,-6.817588806152344,1.678626537322998,0
-2.165656089782715,-6.827103614807129,1.8064541816711426,0
-2.2386035919189453,-6.642144203186035,1.8605430126190186,0
-2.1830222606658936,-6.1763458251953125,1.8765623569488525,0
-2.1332075595855713,-5.488946914672852,1.731278419494629,0
-1.7667948007583618,-4.366331577301025,1.432352066040039,0
-1.2120094299316406,-2.8317618370056152,1.0560147762298584,0
-0.5601879358291626,-0.9850072860717773,0.5916330814361572,0
-0.0042657554149627686,1.1291208267211914,0.07339620590209961,0
0.5970055460929871,3.4775781631469727,-0.2977113723754883,0
1.1022361516952515,5.7950897216796875,-0.4741154909133911,0
1.556898832321167,8.323345184326172,-0.34600746631622314,0
2.0594613552093506,10.865620613098145,0.2605292797088623,0
2.598524570465088,13.224969863891602,1.6485869884490967,0
3.343153476715088,15.02254867553711,3.6842844486236572,0
4.374757766723633,15.736221313476562,5.721100330352783,0
5.53334903717041,14.56264877319336,7.377209663391113,0
6.426054954528809,11.898289680480957,8.524280548095703,0
6.372004508972168,8.938389778137207,8.872442245483398,0
5.5317864418029785,6.343775749206543,8.696413040161133,0
4.278857707977295,4.42524528503418,7.957079887390137,0
2.9952471256256104,2.979029655456543,6.816461563110352,0
1.6912522315979004,1.858591079711914,5.5789666175842285,0
0.47445380687713623,0.8428411483764648,4.718231201171875,0
-0.5265031456947327,0.13842010498046875,4.006295204162598,0
-1.451207160949707,-0.4238414764404297,2.9671835899353027,0
-2.4005749225616455,-0.8022651672363281,1.3470592498779297,0
-3.393233060836792,-0.868708610534668,-0.8197230100631714,0
-4.040920257568359,-0.8173685073852539,-3.1876602172851562,0
-4.234423637390137,-0.9443902969360352,-5.454372406005859,0
-4.204188823699951,-1.3369865417480469,-7.152293682098389,0
-4.458628177642822,-1.0583763122558594,-8.22513484954834,0
-4.750406265258789,-0.5499725341796875,-8.514842987060547,0
-5.432780742645264,0.22841548919677734,-7.719520568847656,0
-6.8144450187683105,1.3914365768432617,-5.754270553588867,0
-8.421626091003418,2.1193904876708984,-3.077002763748169,0
-9.499430656433105,1.804830551147461,-0.35673511028289795,0
-9.214126586914062,1.1833505630493164,1.7225911617279053,0
-7.205091953277588,0.6872892379760742,2.6252386569976807,0
-4.240777492523193,0.35823822021484375,2.157931327819824,0
-0.4559818506240845,-0.2287302017211914,0.11464321613311768,0
2.316689968109131,-1.0566625595092773,-2.8483738899230957,0
3.772892713546753,-2.0679664611816406,-5.786233901977539,0
4.64443302154541,-2.7109766006469727,-7.869906902313232,0
4.99796724319458,-3.014014720916748,-8.948700904846191,0
5.087416648864746,-2.8933281898498535,-9.299542427062988,0
5.0560503005981445,-2.42556095123291,-9.230088233947754,0
5.118465900421143,-1.9217586517333984,-8.809946060180664,0
4.880400657653809,-1.4992666244506836,-7.800468921661377,0
4.53068208694458,-1.163254737854004,-6.056390285491943,0
4.1833343505859375,-0.5985832214355469,-3.8811514377593994,0
3.830108404159546,0.012075424194335938,-1.4600690603256226,0
3.233052968978882,0.6080350875854492,1.1614506244659424,0
2.0929667949676514,0.7937965393066406,3.501248359680176,0
0.6991152167320251,1.1592321395874023,5.549849033355713,0
-0.8672596216201782,1.2938451766967773,7.226853370666504,0
-2.163799524307251,1.3835992813110352,7.614497661590576,0
-2.9379568099975586,1.2591180801391602,6.287261962890625,0
-3.1146910190582275,0.9721965789794922,3.598989486694336,0
-2.8387627601623535,0.5078363418579102,0.8459845781326294,0
-2.2087297439575195,0.07303619384765625,-1.3424726724624634,0
-1.379324197769165,-0.2334613800048828,-2.9287242889404297,0
-0.47842109203338623,-0.4543905258178711,-4.117722511291504,0
0.25387224555015564,-0.6805019378662109,-4.840232849121094,0
0.7116066217422485,-0.8257560729980469,-5.113617897033691,0
0.8885030150413513,-0.8641748428344727,-4.958863735198975,0
0.7753007411956787,-0.918156623840332,-4.472575664520264,0
0.4916418790817261,-0.9114961624145508,-3.8729190826416016,0
0.1593448519706726,-0.9402103424072266,-3.2463221549987793,0
-0.10937422513961792,-0.8993568420410156,-2.6071219444274902,0
-0.26896825432777405,-0.9017267227172852,-1.8209834098815918,0
-0.35260316729545593,-0.9810400009155273,-1.0694321393966675,0
-0.410245805978775,-1.0609016418457031,-0.35030871629714966,0
-0.46551713347435,-1.086430549621582,0.30197298526763916,0
-0.5422015190124512,-1.2633142471313477,0.8783035278320312,0
-0.5300666093826294,-1.4787778854370117,1.1552883386611938,0
-0.5270606279373169,-1.6774206161499023,1.0373470783233643,0
-0.6123183369636536,-1.7130374908447266,0.6961960792541504,0
-0.6568378806114197,-1.6381397247314453,0.09783560037612915,0
-0.5939116477966309,-1.5315799713134766,-0.6045053005218506,0
-0.6678544282913208,-1.4196958541870117,-0.7778410911560059,0
-0.594204306602478,-1.3576068878173828,-0.9624661803245544,0
-0.47355788946151733,-1.2091331481933594,-1.0130813121795654,0
-0.4709048867225647,-1.1060590744018555,-1.0233774185180664,0
-0.45715510845184326,-0.9074182510375977,-0.9911547899246216,0
-0.5450833439826965,-0.7592811584472656,-0.8791778087615967,0
-0.47413569688796997,-0.6472558975219727,-0.7561889886856079,0
-0.3428800106048584,-0.5640907287597656,-0.6030803322792053,0
-0.3140871524810791,-0.4786062240600586,-0.5015162825584412,0
-0.17236429452896118,-0.35962772369384766,-0.39712226390838623,0
0.09691303968429565,-0.24773693084716797,-0.24769435822963715,0
0.2593810558319092,-0.2934913635253906,-0.03966784477233887,0
0.39658910036087036,-0.36272716522216797,0.16629984974861145,0
0.6475142240524292,-0.32623291015625,0.31899112462997437,0
0.7444903254508972,-0.4590730667114258,0.4272603392601013,0
0.7784546613693237,-0.45498085021972656,0.47637850046157837,0
0.7948312759399414,-0.3978290557861328,0.4758068323135376,0
0.702646017074585,-0.40248584747314453,0.4928590655326843,0
0.7102489471435547,-0.30866050720214844,0.5162282586097717,0
0.6310999393463135,-0.24558258056640625,0.5753545165061951,0
0.5994683504104614,-0.2418661117553711,0.7399501204490662,0
0.5126432776451111,-0.30695438385009766,0.9242996573448181,0
0.45933258533477783,-0.35701847076416016,1.1140172481536865,0
0.3655098080635071,-0.4518089294433594,1.3348164558410645,0
0.21709316968917847,-0.6366634368896484,1.4492813348770142,0
-0.050878167152404785,-0.7011098861694336,1.4850643873214722,0
-0.34549057483673096,-0.5329933166503906,1.5274032354354858,0
-0.5064678192138672,-0.6299829483032227,1.527584433555603,0
-0.5628808736801147,-0.6116132736206055,1.4016871452331543,0
-0.6084887981414795,-0.5211181640625,1.3199594020843506,0
-0.5459626913070679,-0.42084503173828125,1.146565318107605,0
-0.37825024127960205,-0.19850444793701172,0.8457447290420532,0
-0.015013456344604492,-0.11495018005371094,0.6666159629821777,0
0.5094566345214844,0.1264171600341797,0.7175594568252563,0
1.0749833583831787,0.19056320190429688,1.0130565166473389,0
1.8344552516937256,0.19721126556396484,1.3159639835357666,0
2.3968515396118164,0.3398904800415039,1.5807485580444336,0
2.79909086227417,0.5989675521850586,1.6927056312561035,0
3.2671148777008057,0.9739847183227539,1.6451783180236816,0
3.744694232940674,1.3258800506591797,1.5565630197525024,0
4.142707824707031,1.5302362442016602,1.3543517589569092,0
4.5301833152771,1.8214645385742188,0.9053075909614563,0
4.703770160675049,2.0511159896850586,0.17557629942893982,0
4.839001178741455,1.9180850982666016,-0.3424991965293884,0
5.0903191566467285,1.8916692733764648,-0.7128310203552246,0
5.270124435424805,1.9432363510131836,-0.8894054293632507,0
5.406146049499512,2.0250701904296875,-0.7323950529098511,0
5.540045261383057,2.244919776916504,-0.3499007225036621,0
5.380570888519287,2.657712936401367,0.10252881050109863,0
5.126489162445068,3.2608156204223633,0.261234849691391,0
4.741415500640869,3.9390859603881836,0.20723533630371094,0
4.270015716552734,4.500962257385254,0.004363209009170532,0
3.8838915824890137,4.920172691345215,-0.20241454243659973,0
3.530270576477051,5.2112932205200195,-0.12426558136940002,0
3.2761693000793457,5.374619483947754,0.29836180806159973,0
3.0503954887390137,5.432098388671875,1.149669885635376,0
3.009672164916992,5.33879280090332,2.2696774005889893,0
2.5972321033477783,5.197914123535156,3.3401424884796143,0
0.6559321880340576,5.061806678771973,4.115710258483887,0
-0.9733716249465942,4.82987117767334,4.354795932769775,0
-2.1143798828125,4.272942543029785,4.207984924316406,0
-2.850179433822632,3.595277786254883,3.8723011016845703,0
-3.404587507247925,3.0057640075683594,3.489124059677124,0
-3.819263458251953,2.5886783599853516,3.072305202484131,0
-4.0688018798828125,2.375462532043457,2.691556215286255,0
-4.273855209350586,2.25626277923584,2.299445867538452,0
-4.2893195152282715,2.0996780395507812,1.9084303379058838,0
-4.14700174331665,1.8747367858886719,1.4709675312042236,0
-3.8477232456207275,1.5981550216674805,0.946395754814148,0
-3.448085069656372,1.346160888671875,0.38752448558807373,0
-3.09914231300354,1.1419925689697266,-0.17178654670715332,0
-2.8141043186187744,0.8436517715454102,-0.7884957194328308,0
-2.431800603866577,0.569976806640625,-1.317175269126892,0
-2.243176221847534,0.34661388397216797,-1.743118166923523,0
-2.0555031299591064,0.20182228088378906,-2.2344419956207275,0
-1.9729504585266113,0.16172313690185547,-2.6732752323150635,0
-1.9710674285888672,0.1689434051513672,-3.124490737915039,0
-1.9460315704345703,0.22620868682861328,-3.454824447631836,0
-1.824357271194458,0.34126853942871094,-3.7634456157684326,0
-1.2158048152923584,0.42174243927001953,-3.9083335399627686,0
-0.4794405698776245,0.5260944366455078,-3.8503851890563965,0
0.11285734176635742,0.7268905639648438,-3.513735771179199,0
0.6758708953857422,0.967106819152832,-2.815825939178467,0
1.241618037223816,1.0577316284179688,-1.8053630590438843,0
1.798242211341858,1.2975053787231445,-0.5656919479370117,0
2.4287867546081543,1.6352272033691406,0.9073431491851807,0
3.1750104427337646,2.079080581665039,2.4942617416381836,0
3.8382110595703125,2.5052061080932617,3.9183356761932373,0
4.12127685546875,2.947603225708008,4.847168922424316,0
3.7924447059631348,3.2045040130615234,4.641393184661865,0
2.8643710613250732,2.907991409301758,3.613734245300293,0
1.6281055212020874,2.398611068725586,2.3799750804901123,0
0.8431835770606995,1.9042301177978516,1.2084858417510986,0
0.4869804382324219,1.3104629516601562,0.15010929107666016,0
0.293179452419281,0.7754249572753906,-0.6814188957214355,0
0.19635044038295746,0.2608175277709961,-1.3250401020050049,0
-0.03607891499996185,-0.36725902557373047,-1.853033185005188,0
-0.2290799468755722,-0.8837966918945312,-2.287557601928711,0
-0.38924193382263184,-1.3939924240112305,-2.665205478668213,0
-0.6813791990280151,-1.9383325576782227,-3.024880886077881,0
-0.9881336688995361,-2.375429153442383,-3.4080238342285156,0
-1.3195585012435913,-2.803234577178955,-3.769728422164917,0
-1.683658480644226,-3.1974525451660156,-4.14919900894165,0
-2.0575315952301025,-3.560166358947754,-4.532832622528076,0
-2.459195137023926,-3.8719735145568848,-4.816046237945557,0
-2.8659071922302246,-4.082458972930908,-5.049703121185303,0
-3.319552421569824,-4.256101131439209,-5.193583965301514,0
-3.7109122276306152,-4.361691474914551,-5.260061264038086,0
-4.074217796325684,-4.360975742340088,-5.179975509643555,0
-4.443297863006592,-4.246924877166748,-5.051441669464111,0
-4.7845611572265625,-4.120294094085693,-4.809474468231201,0
-5.081005573272705,-3.962343215942383,-4.405517101287842,0
-5.279706954956055,-3.747255325317383,-3.958315849304199,0
-5.251213073730469,-3.5498123168945312,-3.41164493560791,0
-4.88933801651001,-3.3706088066101074,-2.867227554321289,0
-4.268953800201416,-3.2317843437194824,-2.390855550765991,0
-3.6401467323303223,-3.1483020782470703,-1.8975305557250977,0
-3.1601099967956543,-3.168501853942871,-1.4148645401000977,0
-2.627474784851074,-3.280735969543457,-0.9683101177215576,0
-2.1736721992492676,-3.458836078643799,-0.6195132732391357,0
-1.7699679136276245,-3.726640224456787,-0.43525028228759766,0
-1.457135796546936,-4.031176567077637,-0.379901647567749,0
-1.2252141237258911,-4.405607223510742,-0.37010622024536133,0
-0.9994316101074219,-4.739602565765381,-0.37757229804992676,0
-0.840877890586853,-5.078463554382324,-0.3786938190460205,0
-0.7509982585906982,-5.331169128417969,-0.3665139675140381,0
-0.7128833532333374,-5.50484561920166,-0.307628870010376,0
-0.8649495840072632,-5.68779993057251,-0.18563508987426758,0
-0.9961181282997131,-5.913252830505371,-0.024738550186157227,0
-1.216264247894287,-6.087587356567383,0.18906426429748535,0
-1.41976797580719,-6.188842296600342,0.3592793941497803,0
-1.5703290700912476,-6.154522895812988,0.5666913986206055,0
-1.6770755052566528,-5.883909225463867,0.7484090328216553,0
-1.6058028936386108,-5.338573932647705,0.8009841442108154,0
-1.5048972368240356,-4.499177932739258,0.7715146541595459,0
-1.225937008857727,-3.391784191131592,0.6829309463500977,0
-0.6866239309310913,-1.9610648155212402,0.5602614879608154,0
-0.03826014697551727,-0.18271636962890625,0.4397087097167969,0
0.5179378986358643,1.905350685119629,0.42366647720336914,0
0.9642139673233032,4.095464706420898,0.6158723831176758,0
1.3753055334091187,6.813702583312988,0.9857640266418457,0
1.7133598327636719,9.806100845336914,1.8456802368164062,0
2.102433681488037,12.784850120544434,3.2826569080352783,0
2.5065717697143555,14.734971046447754,5.087410926818848,0
3.4024710655212402,15.270832061767578,7.284724235534668,0
4.619030952453613,13.878305435180664,9.45832633972168,0
5.596857070922852,9.848737716674805,10.515951156616211,0
5.989120006561279,5.5523681640625,10.375448226928711,0
5.882171630859375,2.486342430114746,9.515162467956543,0
5.041812419891357,0.8212833404541016,8.094242095947266,0
4.178128242492676,0.1299753189086914,6.400087833404541,0
3.585223913192749,-0.10017681121826172,4.475172996520996,0
2.906912326812744,0.022919654846191406,2.5579771995544434,0
2.0408875942230225,0.3938465118408203,0.6091670989990234,0
0.9297149777412415,0.9933404922485352,-1.2000600099563599,0
-0.3912445604801178,1.4530467987060547,-2.9450364112854004,0
-1.4179506301879883,1.2494869232177734,-4.599918365478516,0
-1.9282398223876953,1.0361995697021484,-5.777555465698242,0
-2.035889148712158,1.2912969589233398,-6.208028316497803,0
-2.215792179107666,1.969080924987793,-6.385758399963379,0
-2.3583436012268066,2.8785219192504883,-6.274969100952148,0
-2.958193302154541,3.9395790100097656,-5.9472784996032715,0
-4.046712398529053,4.991686820983887,-5.196339130401611,0
-5.992849826812744,5.783716201782227,-3.6720151901245117,0
-8.231471061706543,5.386444091796875,-1.6534690856933594,0
-9.729378700256348,3.930398941040039,0.5066378116607666,0
-10.046087265014648,2.2981605529785156,2.350226402282715,0
-9.364785194396973,0.9125900268554688,3.944723129272461,0
-8.148039817810059,-0.15722274780273438,5.051534652709961,0
-6.458898544311523,-1.0753707885742188,4.761257648468018,0
-4.449190616607666,-1.8416657447814941,2.4533941745758057,0
-1.6910101175308228,-2.586343288421631,-0.9280214905738831,0
0.09619998931884766,-2.9728879928588867,-4.556887149810791,0
0.7577443718910217,-2.8351387977600098,-7.783895492553711,0
1.0459059476852417,-2.5432567596435547,-9.985676765441895,0
1.0889873504638672,-2.2856998443603516,-11.17902946472168,0
1.113807201385498,-2.14115047454834,-11.49437141418457,0
0.9099864959716797,-1.8276362419128418,-11.11532211303711,0
0.7043923735618591,-1.8026323318481445,-10.327049255371094,0
0.3957967758178711,-1.7412810325622559,-9.25827693939209,0
0.21542155742645264,-1.7662968635559082,-8.109171867370605,0
0.021420001983642578,-1.7396531105041504,-6.706281661987305,0
-0.10505831241607666,-1.6287569999694824,-4.1608381271362305,0
0.32590818405151367,-1.09307861328125,0.7252489328384399,0
1.4349441528320312,-0.1989450454711914,6.484086036682129,0
2.961242914199829,0.4292573928833008,9.703177452087402,0
3.007319450378418,0.5329713821411133,8.628158569335938,0
2.063795328140259,0.2223072052001953,5.754326343536377,0
1.3088806867599487,-0.07293033599853516,3.0744519233703613,0
0.7881664633750916,-0.421478271484375,0.5694582462310791,0
0.5446754693984985,-0.5744047164916992,-1.6537165641784668,0
0.523084819316864,-0.6035976409912109,-3.4020626544952393,0
0.803573489189148,-0.5640983581542969,-4.541149139404297,0
0.8559239506721497,-0.4919614791870117,-4.892152786254883,0
0.5792104601860046,-0.3158273696899414,-4.586557388305664,0
0.13948869705200195,-0.2203960418701172,-3.7262730598449707,0
-0.24498426914215088,-0.24417781829833984,-2.7795205116271973,0
-0.4612361788749695,-0.37523651123046875,-1.999943494796753,0
-0.3438006639480591,-0.42211246490478516,-1.5637277364730835,0
-0.20407480001449585,-0.6693506240844727,-1.4498363733291626,0
-0.20334041118621826,-0.8297023773193359,-1.3270695209503174,0
-0.28559303283691406,-0.9654197692871094,-1.228476881980896,0
-0.2581772804260254,-1.2056665420532227,-0.9043336510658264,0
-0.04300129413604736,-1.557499885559082,-0.532898485660553,0
0.18467575311660767,-1.8486738204956055,-0.07398718595504761,0
0.4386674165725708,-2.088913917541504,0.32402652502059937,0
0.6732369661331177,-2.2759623527526855,0.6398733258247375,0
0.8980435132980347,-2.2162652015686035,0.7142005562782288,0
1.0127230882644653,-2.1182327270507812,0.7206529974937439,0
0.9191329479217529,-1.8552751541137695,0.56976318359375,0
0.6530392169952393,-1.4133358001708984,0.35133469104766846,0
0.494739294052124,-0.9241256713867188,0.08517754077911377,0
0.4160448908805847,-0.4832611083984375,-0.15194794535636902,0
0.412580668926239,-0.24361228942871094,-0.34380924701690674,0
0.4102959632873535,-0.11877822875976562,-0.4386945068836212,0
0.41877108812332153,-0.14205455780029297,-0.42547303438186646,0
0.4499515891075134,-0.17455101013183594,-0.36693286895751953,0
0.5012887120246887,-0.1851797103881836,-0.2584972679615021,0
0.46034491062164307,-0.23374652862548828,-0.203062504529953,0
0.5186209082603455,-0.21737384796142578,-0.2364882230758667,0
0.42217421531677246,-0.09314537048339844,-0.30364570021629333,0
0.39349520206451416,0.024025917053222656,-0.26537686586380005,0
0.5450536012649536,0.08396244049072266,-0.1666259765625,0
0.7070038318634033,0.15133380889892578,-0.076340451836586,0
0.8483890295028687,0.08749008178710938,0.12558872997760773,0
1.0291502475738525,-0.049971580505371094,0.27638471126556396,0
1.1318016052246094,-0.23705577850341797,0.4332728385925293,0
1.2570244073867798,-0.5071382522583008,0.5813945531845093,0
1.460207223892212,-0.5731277465820312,0.719983696937561,0
1.6121034622192383,-0.9685125350952148,0.8338658809661865,0
1.597895622253418,-1.240987777709961,0.9465512633323669,0
1.6305675506591797,-1.4098443984985352,1.065171241760254,0
1.8083950281143188,-1.5134344100952148,1.1369081735610962,0
1.8369441032409668,-1.4681596755981445,1.2002899646759033,0
1.7133480310440063,-1.2695045471191406,1.3776931762695312,0
1.2764217853546143,-0.9536962509155273,1.5808064937591553,0
0.8486536741256714,-0.46600914001464844,1.7498477697372437,0
0.5376230478286743,0.08807849884033203,1.8340283632278442,0
0.29821717739105225,0.3306884765625,1.9043633937835693,0
0.027875185012817383,0.4103965759277344,1.9523646831512451,0
-0.1150808334350586,0.4038734436035156,1.9767649173736572,0
-0.33138811588287354,0.3613710403442383,2.079291343688965,0
-0.6787896156311035,0.43338775634765625,2.074920654296875,0
-0.5736175775527954,0.32564735412597656,2.0640370845794678,0
-0.2434077262878418,0.48073482513427734,1.941272258758545,0
0.3661763668060303,0.6065998077392578,1.9324336051940918,0
1.0718841552734375,0.9566278457641602,2.0198354721069336,0
1.6589826345443726,1.3365707397460938,1.919945478439331,0
2.2070066928863525,1.7555932998657227,1.6481660604476929,0
2.7386269569396973,2.15604305267334,1.2991414070129395,0
3.1382479667663574,2.1170387268066406,1.2573643922805786,0
3.4983744621276855,2.2606382369995117,0.8535839319229126,0
3.6973116397857666,2.060610771179199,0.5857052803039551,0
3.886260747909546,1.988454818725586,0.11792320013046265,0
4.0611371994018555,1.8982353210449219,-0.1873423457145691,0
4.165777683258057,1.9360294342041016,-0.26464956998825073,0
4.42910623550415,2.0756893157958984,-0.17046958208084106,0
4.618528366088867,2.3964061737060547,0.19031012058258057,0
4.764556884765625,3.017902374267578,0.7435455918312073,0
4.68921422958374,3.827699661254883,1.278599500656128,0
4.3982253074646,4.6343536376953125,1.5888899564743042,0
3.9586586952209473,5.279923439025879,1.6724510192871094,0
3.4440999031066895,5.788293838500977,1.4118621349334717,0
2.9184212684631348,6.04473876953125,1.0251761674880981,0
2.347043752670288,5.989750862121582,0.6213832497596741,0
1.4861644506454468,5.735982894897461,0.45191824436187744,0
0.5414422750473022,5.362495422363281,0.527838408946991,0
-0.22351610660552979,4.795392036437988,0.9786226153373718,0
-0.9816229343414307,4.018423080444336,1.6415704488754272,0
-1.557705044746399,3.2378501892089844,2.3359193801879883,0
-2.103649616241455,2.535459518432617,2.82395076751709,0
-2.567573070526123,2.0169620513916016,3.1037635803222656,0
-2.906930446624756,1.7689170837402344,3.1712520122528076,0
-3.2538743019104004,1.805985450744629,2.9858150482177734,0
-3.4753212928771973,1.934554100036621,2.705142021179199,0
-3.553433895111084,2.082911491394043,2.3683292865753174,0
-3.5544240474700928,2.0859670639038086,1.971093773841858,0
-3.484951972961426,2.034505844116211,1.5351283550262451,0
-3.4407958984375,1.9209470748901367,1.0963853597640991,0
-3.314791440963745,1.7614421844482422,0.654990553855896,0
-3.2638845443725586,1.5815458297729492,0.13900160789489746,0
-3.1364455223083496,1.4117555618286133,-0.5249341726303101,0
-3.0176162719726562,1.3880014419555664,-1.3132383823394775,0
-2.7236123085021973,1.4597787857055664,-2.0952298641204834,0
-2.170480489730835,1.4405107498168945,-2.766829252243042,0
-1.6277685165405273,1.3424196243286133,-3.334195137023926,0
-1.1325634717941284,1.2734136581420898,-3.8967504501342773,0
-0.7154971361160278,1.1140222549438477,-4.17808723449707,0
-0.42436128854751587,0.9576816558837891,-4.195984840393066,0
-0.09961885213851929,0.8450918197631836,-3.9968364238739014,0
0.16881310939788818,0.7284526824951172,-3.6532745361328125,0
0.4373343586921692,0.6247949600219727,-3.355534553527832,0
0.7075337171554565,0.3789663314819336,-2.9825327396392822,0
1.0507513284683228,0.2520008087158203,-2.630498170852661,0
1.3114080429077148,0.2820758819580078,-2.167746067047119,0
1.6242210865020752,0.32301998138427734,-1.6845241785049438,0
1.9642235040664673,0.43192291259765625,-1.124734878540039,0
2.246770143508911,0.5700864791870117,-0.6643304824829102,0
2.4165897369384766,0.6438570022583008,-0.32626938819885254,0
2.5573465824127197,0.7581901550292969,-0.1075596809387207,0
2.427046537399292,0.7955646514892578,0.05670738220214844,0
2.0989797115325928,0.7606287002563477,0.051778316497802734,0
1.6506574153900146,0.5984325408935547,-0.06048154830932617,0
1.1303677558898926,0.33554744720458984,-0.29269957542419434,0
0.5618966221809387,-0.025312423706054688,-0.5809895992279053,0
0.18398654460906982,-0.38105297088623047,-0.9282422065734863,0
-0.3317408561706543,-0.8583965301513672,-1.2890267372131348,0
-0.6628448963165283,-1.1944293975830078,-1.5622446537017822,0
-1.0545260906219482,-1.497218132019043,-1.7950323820114136,0
-1.414377212524414,-1.860438346862793,-2.0079917907714844,0
-1.7173995971679688,-2.1552352905273438,-2.2050602436065674,0
-2.0465142726898193,-2.4130024909973145,-2.4071927070617676,0
-2.3793296813964844,-2.6935653686523438,-2.6167306900024414,0
-2.753349542617798,-2.996671676635742,-2.805452585220337,0
-3.0887291431427,-3.278977394104004,-3.017026901245117,0
-3.334372043609619,-3.3967041969299316,-3.151728868484497,0
-3.5894663333892822,-3.423949718475342,-3.265167713165283,0
-3.83544659614563,-3.3439536094665527,-3.309878349304199,0
-3.9337780475616455,-3.1233367919921875,-3.257368564605713,0
-4.0276665687561035,-2.8245139122009277,-3.1865830421447754,0
-3.799772262573242,-2.509860038757324,-3.1787800788879395,0
-3.4228310585021973,-2.234555721282959,-3.1381006240844727,0
-2.959853172302246,-2.048953056335449,-3.0452518463134766,0
-2.52948260307312,-1.9076952934265137,-2.9239563941955566,0
-2.179173231124878,-1.8875045776367188,-2.7857375144958496,0
-1.8851404190063477,-1.92390775680542,-2.6110141277313232,0
-1.6118874549865723,-2.055426597595215,-2.435002565383911,0
-1.3765720129013062,-2.212888240814209,-2.2331790924072266,0
-1.2561074495315552,-2.4514846801757812,-2.064847946166992,0
-1.1765795946121216,-2.692410469055176,-1.9103765487670898,0
-1.1403121948242188,-2.969231128692627,-1.7551743984222412,0
-1.0609679222106934,-3.2555437088012695,-1.6160674095153809,0
-1.0384814739227295,-3.500983715057373,-1.4980850219726562,0
-1.081730604171753,-3.7294135093688965,-1.3894293308258057,0
-1.233170509338379,-3.945502758026123,-1.2974891662597656,0
-1.394242763519287,-4.139570713043213,-1.2009162902832031,0
-1.5093224048614502,-4.309164524078369,-1.109403371810913,0
-1.695027232170105,-4.525969505310059,-1.0014889240264893,0
-1.917219877243042,-4.766055107116699,-0.9152307510375977,0
-2.0798451900482178,-4.9815826416015625,-0.7738494873046875,0
-2.239678382873535,-5.174975395202637,-0.6297979354858398,0
-2.348442316055298,-5.374944686889648,-0.5138604640960693,0
-2.453768730163574,-5.478564262390137,-0.37799811363220215,0
-2.474321126937866,-5.57177734375,-0.3203916549682617,0
-2.503396511077881,-5.6016364097595215,-0.3221452236175537,0
-2.4453399181365967,-5.443414211273193,-0.3527042865753174,0
-2.3696987628936768,-5.075242042541504,-0.43210649490356445,0
-2.2382140159606934,-4.46332311630249,-0.5302460193634033,0
-1.9099820852279663,-3.578617572784424,-0.588648796081543,0
-1.548434853553772,-2.451854705810547,-0.7142162322998047,0
-1.01386296749115,-1.0802812576293945,-0.820220947265625,0
-0.4068987965583801,0.3975830078125,-0.8174688816070557,0
0.16891473531723022,2.0202083587646484,-0.7173929214477539,0
0.7124606370925903,3.7206335067749023,-0.49314188957214355,0
1.1531771421432495,5.403230667114258,-0.13013505935668945,0
1.6146867275238037,7.199379920959473,0.5087912082672119,0
2.156602144241333,8.845603942871094,1.585197925567627,0
2.5307278633117676,10.124250411987305,2.823000907897949,0
3.172327995300293,10.875290870666504,4.298775672912598,0
3.788973808288574,10.730857849121094,5.913045883178711,0
4.40936803817749,9.361647605895996,7.531978607177734,0
4.790395736694336,7.550240516662598,8.932676315307617,0
4.500471591949463,6.123483657836914,9.89995288848877,0
3.828248977661133,5.345633506774902,10.174007415771484,0
3.605081081390381,5.031540870666504,9.770989418029785,0
3.4949591159820557,4.932039260864258,8.839754104614258,0
3.3900325298309326,4.908475875854492,7.530538082122803,0
2.9336376190185547,5.06867790222168,6.098412990570068,0
2.0362541675567627,5.317055702209473,4.5782294273376465,0
0.6264776587486267,5.591490745544434,3.024365186691284,0
-0.9567596316337585,5.695978164672852,1.4555599689483643,0
-2.3415780067443848,5.281752586364746,-0.09519791603088379,0
-3.4361464977264404,4.856463432312012,-1.2982999086380005,0
-4.406399726867676,4.4559431076049805,-2.13482666015625,0
-5.32141637802124,4.048919677734375,-2.53033185005188,0
-6.172966003417969,3.750046730041504,-2.5897977352142334,0
-6.919240951538086,3.1550559997558594,-2.6622190475463867,0
-7.553186893463135,2.3003311157226562,-3.0156407356262207,0
-7.861590385437012,1.1339788436889648,-3.6560380458831787,0
-7.941997051239014,-0.06587028503417969,-4.2145233154296875,0
-7.936991214752197,-1.3829259872436523,-4.359896183013916,0
-7.723616600036621,-2.612253189086914,-4.0501017570495605,0
-7.085525989532471,-3.774500846862793,-3.154019355773926,0
-5.409668445587158,-4.564833641052246,-2.272019863128662,0
-2.933206558227539,-5.0724310874938965,-1.9966058731079102,0
-1.014993667602539,-5.46934700012207,-2.1908466815948486,0
0.31598129868507385,-5.749945640563965,-2.8308186531066895,0
1.21200692653656,-5.839019775390625,-3.717336416244507,0
1.8794513940811157,-5.7380266189575195,-4.573112964630127,0
2.341571092605591,-5.4533281326293945,-5.353490829467773,0
2.5703606605529785,-4.953164100646973,-5.961374282836914,0
2.627889633178711,-4.265833854675293,-6.279757976531982,0
2.537109851837158,-3.319589614868164,-6.222909927368164,0
2.325857162475586,-2.2966713905334473,-5.766545295715332,0
1.8621084690093994,-1.3292617797851562,-5.0006103515625,0
1.2842154502868652,-0.4085826873779297,-3.962879180908203,0
0.643957257270813,0.6150932312011719,-2.805598497390747,0
-0.03161895275115967,1.640024185180664,-1.6518458127975464,0
-0.7200157642364502,2.6172561645507812,-0.48199474811553955,0
-1.4500553607940674,3.35439395904541,0.5506068468093872,0
-2.1216554641723633,3.92244815826416,1.389638066291809,0
-2.589216709136963,4.249120712280273,2.0207338333129883,0
-2.706778049468994,4.262706756591797,2.2075743675231934,0
-2.114004135131836,3.543149948120117,1.9632166624069214,0
-1.0711687803268433,2.446221351623535,1.2916467189788818,0
-0.06013655662536621,1.2438240051269531,0.40605628490448,0
0.6861650943756104,0.2265024185180664,-0.552230954170227,0
0.9535555243492126,-0.4114866256713867,-1.4343706369400024,0
1.2215394973754883,-0.7345552444458008,-2.2179579734802246,0
1.531637191772461,-0.814427375793457,-2.8557159900665283,0
1.733734369277954,-0.7253961563110352,-3.172412872314453,0
1.905131459236145,-0.5250930786132812,-3.1973607540130615,0
2.104093074798584,-0.3070831298828125,-2.9728517532348633,0
2.365279197692871,-0.14806365966796875,-2.566892147064209,0
2.376659870147705,-0.11025142669677734,-2.1981091499328613,0
2.0436360836029053,-0.14105606079101562,-1.9054760932922363,0
1.5006511211395264,-0.20949363708496094,-1.6325113773345947,0
0.96051424741745,-0.2679147720336914,-1.377753734588623,0
0.5304872989654541,-0.30220890045166016,-1.0607571601867676,0
0.32529085874557495,-0.3604555130004883,-0.674903929233551,0
0.23964422941207886,-0.31361961364746094,-0.32190215587615967,0
0.08176839351654053,-0.41541576385498047,-0.010385990142822266,0
0.05929720401763916,-0.45049095153808594,0.16651177406311035,0
0.1022881269454956,-0.5551776885986328,0.2276010513305664,0
0.11217403411865234,-0.7197170257568359,0.19105100631713867,0
0.14120739698410034,-0.826725959777832,0.03639960289001465,0
0.22749125957489014,-0.9813518524169922,-0.23990124464035034,0
0.3539029359817505,-1.0758562088012695,-0.5502921938896179,0
0.446144700050354,-1.162877082824707,-0.7662243843078613,0
0.49946531653404236,-1.1563596725463867,-0.792206883430481,0
0.5666970610618591,-1.1521224975585938,-0.6230103969573975,0
0.6789579391479492,-1.1430387496948242,-0.47832542657852173,0
0.7000762820243835,-1.0837087631225586,-0.321810245513916,0
0.7740976810455322,-1.0195989608764648,-0.35648906230926514,0
0.8367208242416382,-0.9291467666625977,-0.4722898602485657,0
0.9168106317520142,-0.8864870071411133,-0.59024578332901,0
1.0191198587417603,-0.8317842483520508,-0.6720415949821472,0
1.050186276435852,-0.8344345092773438,-0.7461296916007996,0
1.112544298171997,-0.7533416748046875,-0.7764269113540649,0
1.1845159530639648,-0.7512445449829102,-0.803194522857666,0
1.278087854385376,-0.7347993850708008,-0.7686779499053955,0
1.4821860790252686,-0.7781009674072266,-0.7156925797462463,0
1.5768215656280518,-0.8619461059570312,-0.5600579380989075,0
1.708392858505249,-0.8953628540039062,-0.3256349265575409,0
1.7789579629898071,-0.9357595443725586,-0.05792653560638428,0
1.793454885482788,-0.9567737579345703,0.15439921617507935,0
1.6848649978637695,-1.0636043548583984,0.337194561958313,0
1.4959416389465332,-1.1413602828979492,0.46344467997550964,0
1.2453994750976562,-1.1494483947753906,0.5443834066390991,0
0.971445620059967,-1.095107078552246,0.5529212355613708,0
0.6285108327865601,-1.0812511444091797,0.6153634190559387,0
0.22399210929870605,-1.0169591903686523,0.719653844833374,0
-0.04295456409454346,-0.8376808166503906,0.8660293221473694,0
-0.29602885246276855,-0.6199874877929688,1.028498649597168,0
-0.47222185134887695,-0.40447044372558594,1.1953701972961426,0
-0.5854192972183228,-0.2603874206542969,1.3093223571777344,0
-0.709561824798584,-0.1708545684814453,1.3630741834640503,0
-0.7274442911148071,-0.0736083984375,1.4016978740692139,0
-0.6775234937667847,-0.04277324676513672,1.4080638885498047,0
-0.5696043968200684,-0.0017576217651367188,1.4031387567520142,0
-0.4133882522583008,-0.03186511993408203,1.3721262216567993,0
-0.20446884632110596,-0.12109375,1.3289992809295654,0
0.03260922431945801,-0.20728397369384766,1.2565219402313232,0
0.32818353176116943,-0.25229358673095703,1.1425307989120483,0
0.6362060904502869,-0.20844745635986328,1.039632797241211,0
0.932051420211792,-0.08076000213623047,0.9957833290100098,0
1.1935515403747559,0.09946155548095703,1.0136826038360596,0
1.4533603191375732,0.34871673583984375,1.01694917678833,0
1.6509199142456055,0.6858854293823242,1.0175796747207642,0
1.864736557006836,1.0461740493774414,1.0061028003692627,0
2.053264617919922,1.2930688858032227,1.0522797107696533,0
2.1850011348724365,1.5772380828857422,1.149377703666687,0
2.3962337970733643,1.7670841217041016,1.137573480606079,0
2.5553648471832275,1.7096633911132812,0.978831946849823,0
2.6409714221954346,1.632420539855957,0.7163844108581543,0
2.7971479892730713,1.4971914291381836,0.4359090030193329,0
2.804192543029785,1.289743423461914,0.16788174211978912,0
2.772244691848755,1.0077486038208008,0.033755406737327576,0
2.622364044189453,0.9621143341064453,-0.09387557208538055,0
2.526742458343506,1.0473146438598633,-0.12678995728492737,0
2.4853639602661133,1.3014707565307617,-0.052929505705833435,0
2.431361198425293,1.655080795288086,0.11815571039915085,0
2.3362722396850586,2.198955535888672,0.31472575664520264,0
2.341557741165161,2.8492612838745117,0.4503821134567261,0
2.3135876655578613,3.5461912155151367,0.4694155156612396,0
2.2144293785095215,4.117621421813965,0.2842969000339508,0
1.9508103132247925,4.4441986083984375,-0.010766562074422836,0
1.7331554889678955,4.547824859619141,-0.318880558013916,0
1.5444767475128174,4.459977149963379,-0.4632360339164734,0
1.4181690216064453,4.243221282958984,-0.3474300503730774,0
1.3686600923538208,3.9074583053588867,-0.010921433568000793,0
1.389424204826355,3.5391721725463867,0.5880956649780273,0
1.2686117887496948,3.2223682403564453,1.3691716194152832,0
0.5926822423934937,3.021604537963867,2.2275843620300293,0
-0.924083948135376,3.0082759857177734,2.837496042251587,0
-2.335038185119629,3.0267410278320312,3.070960521697998,0
-3.6360106468200684,2.981574058532715,2.873997449874878,0
-4.391324520111084,2.9115915298461914,2.391688585281372,0
-5.026707649230957,2.70721435546875,1.765727162361145,0
-5.3792314529418945,2.4835500717163086,1.1870951652526855,0
-5.409916877746582,2.1425647735595703,0.6758474111557007,0
-5.225133419036865,1.6675376892089844,0.132407546043396,0
-4.698306560516357,1.1923961639404297,-0.5454543828964233,0
-4.16660213470459,0.7241382598876953,-1.1807574033737183,0
-3.766435146331787,0.3032083511352539,-1.8225141763687134,0
-3.2928881645202637,-0.07297801971435547,-2.43949818611145,0
-2.8293721675872803,-0.12726783752441406,-2.7977681159973145,0
-2.707334518432617,-0.14002037048339844,-3.0613179206848145,0
-2.5927734375,0.1273488998413086,-3.0827698707580566,0
-2.535421848297119,0.4968748092651367,-2.7955875396728516,0
-2.1174745559692383,0.8578643798828125,-2.4486746788024902,0
-1.4756110906600952,1.236231803894043,-2.152247905731201,0
-0.8290750980377197,1.4788331985473633,-1.918958067893982,0
-0.11612403392791748,1.5811796188354492,-1.7209787368774414,0
0.6035616397857666,1.6106071472167969,-1.6116622686386108,0
1.1920104026794434,1.57696533203125,-1.5051614046096802,0
1.672041893005371,1.5069475173950195,-1.423524022102356,0
2.0814006328582764,1.3388376235961914,-1.367327094078064,0
2.3885135650634766,1.0801811218261719,-1.2529096603393555,0
2.4111557006835938,0.7051534652709961,-1.2028626203536987,0
2.283503532409668,0.22154617309570312,-1.277696967124939,0
1.9740124940872192,-0.2913961410522461,-1.3770123720169067,0
1.5048274993896484,-0.6472530364990234,-1.3832041025161743,0
0.9156028628349304,-0.7340259552001953,-1.4493144750595093,0
0.3799099326133728,-0.7771463394165039,-1.5268269777297974,0
0.10349541902542114,-0.7674541473388672,-1.5238460302352905,0
0.05053818225860596,-0.8896522521972656,-1.3696153163909912,0
-0.04912799596786499,-0.9718856811523438,-1.1682825088500977,0
-0.04918700456619263,-0.8877487182617188,-0.9814143180847168,0
-0.019556045532226562,-0.8289918899536133,-0.7751419544219971,0
0.04125869274139404,-0.7766180038452148,-0.70725417137146,0
0.0025928616523742676,-0.9291019439697266,-0.8736875057220459,0
-0.03631538152694702,-1.1187219619750977,-1.1815693378448486,0
-0.015921592712402344,-1.311915397644043,-1.2531883716583252,0
-0.07765203714370728,-1.436884880065918,-1.3449804782867432,0
-0.046267569065093994,-1.3477997779846191,-1.4283092021942139,0
-0.13646453619003296,-1.3194165229797363,-1.5570108890533447,0
-0.579342782497406,-1.894129753112793,-2.028770923614502,0
-0.5854969024658203,-2.009460926055908,-2.169093608856201,0
-0.6493784785270691,-2.1226463317871094,-2.1719465255737305,0
-0.6667986512184143,-2.1597790718078613,-1.888392448425293,0
-0.6967939734458923,-2.104254722595215,-1.6724073886871338,0
-0.6984949707984924,-2.1115407943725586,-1.5838408470153809,0
-0.8467528223991394,-2.090684413909912,-1.5269743204116821,0
-1.0101274251937866,-2.067920684814453,-1.5044913291931152,0
-1.2582619190216064,-1.9856901168823242,-1.5766620635986328,0
-1.4717950820922852,-1.9108915328979492,-1.6170438528060913,0
-1.7249693870544434,-1.6617026329040527,-1.6139752864837646,0
-1.9643394947052002,-1.2332820892333984,-1.687638521194458,0
-2.2665131092071533,-0.970005989074707,-1.8121038675308228,0
-2.7327680587768555,-0.9410219192504883,-1.9324896335601807,0
-3.103898048400879,-1.1220169067382812,-2.1666419506073,0
-3.770170211791992,-1.9048051834106445,-2.438753604888916,0
-3.861149311065674,-2.786196708679199,-2.7401440143585205,0
-3.1997201442718506,-2.856870651245117,-3.02376389503479,0
-2.7814600467681885,-2.742081642150879,-3.0064308643341064,0
-2.4134678840637207,-2.7343740463256836,-2.8180689811706543,0
-1.9339840412139893,-2.5781946182250977,-2.481248378753662,0
-1.4109488725662231,-2.2860283851623535,-2.059389591217041,0
-1.0111515522003174,-1.8345003128051758,-1.623121738433838,0
-0.6983760595321655,-1.3723440170288086,-1.1834990978240967,0
-0.4566076993942261,-0.8519773483276367,-0.7567315101623535,0
-0.3479841351509094,-0.5748167037963867,-0.47464895248413086,0
-0.6752405166625977,-0.6075534820556641,-0.37144899368286133,0
-0.7398677468299866,-0.3711109161376953,-0.23498749732971191,0
-0.507093071937561,-0.17658138275146484,-0.07302093505859375,0
-0.6625733375549316,-0.08852195739746094,0.10446786880493164,0
-0.7523410320281982,-0.0829305648803711,0.27092576026916504,0
-0.5396710634231567,-0.12143707275390625,0.3808705806732178,0
-0.5492178201675415,-0.2015228271484375,0.42197632789611816,0
-0.5130957365036011,-0.375244140625,0.09637212753295898,0
-0.35534238815307617,-0.2260265350341797,-0.13928818702697754,0
-0.18174242973327637,-0.10327434539794922,-0.1604020595550537,0
-0.08904123306274414,-0.1122732162475586,-0.13624811172485352,0
-0.0566103458404541,-0.044991493225097656,0.06317019462585449,0
-1.7726421356201172E-4,-0.1621561050415039,0.23696160316467285,0
0.09712803363800049,-0.27204418182373047,0.2076723575592041,0
0.40432578325271606,-0.12567710876464844,0.26211071014404297,0
0.6329411268234253,0.1429452896118164,0.340045690536499,0
0.6606324911117554,0.115325927734375,0.21859097480773926,0
0.8535811305046082,0.15043067932128906,0.31903815269470215,0
1.0035009384155273,0.23380374908447266,0.3661794662475586,0
1.0433735847473145,0.4108905792236328,0.36219143867492676,0
0.9611083269119263,0.5069751739501953,0.4171764850616455,0
0.8828001618385315,0.5125026702880859,0.5669538974761963,0
0.7932124137878418,0.32935142517089844,0.7376079559326172,0
0.6096576452255249,0.18945598602294922,0.9150500297546387,0
0.14875537157058716,-0.029428482055664062,1.0229403972625732,0
-0.07821696996688843,-0.16473674774169922,1.1165039539337158,0
-0.38276928663253784,-0.345916748046875,1.3517858982086182,0
-0.635527491569519,-0.2836475372314453,1.4921371936798096,0
-0.5245246291160583,-0.13831329345703125,1.6094460487365723,0
-0.5255820751190186,-0.16100692749023438,1.6008641719818115,0
-0.41335099935531616,-0.05732250213623047,1.554917812347412,0
-0.3310807943344116,0.041129112243652344,1.5433475971221924,0
-0.1994926929473877,0.23009109497070312,1.4989995956420898,0
0.03441566228866577,0.47617340087890625,1.4955708980560303,0
0.286777138710022,0.7555675506591797,1.4176595211029053,0
0.5023915767669678,0.9967508316040039,1.2573270797729492,0
0.6403787136077881,1.2597236633300781,1.1837811470031738,0
0.70268714427948,1.3317327499389648,1.1223690509796143,0
0.6481753587722778,1.2512378692626953,1.1304290294647217,0
0.7353193163871765,0.9800834655761719,1.198643684387207,0
0.8235856890678406,0.5949306488037109,1.3585419654846191,0
1.078953742980957,0.1819295883178711,1.5028986930847168,0
1.2870829105377197,-0.2588996887207031,1.5435662269592285,0
1.434510588645935,-0.5649795532226562,1.6077241897583008,0
1.646297812461853,-0.8273496627807617,1.590259075164795,0
1.7602300643920898,-1.0675687789916992,1.5366919040679932,0
1.7910012006759644,-1.2881011962890625,1.4902420043945312,0
1.741544246673584,-1.441213607788086,1.5228769779205322,0
1.4782294034957886,-1.4696989059448242,1.5845935344696045,0
1.1376205682754517,-1.471928596496582,1.6806998252868652,0
0.7843286395072937,-1.4481611251831055,1.8334012031555176,0
0.5519191026687622,-1.408179759979248,1.949934482574463,0
0.260527104139328,-1.4717302322387695,1.9878311157226562,0
0.055758893489837646,-1.4045124053955078,1.9764068126678467,0
-0.2566766142845154,-1.285696029663086,1.9351592063903809,0
-0.5624669194221497,-1.0197181701660156,1.8522038459777832,0
-0.7181305885314941,-0.6114406585693359,1.7130062580108643,0
-0.6039147973060608,-0.09912872314453125,1.5674614906311035,0
-0.4018781781196594,0.4718942642211914,1.3503117561340332,0
-0.1653192639350891,1.0993928909301758,1.0440831184387207,0
0.023867547512054443,1.8742713928222656,0.7392797470092773,0
0.06679683923721313,2.875173568725586,0.4145073890686035,0
-0.11415702104568481,4.156580924987793,-0.008558511734008789,0
-0.5157321691513062,5.435643196105957,-0.6102030277252197,0
-1.0579681396484375,6.542392730712891,-1.4232730865478516,0
-1.5956931114196777,7.185359954833984,-2.402291774749756,0
-1.9702914953231812,7.327131271362305,-3.342067003250122,0
-2.175471782684326,6.861135482788086,-4.181440830230713,0
-2.4010868072509766,5.8435869216918945,-4.716217994689941,0
-2.652611017227173,4.66771125793457,-4.8164472579956055,0
-2.8761560916900635,3.3985519409179688,-4.3999786376953125,0
-3.0088024139404297,2.0246200561523438,-3.7152695655822754,0
-3.0627918243408203,0.5822324752807617,-2.7023420333862305,0
-2.8331172466278076,-0.7608861923217773,-1.6264142990112305,0
-2.474255084991455,-1.909243106842041,-0.607765793800354,0
-2.0423831939697266,-2.775012493133545,0.1852191686630249,0
-1.4756159782409668,-3.404519557952881,0.5806883573532104,0
-0.9414268732070923,-3.800976276397705,0.622309684753418,0
-0.6287500262260437,-3.912362575531006,0.28322696685791016,0
-0.4624929428100586,-4.004499435424805,-0.47383177280426025,0
-0.5373315215110779,-4.043826103210449,-1.4644659757614136,0
-0.9357226490974426,-3.9872183799743652,-2.535752773284912,0
-1.4118027687072754,-3.8130335807800293,-3.6021156311035156,0
-2.0188660621643066,-3.4828996658325195,-4.420334339141846,0
-2.5307650566101074,-3.092421054840088,-4.9243974685668945,0
-2.894320487976074,-2.596189022064209,-5.042802333831787,0
-3.219496726989746,-1.9992494583129883,-4.8372087478637695,0
-3.3390302658081055,-1.383286476135254,-4.263380527496338,0
-3.3729777336120605,-0.7677507400512695,-3.441956043243408,0
-3.6070563793182373,-0.10524463653564453,-2.4477005004882812,0
-3.9498610496520996,0.49605560302734375,-1.2908337116241455,0
-3.9087867736816406,1.6120452880859375,-0.13295364379882812,0
-3.3101770877838135,2.0557804107666016,1.021330714225769,0
-2.3605923652648926,3.22690486907959,1.6921814680099487,0
-1.3405675888061523,3.7568225860595703,2.2080984115600586,0
-0.382213830947876,3.8207902908325195,2.325955867767334,0
0.4221373200416565,3.5126876831054688,1.9990885257720947,0
1.2065142393112183,2.8905820846557617,1.1643527746200562,0
1.6891570091247559,1.7612791061401367,0.21654868125915527,0
1.354038953781128,0.4742708206176758,-0.6010497808456421,0
0.8700594902038574,0.0744781494140625,-1.29843008518219,0
0.6488984823226929,0.07088565826416016,-1.8483705520629883,0
1.1136327981948853,0.23432064056396484,-2.656190872192383,0
1.6463210582733154,0.14941120147705078,-3.561026096343994,0
2.0637941360473633,0.0011730194091796875,-4.124411582946777,0
2.260514736175537,-0.2912273406982422,-4.932016849517822,0
