AccX,AccY,AccZ,stepCount
-1.8428971767425537,-0.9361152648925781,-3.1235740184783936,6.183670520782471
-2.1035959720611572,-1.080754280090332,-3.435009241104126,-4.571278095245361
-2.4284615516662598,-1.2500982284545898,-3.7566676139831543,4.54428768157959
-2.888676404953003,-1.5943412780761719,-3.9741570949554443,-4.351128101348877
-3.2891311645507812,-1.7639141082763672,-4.197956085205078,2.150754928588867
-3.8270983695983887,-2.0265607833862305,-4.356594562530518,-1.4444209337234497
-4.395688533782959,-2.1954598426818848,-4.388223648071289,1.4367049932479858
-4.9144415855407715,-2.401974678039551,-4.417649269104004,-0.505445659160614
-5.410305500030518,-2.4998884201049805,-4.509995937347412,0
-5.902873516082764,-2.6229777336120605,-4.553225040435791,0
-6.27769136428833,-2.6946182250976562,-4.559381008148193,0
-6.657242774963379,-2.8129115104675293,-4.456543922424316,0
-6.927452564239502,-2.8919177055358887,-4.2296953201293945,0
-6.854071617126465,-2.970367908477783,-3.8899264335632324,0
-6.148283958435059,-3.0800223350524902,-3.6136364936828613,0
-5.336572170257568,-3.228785514831543,-3.325960636138916,0
-4.632566928863525,-3.40059757232666,-2.9543070793151855,0
-3.961322784423828,-3.6176505088806152,-2.571718215942383,0
-3.4400110244750977,-3.851715087890625,-2.220196008682251,0
-2.992300510406494,-4.155733585357666,-1.9705710411071777,0
-2.580191135406494,-4.436596393585205,-1.7839045524597168,0
-2.304291248321533,-4.773351192474365,-1.6358978748321533,0
-2.1091790199279785,-5.118027687072754,-1.5578737258911133,0
-1.883824110031128,-5.430027008056641,-1.4519710540771484,0
-1.6629388332366943,-5.707089900970459,-1.359114170074463,0
-1.579022765159607,-5.925535678863525,-1.2291405200958252,0
-1.5063691139221191,-6.073651313781738,-1.0955049991607666,0
-1.4796791076660156,-6.142040729522705,-0.9869201183319092,0
-1.6154859066009521,-6.147350788116455,-0.9060049057006836,0
-1.7203091382980347,-6.089135646820068,-0.8437044620513916,0
-1.8121867179870605,-5.526853561401367,-0.7790770530700684,0
-1.9101405143737793,-5.627008438110352,-0.775968074798584,0
-1.8105955123901367,-5.527144432067871,-0.7833871841430664,0
-1.680708408355713,-5.384737014770508,-0.7737398147583008,0
-1.4151891469955444,-5.056026458740234,-0.6111550331115723,0
-1.0298935174942017,-4.337788105010986,-0.3455963134765625,0
-0.5964648723602295,-3.2613320350646973,-0.005373954772949219,0
-0.09128272533416748,-1.9221563339233398,0.26785945892333984,0
0.3870277404785156,-0.5159263610839844,0.4754457473754883,0
0.8165163397789001,0.9054155349731445,0.6970744132995605,0
1.2233357429504395,2.510012626647949,0.920752763748169,0
1.4061377048492432,4.1836347579956055,1.2728054523468018,0
1.6108500957489014,6.084572792053223,1.6931180953979492,0
1.7081793546676636,7.8779144287109375,2.2328498363494873,0
1.7970536947250366,9.70673656463623,3.0383355617523193,0
1.9322038888931274,11.285439491271973,4.2455854415893555,0
2.2700388431549072,12.53627872467041,5.911083221435547,0
2.7411863803863525,12.649532318115234,8.076179504394531,0
2.7322428226470947,10.546990394592285,9.66136360168457,0
2.1363489627838135,7.278794288635254,9.696599960327148,0
1.5358476638793945,4.587775230407715,8.485366821289062,0
1.112255573272705,2.9086952209472656,6.8483147621154785,0
0.8866490125656128,1.9721441268920898,5.267718315124512,0
0.9142147302627563,1.5780677795410156,3.7936201095581055,0
1.0311787128448486,1.2639102935791016,2.3771650791168213,0
1.1871111392974854,1.0967016220092773,1.0536010265350342,0
1.1387732028961182,1.0935001373291016,-0.09545302391052246,0
1.0257365703582764,1.2426538467407227,-1.0246201753616333,0
0.6206039190292358,1.6495256423950195,-1.6594393253326416,0
-0.02955460548400879,2.266080856323242,-2.077662706375122,0
-0.844631016254425,2.9628658294677734,-2.2390153408050537,0
-1.7636265754699707,3.600945472717285,-2.258286237716675,0
-2.49839448928833,3.764253616333008,-2.195138931274414,0
-3.16513991355896,3.833584785461426,-2.0736424922943115,0
-3.9133212566375732,3.82122802734375,-1.9017655849456787,0
-4.6724748611450195,3.692122459411621,-1.8710646629333496,0
-5.393397808074951,3.265981674194336,-1.9885846376419067,0
-6.314785480499268,2.5304746627807617,-2.2126519680023193,0
-7.171946048736572,1.3606719970703125,-2.378932476043701,0
-7.6087164878845215,-0.032466888427734375,-2.2887110710144043,0
-7.628052234649658,-1.4210901260375977,-1.668002724647522,0
-7.07564640045166,-2.592794895172119,-0.6749199628829956,0
-5.825682163238525,-3.5071067810058594,0.2625539302825928,0
-3.832217216491699,-4.158339500427246,0.6452174186706543,0
-1.1715928316116333,-4.494226455688477,0.08204174041748047,0
0.8845542669296265,-4.540604114532471,-1.1231896877288818,0
1.9631271362304688,-4.33477258682251,-2.7006499767303467,0
2.24639630317688,-3.992877960205078,-4.360022068023682,0
2.157942771911621,-3.6358747482299805,-5.69395112991333,0
1.477268099784851,-3.3202686309814453,-6.4333720207214355,0
0.5680778622627258,-3.064422130584717,-6.574369430541992,0
-0.23980829119682312,-2.9777960777282715,-6.384321212768555,0
-0.9011361598968506,-2.8185648918151855,-5.879279136657715,0
-1.3913049697875977,-2.625356674194336,-5.124776840209961,0
-1.677955150604248,-2.2816710472106934,-4.264809608459473,0
-1.9435744285583496,-1.7383055686950684,-3.360489845275879,0
-2.121958017349243,-1.051375389099121,-2.3964312076568604,0
-2.264516592025757,-0.31760120391845703,-1.529932975769043,0
-2.413187026977539,0.48824501037597656,-0.6525920033454895,0
-2.6793346405029297,1.4367504119873047,0.3914821147918701,0
-2.5308034420013428,2.3956098556518555,1.023764729499817,0
-2.1889963150024414,2.6640892028808594,1.1398944854736328,0
-1.58060884475708,2.9533920288085938,1.1125489473342896,0
-1.0010690689086914,2.9030227661132812,0.5153279304504395,0
-0.41993099451065063,2.4496536254882812,-0.3737095594406128,0
0.11251956224441528,1.8074464797973633,-1.5476325750350952,0
0.35476887226104736,1.175729751586914,-2.5827765464782715,0
0.6355180144309998,0.7198553085327148,-3.334139823913574,0
0.9128861427307129,0.2986936569213867,-3.667215347290039,0
1.0108838081359863,0.022186279296875,-3.8362529277801514,0
1.0764427185058594,-0.04296875,-3.857787609100342,0
1.2089389562606812,-0.09561347961425781,-3.601411819458008,0
1.5107738971710205,-0.13829517364501953,-2.9905357360839844,0
1.9409434795379639,-0.3217287063598633,-2.1855123043060303,0
2.1207163333892822,-0.7533349990844727,-1.4621849060058594,0
1.7922286987304688,-1.1793241500854492,-1.0138599872589111,0
1.113144040107727,-1.4920711517333984,-0.8456926345825195,0
0.3103763461112976,-1.655777931213379,-0.9060287475585938,0
-0.3921131491661072,-1.7758140563964844,-1.145719289779663,0
-0.8944571018218994,-1.8020057678222656,-1.3000199794769287,0
-1.2470449209213257,-1.8324942588806152,-1.3406527042388916,0
-1.4450547695159912,-1.8385801315307617,-1.1098538637161255,0
-1.5479063987731934,-1.9756922721862793,-0.8514654636383057,0
-1.4333930015563965,-1.9806318283081055,-0.57939612865448,0
-1.395824909210205,-2.073535919189453,-0.34142154455184937,0
-1.239287257194519,-2.065406322479248,-0.171322301030159,0
-1.0575064420700073,-2.061607837677002,-0.018810465931892395,0
-0.7863942384719849,-2.0215306282043457,0.02968938648700714,0
-0.5152536630630493,-1.859224796295166,0.07694795727729797,0
-0.22087693214416504,-1.739924430847168,0.17085355520248413,0
0.07964503765106201,-1.398219108581543,0.14144855737686157,0
0.38646644353866577,-0.9850273132324219,0.05362727865576744,0
0.6875385046005249,-0.6463232040405273,-0.06356769800186157,0
0.7794780135154724,-0.3150930404663086,-0.17870084941387177,0
0.9376716017723083,-0.05826377868652344,-0.25558704137802124,0
1.138355016708374,0.11471748352050781,-0.21517151594161987,0
1.293281078338623,0.25660228729248047,-0.10512576997280121,0
1.4388993978500366,0.4368448257446289,0.050590068101882935,0
1.558835506439209,0.4282989501953125,0.2736501693725586,0
1.6770248413085938,0.32446956634521484,0.5090404748916626,0
1.6664197444915771,0.21151351928710938,0.7159429788589478,0
1.4477115869522095,0.10610294342041016,0.8797242045402527,0
1.410942792892456,-0.018100738525390625,0.9640146493911743,0
1.3862833976745605,-0.18975353240966797,1.0165624618530273,0
1.261452317237854,-0.2677183151245117,1.0611517429351807,0
1.2858449220657349,-0.46724891662597656,1.0544945001602173,0
1.2614574432373047,-0.5585517883300781,1.0516281127929688,0
1.1599094867706299,-0.6803913116455078,1.1245715618133545,0
1.0484819412231445,-0.6174678802490234,1.1539335250854492,0
0.939538836479187,-0.5181741714477539,1.2307538986206055,0
0.7540938854217529,-0.3179950714111328,1.2520811557769775,0
0.5734165906906128,0.006817817687988281,1.2749229669570923,0
0.4163393974304199,0.31970787048339844,1.3056278228759766,0
0.272601842880249,0.6324377059936523,1.2736921310424805,0
-0.11950480937957764,0.8658018112182617,1.2308104038238525,0
0.007935404777526855,0.9456939697265625,1.231281042098999,0
0.24549543857574463,1.0181007385253906,1.1884506940841675,0
0.3822706937789917,1.0112028121948242,1.0927814245224,0
0.5686330795288086,0.8006935119628906,1.013998031616211,0
0.6964720487594604,0.7550249099731445,1.0102384090423584,0
0.9640966653823853,0.8118562698364258,1.0991147756576538,0
1.2730823755264282,0.8850021362304688,1.2670245170593262,0
1.5633831024169922,1.1489877700805664,1.4188004732131958,0
1.8706257343292236,1.3835115432739258,1.4515581130981445,0
2.184832811355591,1.6243600845336914,1.4728753566741943,0
2.644110679626465,1.9263830184936523,1.3656748533248901,0
2.958390712738037,2.1315765380859375,1.1663085222244263,0
3.299443483352661,2.184929847717285,0.8056578636169434,0
3.501685619354248,2.053010940551758,0.3963078260421753,0
3.6605234146118164,1.7813653945922852,-0.06419223546981812,0
3.7712643146514893,1.5542573928833008,-0.47327089309692383,0
3.86301326751709,1.4051933288574219,-0.6205415725708008,0
3.900424003601074,1.3342256546020508,-0.5371091961860657,0
3.9080305099487305,1.3510112762451172,-0.213137686252594,0
4.058925628662109,1.4987592697143555,0.3829759657382965,0
4.205598831176758,1.9353361129760742,1.0787250995635986,0
4.236363410949707,2.660440444946289,1.6909832954406738,0
4.098809242248535,3.5659475326538086,2.0284268856048584,0
3.8598270416259766,4.342885971069336,1.9058067798614502,0
3.4543895721435547,4.852428436279297,1.331693172454834,0
2.9489409923553467,4.896310806274414,0.5885426998138428,0
2.2895069122314453,4.5539655685424805,-0.05368518829345703,0
1.6751530170440674,4.158260345458984,-0.5027913451194763,0
1.2687255144119263,3.6854658126831055,-0.46621376276016235,0
0.9918735027313232,3.212381362915039,0.03866580128669739,0
0.7913181781768799,2.662753105163574,0.8241612315177917,0
0.4038952589035034,2.0034141540527344,1.655168890953064,0
-0.232141375541687,1.4092769622802734,2.3178305625915527,0
-0.9920415878295898,0.9714460372924805,2.6554408073425293,0
-1.6694515943527222,0.8481712341308594,2.6700921058654785,0
-2.3640456199645996,1.2169122695922852,2.4820826053619385,0
-3.048152208328247,1.85565185546875,2.3282532691955566,0
-3.5994811058044434,2.4110336303710938,2.224364757537842,0
-3.9117465019226074,2.6875839233398438,2.1423773765563965,0
-4.115466117858887,2.9032535552978516,1.896358609199524,0
-4.18630313873291,2.909480094909668,1.3686087131500244,0
-4.033855438232422,2.7297677993774414,0.5457214117050171,0
-3.8102030754089355,2.6601037979125977,-0.45799684524536133,0
-3.356875419616699,2.6398677825927734,-1.428790807723999,0
-2.898944854736328,2.5798606872558594,-2.2684316635131836,0
-2.5306437015533447,2.5775938034057617,-3.0155446529388428,0
-2.4455058574676514,2.632474899291992,-3.677734851837158,0
-2.5673041343688965,2.6555938720703125,-4.1218581199646,0
-2.746159791946411,2.51297664642334,-4.361522674560547,0
-3.0792224407196045,2.271847724914551,-4.391453266143799,0
-3.2352211475372314,2.0833120346069336,-4.24997615814209,0
-3.066739082336426,2.1177291870117188,-3.973569631576538,0
-2.5135021209716797,2.1533403396606445,-3.369262218475342,0
-1.377063512802124,2.1457557678222656,-2.45703125,0
-0.1706738919019699,2.248933792114258,-1.293958067893982,0
0.8770573139190674,2.3626813888549805,-0.0929563045501709,0
1.7764359712600708,2.5107316970825195,0.9489328861236572,0
2.315131425857544,2.2236738204956055,1.7697701454162598,0
2.5079185962677,2.065462112426758,2.123095750808716,0
2.237592935562134,1.5996007919311523,2.2487599849700928,0
1.3861420154571533,1.3061819076538086,1.9984934329986572,0
0.3172420859336853,0.9835739135742188,1.4889311790466309,0
-0.29387521743774414,0.9159364700317383,0.790541410446167,0
-0.8636402487754822,0.7177181243896484,0.08832001686096191,0
-1.3506996631622314,0.4632225036621094,-0.6107239723205566,0
-2.0356650352478027,-0.048010826110839844,-1.3866254091262817,0
-2.424959182739258,-0.3872203826904297,-2.0665435791015625,0
-2.7473862171173096,-0.7360448837280273,-2.592302083969116,0
-2.838845729827881,-1.1541528701782227,-2.936478614807129,0
-2.860772132873535,-1.5026664733886719,-3.2366995811462402,0
-2.8676857948303223,-1.8676023483276367,-3.5393218994140625,0
-2.756840705871582,-2.23451566696167,-3.7754030227661133,0
-2.6290526390075684,-2.629744529724121,-3.8971755504608154,0
-2.587728500366211,-3.0556797981262207,-3.9308903217315674,0
-2.460930109024048,-3.433631420135498,-3.8449041843414307,0
-2.502835750579834,-3.6539011001586914,-3.8084042072296143,0
-2.6037070751190186,-3.915153980255127,-3.8881824016571045,0
-2.6585254669189453,-4.095388889312744,-3.9334475994110107,0
-2.818026065826416,-4.233017921447754,-3.8963656425476074,0
-2.996072769165039,-4.3352484703063965,-3.918203353881836,0
-3.1231205463409424,-4.251510143280029,-3.9176785945892334,0
-3.31882905960083,-4.120826244354248,-3.870697259902954,0
-3.461585283279419,-3.974484920501709,-3.724266290664673,0
-3.571176052093506,-3.8366541862487793,-3.504089117050171,0
-3.540684700012207,-3.7817435264587402,-3.2046074867248535,0
-3.4089953899383545,-3.740787982940674,-2.7864878177642822,0
-3.269803047180176,-3.755013942718506,-2.3011269569396973,0
-3.0943779945373535,-3.834458827972412,-1.8718645572662354,0
-2.8008203506469727,-3.931673526763916,-1.5625300407409668,0
-2.4722659587860107,-4.082932472229004,-1.3269248008728027,0
-2.110719919204712,-4.297989845275879,-1.1478126049041748,0
-1.8591457605361938,-4.533713340759277,-1.0850684642791748,0
-1.7024673223495483,-4.725291728973389,-1.1534948348999023,0
-1.5393437147140503,-4.908317565917969,-1.2055408954620361,0
-1.4526690244674683,-5.077663898468018,-1.2923221588134766,0
-1.4248957633972168,-5.254584312438965,-1.342717170715332,0
-1.5414634943008423,-5.357587814331055,-1.2614517211914062,0
-1.708380937576294,-5.479952335357666,-1.0773570537567139,0
-1.9011976718902588,-5.5834221839904785,-0.7925996780395508,0
-2.1578209400177,-5.679961204528809,-0.4546835422515869,0
-2.444204330444336,-5.728755950927734,-0.06596255302429199,0
-2.781132459640503,-5.834735870361328,0.2393178939819336,0
-2.9986801147460938,-5.5907769203186035,0.4774477481842041,0
-3.2283120155334473,-5.300342559814453,0.6716501712799072,0
-3.304837226867676,-4.702089786529541,0.7467396259307861,0
-3.1406073570251465,-3.7165188789367676,0.6774148941040039,0
-2.8779304027557373,-2.4316930770874023,0.5724093914031982,0
-2.46120548248291,-0.861485481262207,0.4064218997955322,0
-1.9342412948608398,0.9589090347290039,0.17009449005126953,0
-1.4420021772384644,3.0971546173095703,0.004007816314697266,0
-0.813930869102478,5.302809715270996,-0.09347391128540039,0
-0.2837083339691162,7.646081924438477,-0.06979537010192871,0
0.13723456859588623,10.14175796508789,0.37187743186950684,0
0.43195152282714844,12.72286319732666,1.416959524154663,0
0.6572127938270569,14.883976936340332,2.986494779586792,0
1.1295874118804932,16.021133422851562,5.377093315124512,0
1.9186735153198242,14.82468318939209,8.378063201904297,0
2.9408962726593018,11.588488578796387,11.11771011352539,0
3.96089506149292,8.037114143371582,12.37459945678711,0
4.457052230834961,5.203441619873047,11.578658103942871,0
4.694156169891357,3.4000797271728516,9.61181640625,0
4.453190803527832,2.279449462890625,7.20382022857666,0
3.7371926307678223,1.4922285079956055,4.747983932495117,0
2.78363299369812,0.9146499633789062,2.3057751655578613,0
1.5065555572509766,0.3730783462524414,-0.002627134323120117,0
0.2406722605228424,-0.18890762329101562,-1.99961519241333,0
-1.0196888446807861,-0.4982013702392578,-3.393914222717285,0
-2.0151546001434326,-0.5983123779296875,-4.176855087280273,0
-2.677621841430664,-0.6693515777587891,-4.474750518798828,0
-3.0869140625,-0.4920921325683594,-4.436810493469238,0
-3.4496350288391113,-0.2564668655395508,-4.211742877960205,0
-3.898564338684082,0.23299217224121094,-3.965087652206421,0
-4.341993808746338,0.7559051513671875,-3.8539161682128906,0
-4.395605087280273,0.96844482421875,-3.985003709793091,0
-4.628824710845947,1.32879638671875,-3.8385679721832275,0
-4.980064392089844,1.577911376953125,-3.469806671142578,0
-5.662613391876221,2.3185110092163086,-2.4943735599517822,0
-7.037885665893555,2.963743209838867,-1.3556454181671143,0
-7.910345554351807,2.843538284301758,-0.11132705211639404,0
-7.858837604522705,2.1493568420410156,1.30775785446167,0
-6.729610443115234,1.2275409698486328,2.5518507957458496,0
-4.691282272338867,0.2458629608154297,3.0173139572143555,0
-1.7013815641403198,-0.812983512878418,2.140883207321167,0
0.9352169632911682,-1.9194917678833008,0.21623730659484863,0
2.2994749546051025,-2.773250102996826,-2.201014280319214,0
2.7941300868988037,-3.4687623977661133,-4.503830909729004,0
2.929445505142212,-3.909407615661621,-6.276726722717285,0
2.7731871604919434,-4.24062967300415,-7.361478805541992,0
2.5732688903808594,-4.414279460906982,-7.773645401000977,0
2.1165318489074707,-4.415794849395752,-7.732233047485352,0
1.623590350151062,-4.099195957183838,-7.398682117462158,0
1.0852121114730835,-3.6320700645446777,-6.797153949737549,0
0.3797605633735657,-2.952519416809082,-5.930750846862793,0
-0.41110658645629883,-2.214226245880127,-4.728582859039307,0
-1.1052238941192627,-1.690399169921875,-3.386317014694214,0
-1.5681142807006836,-0.9391164779663086,-1.8591704368591309,0
-1.9141219854354858,-0.0020904541015625,-0.4536421298980713,0
-2.0898656845092773,0.9308252334594727,0.5927611589431763,0
-2.266371250152588,1.8108692169189453,1.6708416938781738,0
-2.367631435394287,2.637080192565918,2.8944554328918457,0
-2.0588221549987793,3.256171226501465,3.120419979095459,0
-1.5055011510849,3.4345035552978516,2.1346936225891113,0
-0.9859399199485779,3.0682296752929688,0.5741485357284546,0
-0.4166750907897949,2.3883771896362305,-0.9802954196929932,0
0.22397452592849731,1.6350822448730469,-2.234567880630493,0
0.7426893711090088,0.9881525039672852,-3.087125301361084,0
1.1380236148834229,0.4595823287963867,-3.5782644748687744,0
1.4016695022583008,0.04691600799560547,-3.752091884613037,0
1.5878863334655762,-0.25951385498046875,-3.5824222564697266,0
2.021913766860962,-0.44786739349365234,-3.0681676864624023,0
2.162724494934082,-0.6522579193115234,-2.2456016540527344,0
1.7146520614624023,-0.8656692504882812,-1.421227216720581,0
0.9578891396522522,-1.159937858581543,-0.9933100342750549,0
0.2059832215309143,-1.4177751541137695,-0.9544616341590881,0
-0.2755456566810608,-1.5339336395263672,-1.1593022346496582,0
-0.6924713253974915,-1.6950244903564453,-1.3357830047607422,0
-1.0879430770874023,-1.704904556274414,-1.414991855621338,0
-1.2970528602600098,-1.884202003479004,-1.2533342838287354,0
-1.3221144676208496,-1.9314308166503906,-1.1160850524902344,0
-1.1938928365707397,-2.030853748321533,-0.9500405192375183,0
-1.0796951055526733,-2.0843586921691895,-0.84088134765625,0
-1.0370824337005615,-2.158970355987549,-0.7547175884246826,0
-0.9539368748664856,-2.170982837677002,-0.7537331581115723,0
-0.9528374075889587,-2.115724563598633,-0.756596565246582,0
-0.9411133527755737,-2.098527431488037,-0.7468109726905823,0
-0.8474225401878357,-2.0763211250305176,-0.6457497477531433,0
-0.6742635369300842,-1.951063632965088,-0.5446299314498901,0
-0.46010035276412964,-1.813748836517334,-0.42916473746299744,0
-0.20962762832641602,-1.5830755233764648,-0.38073301315307617,0
0.0895424485206604,-1.3762712478637695,-0.37763071060180664,0
0.32291179895401,-1.126312255859375,-0.3096744120121002,0
0.45728081464767456,-0.7877845764160156,-0.23652851581573486,0
0.6173021793365479,-0.4324932098388672,-0.1267586648464203,0
0.7024917006492615,-0.11782169342041016,-0.0519510880112648,0
0.731745719909668,0.10605525970458984,-1.700371503829956E-4,0
0.7359422445297241,0.3133659362792969,0.028363123536109924,0
0.7462970018386841,0.2865715026855469,0.10298401117324829,0
0.7074206471443176,0.18374919891357422,0.19003480672836304,0
0.7005171775817871,0.08149528503417969,0.19588667154312134,0
0.6704894304275513,-0.12062931060791016,0.27093440294265747,0
0.7009890675544739,-0.3268613815307617,0.355160653591156,0
0.7346376776695251,-0.5539188385009766,0.484404981136322,0
0.8028026223182678,-0.7969446182250977,0.5965461730957031,0
0.6592864990234375,-0.9195804595947266,0.8305429816246033,0
0.7543752193450928,-1.0438575744628906,0.9132816791534424,0
0.7629949450492859,-1.0716724395751953,1.0981600284576416,0
0.6516966819763184,-0.9816064834594727,1.2130753993988037,0
0.5712980031967163,-0.7642192840576172,1.3632608652114868,0
0.5890063047409058,-0.5774593353271484,1.3399837017059326,0
0.5154179334640503,-0.10097599029541016,1.3365695476531982,0
0.38116681575775146,0.26779937744140625,1.4169135093688965,0
0.2572115659713745,0.6411609649658203,1.4726436138153076,0
0.23609519004821777,1.0164470672607422,1.473992109298706,0
0.2908444404602051,1.2284431457519531,1.5923793315887451,0
0.41819190979003906,1.3607959747314453,1.7723309993743896,0
0.6963337659835815,1.518630027770996,1.9396862983703613,0
1.0121549367904663,1.548776626586914,2.1692516803741455,0
1.3771851062774658,1.5660991668701172,2.3468587398529053,0
1.8368514776229858,1.5347862243652344,2.449380397796631,0
2.3816282749176025,1.4955368041992188,2.3692922592163086,0
2.851475238800049,1.4746637344360352,2.2213199138641357,0
3.389805316925049,1.4912405014038086,2.0775318145751953,0
3.888274669647217,1.7914295196533203,2.0704345703125,0
4.3221611976623535,2.0615100860595703,1.8086334466934204,0
4.690816879272461,2.2344703674316406,1.5349862575531006,0
4.727757453918457,2.3054285049438477,1.3028885126113892,0
4.813141822814941,2.092684745788574,1.1650676727294922,0
4.932775497436523,1.8882255554199219,1.0387945175170898,0
5.0276031494140625,1.735030174255371,0.7612318992614746,0
5.09404182434082,1.468179702758789,0.6893672943115234,0
5.250887393951416,1.4014129638671875,0.7960090637207031,0
5.1693830490112305,1.7357587814331055,1.1127543449401855,0
5.02551794052124,2.3563737869262695,1.5809826850891113,0
4.666889667510986,3.1889801025390625,1.9571361541748047,0
4.033912181854248,3.998880386352539,1.890636920928955,0
3.2843122482299805,4.54911994934082,1.4028137922286987,0
2.6331818103790283,4.751380920410156,0.7368594408035278,0
2.0944974422454834,4.517630577087402,0.00758206844329834,0
1.6505858898162842,4.037393569946289,-0.6570810079574585,0
1.436340570449829,3.4378786087036133,-1.0123628377914429,0
1.3420547246932983,2.905917167663574,-0.8972262144088745,0
1.3108859062194824,2.2598323822021484,-0.3333418071269989,0
1.385049819946289,1.5214118957519531,0.5326520800590515,0
1.2795965671539307,0.7840785980224609,1.494634747505188,0
0.36441731452941895,0.5306434631347656,2.4036448001861572,0
-1.0552970170974731,0.7771329879760742,3.010425567626953,0
-2.5570294857025146,1.6212434768676758,3.1769347190856934,0
-3.6598424911499023,2.747415542602539,2.9930484294891357,0
-4.252593040466309,3.611194610595703,2.73569917678833,0
-4.572867393493652,4.137160301208496,2.375281810760498,0
-4.842972755432129,4.199297904968262,1.870356798171997,0
-4.950072288513184,4.032362937927246,1.1455798149108887,0
-4.951251029968262,3.844271659851074,0.3774961233139038,0
-4.851220607757568,3.8737239837646484,-0.3985309600830078,0
-4.650274276733398,3.9359264373779297,-1.253804087638855,0
-4.435724258422852,4.030401229858398,-2.104757070541382,0
-4.386171817779541,4.166269302368164,-2.9423880577087402,0
-4.233468532562256,4.245135307312012,-3.5572962760925293,0
-4.136013031005859,4.326496124267578,-3.9694392681121826,0
-4.190408706665039,4.352667808532715,-4.14858341217041,0
-4.187785625457764,4.165835380554199,-4.177708625793457,0
-4.207589626312256,3.907480239868164,-4.018350601196289,0
-4.071797847747803,3.790829658508301,-3.6611242294311523,0
-3.638788938522339,3.440847396850586,-2.965371608734131,0
-2.636040449142456,3.0164785385131836,-1.9678423404693604,0
-0.9582102298736572,2.736201286315918,-0.7736531496047974,0
0.46806299686431885,2.621872901916504,0.4178805351257324,0
1.515592336654663,2.596982955932617,1.339402437210083,0
2.188170909881592,2.462940216064453,1.9086532592773438,0
2.7710187435150146,2.3677597045898438,2.111152410507202,0
3.3081400394439697,1.8872947692871094,1.969233751296997,0
3.298671007156372,1.3222265243530273,1.4834437370300293,0
2.8837661743164062,0.8916358947753906,0.8569586277008057,0
2.2165255546569824,0.5681753158569336,0.25896549224853516,0
1.5425724983215332,0.35594749450683594,-0.3624298572540283,0
0.8561198711395264,0.13976764678955078,-0.9808132648468018,0
0.2083560824394226,-0.26679134368896484,-1.529869794845581,0
-0.3913800120353699,-0.6622838973999023,-2.154688835144043,0
-0.830270528793335,-1.2043514251708984,-2.62436580657959,0
-1.2321791648864746,-1.5101251602172852,-3.0117275714874268,0
-1.5587209463119507,-1.9647526741027832,-3.31520414352417,0
-1.8122339248657227,-2.3478965759277344,-3.6528286933898926,0
-2.0814566612243652,-2.7838449478149414,-3.986832618713379,0
-2.3981549739837646,-3.13600492477417,-4.3392558097839355,0
-2.6268746852874756,-3.554896354675293,-4.633936405181885,0
-2.8547897338867188,-3.9565582275390625,-4.885482311248779,0
-3.1548924446105957,-4.340836048126221,-5.070069313049316,0
-3.327169895172119,-4.626315593719482,-5.13759708404541,0
-3.527677059173584,-4.820260524749756,-5.145506858825684,0
-3.744378089904785,-4.879743576049805,-5.146480560302734,0
-3.962653160095215,-5.075069427490234,-5.157480239868164,0
-4.108138561248779,-5.095432281494141,-4.9628801345825195,0
-4.324399948120117,-4.953359603881836,-4.715168476104736,0
-4.4799485206604,-4.768985748291016,-4.389654159545898,0
-4.558058738708496,-4.5618791580200195,-4.011964321136475,0
-4.630562782287598,-4.456821918487549,-3.5359041690826416,0
-4.6227312088012695,-4.4731550216674805,-3.219404697418213,0
-4.279674530029297,-4.525246620178223,-2.8081302642822266,0
-3.828106164932251,-4.659182071685791,-2.363276958465576,0
-3.4477384090423584,-4.808578968048096,-1.8691487312316895,0
-3.0606369972229004,-5.009708404541016,-1.48246169090271,0
-2.6629433631896973,-5.233991622924805,-1.2502801418304443,0
-2.3771774768829346,-5.507639408111572,-1.1054022312164307,0
-2.076244831085205,-5.797066688537598,-1.038259744644165,0
-1.6827491521835327,-6.040014266967773,-0.9797146320343018,0
-1.3248307704925537,-6.238968849182129,-0.8891756534576416,0
-1.0537768602371216,-6.389328479766846,-0.7737090587615967,0
-0.8419491052627563,-6.450486660003662,-0.6429619789123535,0
-0.7407875061035156,-6.479787349700928,-0.4875907897949219,0
-0.7850118279457092,-6.462594509124756,-0.3367960453033447,0
-0.8973714113235474,-6.415065765380859,-0.20588326454162598,0
-1.0158129930496216,-6.0257039070129395,0.004760026931762695,0
-1.1820958852767944,-5.9947052001953125,0.21929574012756348,0
-1.3021783828735352,-5.735021114349365,0.40050840377807617,0
-1.3548145294189453,-5.095670700073242,0.6409726142883301,0
-1.473870038986206,-4.3085551261901855,0.8133904933929443,0
-1.439836025238037,-3.301609516143799,0.8553383350372314,0
-1.3275643587112427,-2.110466957092285,0.8957324028015137,0
-0.9927739500999451,-0.6749210357666016,0.9123125076293945,0
-0.5683473348617554,1.0605840682983398,0.8534319400787354,0
-0.41606539487838745,3.2138757705688477,0.7786774635314941,0
-0.07418105751276016,5.553680419921875,0.7242779731750488,0
0.1066652312874794,8.312867164611816,0.7084920406341553,0
0.12083112448453903,11.685412406921387,0.9124908447265625,0
-0.02913835644721985,15.496014595031738,1.5961799621582031,0
-0.1792052984237671,18.518436431884766,2.89762282371521,0
-0.07340234518051147,19.85174560546875,5.369332313537598,0
0.14344948530197144,17.55164909362793,7.649964332580566,0
0.604684054851532,12.262207984924316,8.750271797180176,0
1.3232951164245605,7.709128379821777,9.173789978027344,0
2.0220305919647217,4.622221946716309,8.90675163269043,0
2.72762393951416,2.606769561767578,7.9704203605651855,0
3.4599502086639404,1.3719148635864258,6.4436845779418945,0
3.860722541809082,0.4581441879272461,4.5745954513549805,0
3.7411890029907227,-0.2149515151977539,2.514575242996216,0
3.2271718978881836,-0.8086357116699219,0.4440891742706299,0
2.374941825866699,-1.2666149139404297,-1.444262146949768,0
1.329854965209961,-1.4639339447021484,-2.83644437789917,0
0.2892075479030609,-1.506082534790039,-3.6215882301330566,0
-0.5585980415344238,-1.3483819961547852,-3.8371729850769043,0
-1.3229353427886963,-1.1259822845458984,-3.5619022846221924,0
-2.0617499351501465,-0.7084798812866211,-3.082181215286255,0
-2.7386085987091064,-0.06350231170654297,-2.598532199859619,0
-3.484039306640625,0.8440799713134766,-2.2552061080932617,0
-4.120553970336914,1.739206314086914,-2.349231719970703,0
-4.530175685882568,2.340921401977539,-2.7095649242401123,0
-5.0387468338012695,2.60604190826416,-3.0033700466156006,0
-5.729347229003906,2.9462480545043945,-2.7836875915527344,0
-6.550359725952148,3.215330123901367,-2.095696449279785,0
-7.168307304382324,2.8469362258911133,-1.1264188289642334,0
-7.221252918243408,1.7701358795166016,0.27884936332702637,0
-6.584634304046631,0.6401424407958984,1.8275065422058105,0
-4.972866535186768,-0.35202503204345703,3.1092095375061035,0
-2.9732964038848877,-1.1676359176635742,3.649946928024292,0
-0.7954126596450806,-1.8478679656982422,2.736720323562622,0
0.7926799058914185,-2.4924755096435547,0.5862070322036743,0
1.4126932621002197,-3.1528220176696777,-2.0344700813293457,0
1.4382822513580322,-3.638760566711426,-4.471506118774414,0
1.0739390850067139,-3.8872461318969727,-6.459168434143066,0
0.7451344728469849,-4.002869606018066,-7.772551536560059,0
0.4453263580799103,-3.8009471893310547,-8.464296340942383,0
0.13540059328079224,-3.388981819152832,-8.7062349319458,0
-0.3179817199707031,-2.7382912635803223,-8.698121070861816,0
-0.7226238250732422,-1.9686851501464844,-8.521246910095215,0
-1.094574213027954,-1.0995712280273438,-8.097869873046875,0
-1.4163203239440918,-0.2628803253173828,-7.33460807800293,0
-1.5177817344665527,0.5553312301635742,-6.134828567504883,0
-1.4945920705795288,1.3521184921264648,-4.3387837409973145,0
-1.2941153049468994,2.229581832885742,-1.9771196842193604,0
-0.9378029108047485,2.8519554138183594,0.511792778968811,0
-0.46030497550964355,3.1728286743164062,3.2387049198150635,0
0.2828786373138428,2.9975194931030273,5.962521553039551,0
0.9370893239974976,2.314420700073242,6.261949062347412,0
1.56826651096344,1.5148162841796875,4.340723037719727,0
1.4715465307235718,0.6884765625,1.6768759489059448,0
1.1525858640670776,0.07535362243652344,-0.43793725967407227,0
0.7221391201019287,-0.408050537109375,-1.789659023284912,0
0.4944092035293579,-0.6803693771362305,-2.576420307159424,0
0.28380370140075684,-0.8541269302368164,-2.8849802017211914,0
0.16359740495681763,-0.8982858657836914,-2.7916884422302246,0
0.07569652795791626,-0.9731101989746094,-2.518670082092285,0
-0.12440264225006104,-1.0282459259033203,-2.2739009857177734,0
-0.4359753131866455,-1.1736259460449219,-2.1293892860412598,0
-0.8351589441299438,-1.253666877746582,-2.258141040802002,0
-1.1548808813095093,-1.3664512634277344,-2.342987298965454,0
-1.4001489877700806,-1.4449529647827148,-2.430568218231201,0
-1.5134837627410889,-1.603999137878418,-2.3394274711608887,0
-1.566333293914795,-1.8267693519592285,-2.050398826599121,0
-1.5369960069656372,-2.0367231369018555,-1.5366730690002441,0
-1.511439561843872,-2.250673770904541,-0.9361183047294617,0
-1.4776067733764648,-2.4543166160583496,-0.3338569402694702,0
-1.4117074012756348,-2.4803056716918945,0.05056405067443848,0
-1.2661097049713135,-2.474712371826172,0.2532068192958832,0
-1.1199102401733398,-2.239091396331787,0.2046891152858734,0
-0.9688347578048706,-2.058297634124756,0.07500377297401428,0
-0.7657521963119507,-1.7960262298583984,-0.1307828277349472,0
-0.5496011972427368,-1.526559829711914,-0.33568620681762695,0
-0.2777944803237915,-1.2427635192871094,-0.5731050968170166,0
0.03010845184326172,-0.8825149536132812,-0.7542458772659302,0
0.30453866720199585,-0.7232894897460938,-0.8596435189247131,0
0.6507381796836853,-0.6165637969970703,-0.8630749583244324,0
0.9346517324447632,-0.5000896453857422,-0.7551636099815369,0
1.2594131231307983,-0.4503459930419922,-0.5767788290977478,0
1.4554166793823242,-0.41698741912841797,-0.36397525668144226,0
1.5827291011810303,-0.5027732849121094,-0.16473877429962158,0
1.6006511449813843,-0.6334295272827148,-0.02950015664100647,0
1.5498745441436768,-0.6223955154418945,0.04868042469024658,0
1.3822163343429565,-0.7281398773193359,0.08649590611457825,0
1.222010850906372,-0.8357648849487305,0.1291700005531311,0
1.1075937747955322,-0.9189548492431641,0.18368396162986755,0
1.0773487091064453,-1.044663429260254,0.2835027873516083,0
1.0382260084152222,-1.2008304595947266,0.3448939025402069,0
0.990524172782898,-1.272587776184082,0.4253021478652954,0
0.8794830441474915,-1.3125905990600586,0.594221830368042,0
0.6668838262557983,-1.2060823440551758,0.8326301574707031,0
0.5589965581893921,-1.2329282760620117,1.0395973920822144,0
0.36724352836608887,-1.105966567993164,1.2672703266143799,0
0.1205744743347168,-0.6364936828613281,1.4839203357696533,0
-0.2671549320220947,-0.11675071716308594,1.693326711654663,0
-0.5018208026885986,0.3550291061401367,1.915822982788086,0
-0.6629065275192261,0.7069635391235352,2.0640058517456055,0
-0.6767946481704712,0.95330810546875,2.1509604454040527,0
-0.517524003982544,0.9649009704589844,2.137507915496826,0
-0.21680760383605957,0.8733892440795898,2.0999608039855957,0
0.0857381820678711,0.8126935958862305,1.9865832328796387,0
0.532808780670166,0.7994527816772461,1.7868517637252808,0
1.0926308631896973,0.7499113082885742,1.509371042251587,0
1.625974416732788,0.7621536254882812,1.3132941722869873,0
2.1970980167388916,0.9102029800415039,1.2711451053619385,0
2.7575345039367676,1.1004886627197266,1.3877826929092407,0
3.323294162750244,1.4212160110473633,1.612874984741211,0
3.9654784202575684,1.9462242126464844,2.018798589706421,0
4.4366888999938965,2.5674524307250977,2.419802665710449,0
4.70464563369751,3.0620784759521484,2.4436757564544678,0
4.792359352111816,3.169276237487793,2.167202949523926,0
4.78510856628418,3.106675148010254,1.505525827407837,0
4.8000054359436035,2.804928779602051,0.8900952935218811,0
5.012395858764648,2.47725772857666,0.5778430700302124,0
5.138439178466797,2.4825639724731445,0.2828962802886963,0
5.29695463180542,2.459819793701172,0.1270102858543396,0
5.367625713348389,2.4909191131591797,0.11323630809783936,0
5.452657222747803,2.717426300048828,0.13482004404067993,0
5.551482200622559,3.0511770248413086,0.3144984543323517,0
5.4719438552856445,3.5234603881835938,0.4267977178096771,0
5.217404365539551,4.141298294067383,0.39316442608833313,0
4.656505107879639,4.662808418273926,0.23221397399902344,0
4.097501754760742,4.982669830322266,0.12758702039718628,0
3.441364288330078,5.034052848815918,0.21875828504562378,0
2.864006519317627,4.860369682312012,0.4509847164154053,0
2.3474252223968506,4.505086898803711,0.9338316321372986,0
1.4900250434875488,4.066407203674316,1.6129851341247559,0
-0.07983565330505371,3.6611366271972656,2.355185031890869,0
-1.7714307308197021,3.1692800521850586,3.071063995361328,0
-3.0262303352355957,2.6818246841430664,3.508551597595215,0
-3.7623953819274902,2.359518051147461,3.641157865524292,0
-4.071581840515137,2.150454521179199,3.532973527908325,0
-4.42352294921875,2.1534385681152344,3.1369333267211914,0
-4.572619915008545,2.3092899322509766,2.5249671936035156,0
-4.596258163452148,2.4966297149658203,1.8279039859771729,0
-4.542394638061523,2.6896533966064453,1.3458620309829712,0
-4.614317417144775,2.9410266876220703,1.019301176071167,0
-4.539445877075195,2.963320732116699,0.7987381219863892,0
-4.330067157745361,2.9426145553588867,0.5237427949905396,0
-4.044097423553467,2.796891212463379,-0.0012971162796020508,0
-3.682586669921875,2.664400100708008,-0.8069024682044983,0
-3.4177768230438232,2.6355934143066406,-1.6360328197479248,0
-3.346311330795288,2.604884147644043,-2.4883997440338135,0
-3.4942400455474854,2.5816574096679688,-3.3350119590759277,0
-3.6077988147735596,2.5994396209716797,-4.118688583374023,0
-3.768524646759033,2.440993309020996,-4.747502326965332,0
-3.924248456954956,2.16208553314209,-5.0817975997924805,0
-3.9411752223968506,1.8780279159545898,-5.111917018890381,0
-3.6201071739196777,1.7253570556640625,-4.683229446411133,0
-2.425018310546875,1.5702238082885742,-3.8867790699005127,0
-0.9867621660232544,1.3578777313232422,-2.7202651500701904,0
0.30782657861709595,1.286787986755371,-1.2449549436569214,0
1.2854074239730835,1.251230239868164,0.2994251251220703,0
2.000156879425049,1.27227783203125,1.4628031253814697,0
2.591212034225464,1.554966926574707,2.1112420558929443,0
2.7997775077819824,1.5866317749023438,2.4670662879943848,0
2.6202988624572754,1.613297462463379,2.4265146255493164,0
2.2424466609954834,1.6177291870117188,2.117497682571411,0
1.6077080965042114,1.4943199157714844,1.6485037803649902,0
0.7362838983535767,1.350738525390625,0.8735537528991699,0
0.0628904402256012,1.0962762832641602,0.048018693923950195,0
-0.45818400382995605,0.7289066314697266,-0.7932450771331787,0
-0.7092912197113037,0.39481353759765625,-1.5220568180084229,0
-0.8192144632339478,-0.03275489807128906,-2.107937812805176,0
-1.1375384330749512,-0.8525762557983398,-2.4388742446899414,0
-0.990196943283081,-1.1294183731079102,-2.754430055618286,0
-1.0128726959228516,-1.5575857162475586,-3.02109694480896,0
-1.1500260829925537,-2.0077948570251465,-3.32293438911438,0
-1.3543336391448975,-2.5133066177368164,-3.605503797531128,0
-1.6669306755065918,-3.066591739654541,-3.9150514602661133,0
-1.9138747453689575,-3.5860047340393066,-4.173323631286621,0
-2.2060365676879883,-4.030741214752197,-4.395116806030273,0
-2.517871379852295,-4.434159755706787,-4.623887062072754,0
-2.83070707321167,-4.702870845794678,-4.797815322875977,0
-3.154660701751709,-4.958731651306152,-4.931794166564941,0
-3.506955146789551,-5.103562355041504,-5.040447235107422,0
-3.7779126167297363,-4.998837471008301,-5.080586910247803,0
-4.022954940795898,-4.826814651489258,-5.058836936950684,0
-4.1799492835998535,-4.5328450202941895,-4.9866042137146,0
-4.077884197235107,-4.189172267913818,-4.875463485717773,0
-3.736764907836914,-3.947096347808838,-4.5620622634887695,0
-3.399203300476074,-3.759402275085449,-4.09575891494751,0
-2.984963893890381,-3.7033634185791016,-3.48738169670105,0
-2.6326751708984375,-3.695897102355957,-2.747579336166382,0
-2.3765177726745605,-3.735140323638916,-2.0521087646484375,0
-2.1793079376220703,-3.8763489723205566,-1.502837896347046,0
-2.09017014503479,-4.109915256500244,-1.1397464275360107,0
-1.95203697681427,-4.421408653259277,-0.8379786014556885,0
-1.7676336765289307,-4.7102837562561035,-0.6284596920013428,0
-1.4936860799789429,-4.971822738647461,-0.44640564918518066,0
-1.237039566040039,-5.198892593383789,-0.3037726879119873,0
-1.003778100013733,-5.384276390075684,-0.1911625862121582,0
-0.7832245230674744,-5.539824485778809,-0.10884356498718262,0
-0.6725391149520874,-5.6533637046813965,-0.02608942985534668,0
-0.6756372451782227,-5.736501216888428,0.022991180419921875,0
-0.7630513906478882,-5.781681537628174,0.0880439281463623,0
-0.9510180354118347,-5.786046504974365,0.1635270118713379,0
-1.1366225481033325,-5.6175384521484375,0.2677192687988281,0
-1.329693078994751,-5.424023628234863,0.45955657958984375,0
-1.4720960855484009,-5.398492813110352,0.5940530300140381,0
-1.546655535697937,-5.238923072814941,0.7325143814086914,0
-1.4170820713043213,-4.722704887390137,0.8242332935333252,0
-1.3343088626861572,-4.290011405944824,0.8931093215942383,0
-1.0835764408111572,-3.5148844718933105,0.9488871097564697,0
-0.5732053518295288,-2.308835983276367,0.8668391704559326,0
-0.02637644112110138,-0.8965435028076172,0.7680037021636963,0
0.4612043499946594,0.4975547790527344,0.8278803825378418,0
0.8956332802772522,2.4719457626342773,0.8163409233093262,0
1.3221920728683472,4.598541259765625,0.9595723152160645,0
1.5147087574005127,6.906496047973633,1.269850492477417,0
1.6410664319992065,9.498815536499023,1.8743698596954346,0
1.5985989570617676,12.25296688079834,2.79951548576355,0
1.718808650970459,14.6797513961792,4.286380767822266,0
2.206951141357422,16.115148544311523,6.676185607910156,0
2.9256091117858887,15.092597007751465,9.060403823852539,0
3.6602861881256104,12.013477325439453,10.279632568359375,0
4.092567443847656,8.654583930969238,9.987186431884766,0
3.9477381706237793,6.166913986206055,8.556729316711426,0
3.781369209289551,4.683730125427246,6.689186096191406,0
3.6114041805267334,3.761786460876465,4.728432655334473,0
3.0278267860412598,3.1714181900024414,2.681851387023926,0
2.148916482925415,2.955887794494629,0.7043650150299072,0
0.8977569341659546,3.040907859802246,-0.8592811822891235,0
-0.5551074147224426,3.3063812255859375,-1.935439109802246,0
-1.9923646450042725,3.6200075149536133,-2.5538907051086426,0
-3.201582908630371,3.830267906188965,-2.8268589973449707,0
-4.103639125823975,3.7786808013916016,-2.926198720932007,0
-4.618563652038574,3.5845470428466797,-2.928811550140381,0
-4.883355617523193,3.2669553756713867,-2.8005871772766113,0
-5.18095588684082,2.9937095642089844,-2.825019598007202,0
-5.648693084716797,2.3757123947143555,-2.8589389324188232,0
-6.181517124176025,1.1301069259643555,-2.80465030670166,0
-6.760971546173096,-0.40599536895751953,-2.630563735961914,0
-7.234249591827393,-1.9179019927978516,-2.1284332275390625,0
-7.238431453704834,-3.016618251800537,-1.2757506370544434,0
-6.373800754547119,-3.5833444595336914,-0.16352605819702148,0
-4.419429779052734,-3.6477913856506348,0.7734761238098145,0
-1.7165156602859497,-3.678192138671875,0.6981154680252075,0
0.6668387055397034,-3.8846797943115234,-0.4556494951248169,0
2.062467575073242,-4.114809989929199,-2.3746745586395264,0
2.600130558013916,-4.235266208648682,-4.413072109222412,0
2.426269292831421,-4.1324005126953125,-6.128120422363281,0
1.8691455125808716,-3.858015537261963,-7.227771759033203,0
1.2838846445083618,-3.4067859649658203,-7.68267297744751,0
0.8049597144126892,-2.945779323577881,-7.525227069854736,0
0.452007532119751,-2.520199775695801,-6.982327938079834,0
0.3291762173175812,-2.118130683898926,-6.229963302612305,0
0.13439783453941345,-1.6706171035766602,-5.344814777374268,0
-0.19982165098190308,-1.2380199432373047,-4.3396453857421875,0
-0.5115645527839661,-0.7659053802490234,-3.169156789779663,0
-0.9790989756584167,-0.38890743255615234,-1.7973146438598633,0
-1.479153037071228,0.011858940124511719,-0.32907676696777344,0
-1.9910995960235596,0.4282674789428711,1.0808223485946655,0
-2.8437998294830322,0.9522676467895508,2.6595773696899414,0
-3.638880491256714,1.4222602844238281,3.8731842041015625,0
-3.8267781734466553,1.7469358444213867,3.885401725769043,0
-3.5754172801971436,2.0918283462524414,2.8631296157836914,0
-3.0400795936584473,1.9748592376708984,1.1590197086334229,0
-2.4543535709381104,1.5100526809692383,-0.5572700500488281,0
-1.963029384613037,1.0957422256469727,-2.0878398418426514,0
-1.495787501335144,0.7038402557373047,-3.2410197257995605,0
-1.0064371824264526,0.43751049041748047,-3.874142646789551,0
-0.6429964900016785,0.31111621856689453,-4.252768516540527,0
-0.2808034420013428,0.21215248107910156,-4.481319427490234,0
-0.015347719192504883,0.0927419662475586,-4.546415328979492,0
0.182364821434021,-0.02804088592529297,-4.501028060913086,0
0.3245927095413208,-0.17661285400390625,-4.2898759841918945,0
0.4667336940765381,-0.38176727294921875,-3.9624292850494385,0
0.7026216983795166,-0.7153358459472656,-3.2945151329040527,0
1.0380016565322876,-1.143803596496582,-2.628655433654785,0
1.0070558786392212,-1.4543752670288086,-1.9602043628692627,0
0.8589836955070496,-1.7381820678710938,-1.2465448379516602,0
0.6584433913230896,-1.952291488647461,-0.5508115291595459,0
0.3452017903327942,-2.0705199241638184,-0.0587691068649292,0
0.15846025943756104,-2.0498690605163574,0.24872934818267822,0
-0.023935914039611816,-1.9501714706420898,0.3949928283691406,0
-0.14920592308044434,-1.809633731842041,0.3981400430202484,0
-0.1500285267829895,-1.6735725402832031,0.3550022542476654,0
-0.23961013555526733,-1.5730047225952148,0.2955683469772339,0
-0.24367058277130127,-1.4480953216552734,0.21671566367149353,0
-0.18909943103790283,-1.284555435180664,0.08693179488182068,0
-0.031207680702209473,-1.0657634735107422,-0.11060592532157898,0
0.18905514478683472,-0.9161567687988281,-0.3495456278324127,0
0.41630280017852783,-0.8333053588867188,-0.5196072459220886,0
0.5427456498146057,-0.7286872863769531,-0.5702847242355347,0
0.5899072289466858,-0.6597452163696289,-0.45788058638572693,0
0.6201979517936707,-0.6192331314086914,-0.21521881222724915,0
0.6338712573051453,-0.6979265213012695,0.057595569640398026,0
0.5213136672973633,-0.7712631225585938,0.22432921826839447,0
0.4840138554573059,-0.8511075973510742,0.3757821321487427,0
0.450533390045166,-0.9445438385009766,0.49482977390289307,0
0.4379693269729614,-1.0538702011108398,0.607338547706604,0
0.47788006067276,-1.1048612594604492,0.6743884086608887,0
0.6066148281097412,-1.1668615341186523,0.685533881187439,0
0.7287144660949707,-1.1537466049194336,0.6663407683372498,0
0.8082696795463562,-1.1612653732299805,0.7122097015380859,0
0.8259531855583191,-1.03875732421875,0.7707712650299072,0
0.9299585819244385,-1.0709352493286133,0.7654406428337097,0
1.103285312652588,-1.0280332565307617,0.8832470774650574,0
1.1254994869232178,-0.9436197280883789,1.002685785293579,0
1.1611895561218262,-0.7819375991821289,1.167034387588501,0
1.080702543258667,-0.4762239456176758,1.3043224811553955,0
0.7782000303268433,-0.11297893524169922,1.3967864513397217,0
0.3293572664260864,0.25951290130615234,1.4668570756912231,0
-0.07752037048339844,0.4543123245239258,1.4910218715667725,0
-0.33274245262145996,0.5095386505126953,1.5508840084075928,0
-0.38378024101257324,0.44428157806396484,1.6905238628387451,0
-0.2884204387664795,0.41639232635498047,1.921919345855713,0
-0.0330507755279541,0.3277244567871094,2.1840615272521973,0
0.5301187038421631,0.2740650177001953,2.2586796283721924,0
1.2789045572280884,0.5280914306640625,2.1473641395568848,0
2.0842177867889404,0.7476205825805664,1.956507682800293,0
2.819014072418213,1.0235223770141602,1.7058844566345215,0
3.4035611152648926,1.3746576309204102,1.4918792247772217,0
3.9925365447998047,1.8916244506835938,1.4757472276687622,0
4.347726821899414,2.3563032150268555,1.354735016822815,0
4.5755157470703125,2.5029783248901367,1.089137077331543,0
4.512611389160156,2.348552703857422,0.7679938673973083,0
4.5320234298706055,2.132328987121582,0.3547952175140381,0
4.557186126708984,1.792048454284668,-0.018402159214019775,0
4.629115104675293,1.495152473449707,-0.37796515226364136,0
4.768339157104492,1.3399219512939453,-0.5103512406349182,0
4.966707229614258,1.4963722229003906,-0.5718395709991455,0
5.103716850280762,1.7925491333007812,-0.34838569164276123,0
5.091789722442627,2.3171768188476562,-0.18776291608810425,0
4.9314470291137695,3.08695125579834,-0.22258931398391724,0
4.727940559387207,3.876811981201172,-0.5411846041679382,0
4.440011024475098,4.633969306945801,-0.8452129364013672,0
4.167845726013184,5.243599891662598,-0.892189085483551,0
4.0407304763793945,5.780082702636719,-0.6000415682792664,0
4.042726039886475,6.131443977355957,0.0828171968460083,0
4.14483642578125,6.288984298706055,1.099028468132019,0
3.843337059020996,6.415866851806641,2.1213173866271973,0
1.6286635398864746,6.5497589111328125,3.032447338104248,0
-0.7706429958343506,6.29292106628418,3.633297920227051,0
-2.636962413787842,5.538081169128418,3.9468390941619873,0
-3.5564112663269043,4.468111038208008,3.971914529800415,0
-4.101731777191162,3.6341934204101562,3.7864482402801514,0
-4.5319390296936035,3.256807327270508,3.433077335357666,0
-4.867221832275391,3.218891143798828,2.8742637634277344,0
-4.984150409698486,3.2886829376220703,2.2982349395751953,0
-5.005232810974121,3.2967939376831055,1.754887342453003,0
-4.954429626464844,3.2651376724243164,1.3475501537322998,0
-4.7286696434021,3.1746788024902344,1.1012661457061768,0
-4.476118087768555,2.943920135498047,0.7973525524139404,0
-4.0701117515563965,2.4721336364746094,0.33361268043518066,0
-3.6240954399108887,1.95751953125,-0.35030585527420044,0
-3.3101601600646973,1.5334806442260742,-1.0578110218048096,0
-2.9691622257232666,1.1348752975463867,-1.744122862815857,0
-2.6777796745300293,0.7469158172607422,-2.3719706535339355,0
-2.671584129333496,0.47925567626953125,-2.9833760261535645,0
-2.830254077911377,0.34344482421875,-3.450604200363159,0
-2.985860824584961,0.22445106506347656,-3.8449044227600098,0
-3.1375627517700195,0.19895648956298828,-4.039771556854248,0
-2.8023362159729004,0.25069427490234375,-4.096228122711182,0
-1.6958240270614624,0.38046932220458984,-4.005867004394531,0
-0.657507598400116,0.5411262512207031,-3.55789852142334,0
0.1270865797996521,0.7690238952636719,-2.772120952606201,0
0.9449875354766846,1.1719160079956055,-1.6523540019989014,0
1.816359281539917,1.4432792663574219,-0.20070600509643555,0
2.552259922027588,1.7762155532836914,1.1394078731536865,0
3.0276529788970947,2.0213212966918945,2.1521291732788086,0
2.895145893096924,2.1657800674438477,2.5797412395477295,0
2.1667656898498535,2.2091856002807617,2.447460412979126,0
1.2141363620758057,2.060481071472168,1.9855327606201172,0
0.38957175612449646,1.8082122802734375,1.390171766281128,0
-0.14342373609542847,1.3996973037719727,0.7715744972229004,0
-0.5296168327331543,0.9807834625244141,0.12752628326416016,0
-0.9376108646392822,0.3793525695800781,-0.5041444301605225,0
-1.0652492046356201,0.023746490478515625,-1.1888513565063477,0
-1.227658987045288,-0.4187479019165039,-1.6351832151412964,0
-1.344714641571045,-0.9024362564086914,-2.047697067260742,0
-1.5353670120239258,-1.3790655136108398,-2.4495046138763428,0
-1.7605457305908203,-1.8530845642089844,-2.7702808380126953,0
-1.8614716529846191,-2.2072644233703613,-2.982074022293091,0
-2.0269997119903564,-2.568516731262207,-3.1593103408813477,0
-2.176041841506958,-2.9511642456054688,-3.292635440826416,0
-2.486193895339966,-3.3741955757141113,-3.4804303646087646,0
-2.812014102935791,-3.7299084663391113,-3.662945032119751,0
-3.1088433265686035,-4.006484508514404,-3.83512020111084,0
-3.4279210567474365,-4.211212635040283,-3.977593421936035,0
-3.8059592247009277,-4.377628803253174,-4.090277194976807,0
-4.037639617919922,-4.508091926574707,-4.211600303649902,0
-4.235889434814453,-4.5666327476501465,-4.267721652984619,0
-4.384270191192627,-4.507882595062256,-4.215680122375488,0
-4.379981994628906,-4.33208703994751,-4.036250114440918,0
-4.100136756896973,-4.151890277862549,-3.861159563064575,0
-3.6057238578796387,-3.955667018890381,-3.589675188064575,0
-3.1733875274658203,-3.719985008239746,-3.144636631011963,0
-2.7879910469055176,-3.5769171714782715,-2.6640076637268066,0
-2.4587793350219727,-3.467195510864258,-2.038902521133423,0
-2.142517328262329,-3.381742000579834,-1.5289981365203857,0
-1.8513514995574951,-3.4045820236206055,-1.1619901657104492,0
-1.6695234775543213,-3.488015651702881,-0.9273891448974609,0
-1.5572948455810547,-3.6368565559387207,-0.702505350112915,0
-1.5008512735366821,-3.8461952209472656,-0.5517580509185791,0
-1.3589469194412231,-4.096774101257324,-0.477508544921875,0
-1.1909834146499634,-4.3525309562683105,-0.46567726135253906,0
-0.9221148490905762,-4.615670680999756,-0.4497189521789551,0
-0.6856768131256104,-4.87883996963501,-0.4133107662200928,0
-0.5120181441307068,-5.139591217041016,-0.34699463844299316,0
-0.31434017419815063,-5.390596389770508,-0.2630324363708496,0
-0.2956457734107971,-5.375790119171143,-0.24541950225830078,0
-0.46975982189178467,-5.5327558517456055,-0.22762060165405273,0
-0.6061297059059143,-5.961173057556152,-0.2969191074371338,0
-0.8104343414306641,-5.964409828186035,-0.3319871425628662,0
-1.054611325263977,-5.604761600494385,-0.22334742546081543,0
-1.1773548126220703,-5.699975490570068,-0.185197114944458,0
-1.214059591293335,-5.428915023803711,-0.13950514793395996,0
-1.1241605281829834,-4.712907791137695,-0.01954483985900879,0
-0.9742391109466553,-3.9659461975097656,0.09298253059387207,0
-0.6093027591705322,-2.867391586303711,0.12136602401733398,0
-0.24198713898658752,-1.460317611694336,0.14656710624694824,0
0.18212750554084778,0.18365764617919922,0.06961202621459961,0
0.3385426700115204,1.7755050659179688,0.07304263114929199,0
0.724632740020752,3.77744197845459,-0.0015189647674560547,0
0.9137060046195984,5.677867889404297,0.11059188842773438,0
1.0529953241348267,7.682955741882324,0.4084742069244385,0
1.1467044353485107,9.797408103942871,1.0836679935455322,0
1.2878814935684204,11.709966659545898,2.3193323612213135,0
1.51093327999115,13.187987327575684,4.186868667602539,0
2.1017162799835205,13.302321434020996,7.290593147277832,0
2.5089569091796875,11.218164443969727,10.424752235412598,0
2.8396263122558594,8.206785202026367,12.281401634216309,0
2.8137004375457764,5.641909599304199,12.130414962768555,0
2.547529935836792,4.051947593688965,10.704160690307617,0
2.3896851539611816,3.252020835876465,8.667486190795898,0
2.260411500930786,2.736935615539551,6.531835556030273,0
2.0250227451324463,2.2844791412353516,4.307395935058594,0
1.821828842163086,1.9312744140625,2.1654000282287598,0
1.4344640970230103,1.8478975296020508,0.28344011306762695,0
0.8683123588562012,2.087240219116211,-1.1838898658752441,0
0.2524759769439697,2.675018310546875,-2.021404981613159,0
-0.4748702943325043,3.5572996139526367,-2.3865954875946045,0
-0.9106099605560303,4.301887512207031,-2.4752964973449707,0
-1.0362749099731445,4.756587028503418,-2.431736469268799,0
-1.1986732482910156,5.190340995788574,-2.2401716709136963,0
-1.6128883361816406,5.4062347412109375,-2.224622964859009,0
-2.014218330383301,5.082038879394531,-2.624423027038574,0
-2.7857675552368164,4.643159866333008,-3.1164917945861816,0
-3.7509496212005615,3.6427040100097656,-3.4880049228668213,0
-4.706058502197266,1.9738073348999023,-3.656589984893799,0
-5.112908363342285,-0.33359718322753906,-3.5290591716766357,0
-5.055974006652832,-2.5323257446289062,-2.9904909133911133,0
-4.49833869934082,-4.076694011688232,-2.660696029663086,0
-3.706531524658203,-5.104287624359131,-2.7126035690307617,0
-2.8310108184814453,-5.785033226013184,-3.1015400886535645,0
-1.9268970489501953,-6.13265323638916,-3.810636281967163,0
-1.2678288221359253,-6.230161666870117,-4.594965934753418,0
-0.9384009838104248,-6.010009765625,-5.35856819152832,0
-0.870776355266571,-5.593880653381348,-5.943145275115967,0
-0.7710874080657959,-5.101208686828613,-6.208329677581787,0
-0.7083185315132141,-4.512876510620117,-6.2696332931518555,0
-0.6922950148582458,-3.8243165016174316,-6.21817684173584,0
-0.809914231300354,-3.0979480743408203,-6.147997856140137,0
-1.0795838832855225,-2.4223928451538086,-6.013598918914795,0
-1.6017961502075195,-1.5514802932739258,-5.744888782501221,0
-2.272027015686035,-0.6077756881713867,-5.134580612182617,0
-2.8613178730010986,0.4222221374511719,-4.081165313720703,0
-3.824903726577759,1.4866456985473633,-1.613004207611084,0
-4.79469108581543,2.6695175170898438,1.5181872844696045,0
-5.314321517944336,3.6797637939453125,3.797149658203125,0
-4.836235523223877,4.275724411010742,4.350235462188721,0
-3.6925830841064453,4.152585983276367,3.6825475692749023,0
-2.7121047973632812,3.2525529861450195,2.70999813079834,0
-2.169675350189209,2.029512405395508,1.8143815994262695,0
-1.6140180826187134,0.8577442169189453,0.6486519575119019,0
-0.855400800704956,-0.08997821807861328,-0.40660327672958374,0
0.007000565528869629,-0.7776117324829102,-1.2558584213256836,0
0.7374104261398315,-1.1215009689331055,-1.9245669841766357,0
1.0274955034255981,-1.2056970596313477,-2.2431232929229736,0
0.9261796474456787,-1.128727912902832,-2.2155003547668457,0
0.5097910761833191,-1.0201911926269531,-2.0626518726348877,0
-0.05224609375,-0.9712285995483398,-1.926393747329712,0
-0.4439220428466797,-0.9579324722290039,-1.9250918626785278,0
-0.5538476705551147,-0.9777736663818359,-2.031477451324463,0
-0.5743409395217896,-0.9875516891479492,-2.185006618499756,0
-0.6241467595100403,-1.0948209762573242,-2.3205461502075195,0
-0.7295888662338257,-1.1249446868896484,-2.325160503387451,0
-0.8338768482208252,-1.1737537384033203,-2.128906011581421,0
-0.7656336426734924,-1.301100730895996,-1.82188880443573,0
-0.5880260467529297,-1.3443803787231445,-1.448648452758789,0
-0.33756744861602783,-1.451991081237793,-1.0347028970718384,0
0.023601293563842773,-1.573648452758789,-0.7185375690460205,0
0.41372668743133545,-1.6543302536010742,-0.48380589485168457,0
0.6629019379615784,-1.5960264205932617,-0.3025485873222351,0
0.9291519522666931,-1.5901622772216797,-0.18077200651168823,0
0.9374910593032837,-1.4238557815551758,0.005226681008934975,0
0.8508577942848206,-1.0470924377441406,0.28380557894706726,0
0.6982923150062561,-0.6083593368530273,0.5449531078338623,0
0.5399935841560364,-0.2894124984741211,0.7149045467376709,0
0.36410951614379883,-0.10203933715820312,0.7222403287887573,0
0.38356339931488037,-0.07474708557128906,0.5430951714515686,0
0.4381885528564453,-0.13077831268310547,0.24440796673297882,0
0.5185537934303284,-0.24848175048828125,-0.07106320559978485,0
0.4903911352157593,-0.4278078079223633,-0.22858834266662598,0
0.3698752522468567,-0.47028636932373047,-0.3093273341655731,0
0.06318771839141846,-0.35464000701904297,-0.3871951401233673,0
0.25979089736938477,-0.3152914047241211,-0.3518870770931244,0
0.4022923707962036,-0.3688087463378906,-0.24879249930381775,0
0.488603413105011,-0.3835124969482422,-0.13780349493026733,0
0.5547751784324646,-0.4454917907714844,0.09581047296524048,0
0.612846851348877,-0.6646566390991211,0.38711461424827576,0
0.7515183687210083,-0.7945060729980469,0.6087028384208679,0
0.8010836243629456,-0.9379796981811523,0.8052005767822266,0
0.771040678024292,-1.090341567993164,0.9903449416160583,0
0.756702184677124,-0.9288501739501953,1.15935480594635,0
0.7794255018234253,-0.9608430862426758,1.2953886985778809,0
0.7745198011398315,-0.889582633972168,1.3437201976776123,0
0.8039932250976562,-0.6888751983642578,1.4485681056976318,0
0.6591681241989136,-0.28240108489990234,1.5079429149627686,0
0.6148374080657959,0.1813220977783203,1.5967116355895996,0
0.6371890306472778,0.7069883346557617,1.6312892436981201,0
0.7022155523300171,1.1175193786621094,1.5824682712554932,0
0.7450675964355469,1.1833620071411133,1.5353622436523438,0
1.0434952974319458,1.0531129837036133,1.433603048324585,0
1.291233777999878,0.8153257369995117,1.3020596504211426,0
1.514540195465088,0.5369396209716797,1.1781680583953857,0
1.7394717931747437,0.2896127700805664,1.0712194442749023,0
1.8842823505401611,0.1927490234375,1.0101377964019775,0
2.025484085083008,0.11219978332519531,0.9613542556762695,0
2.3619513511657715,0.16752147674560547,0.9101191163063049,0
2.6879093647003174,0.40157318115234375,0.9136199951171875,0
3.0078492164611816,0.6993026733398438,0.9911922812461853,0
3.49552059173584,1.007986068725586,1.278143286705017,0
3.934389114379883,1.425553321838379,1.5201960802078247,0
4.37839412689209,1.968435287475586,1.4389541149139404,0
4.6351189613342285,2.208219528198242,1.0618633031845093,0
4.70350456237793,2.398374557495117,0.6260932683944702,0
4.80303955078125,2.3473615646362305,0.2839014530181885,0
4.878424644470215,2.0791826248168945,0.179864764213562,0
5.030623912811279,1.775832176208496,0.44625985622406006,0
5.365673065185547,1.602421760559082,0.6336812973022461,0
5.798956871032715,1.487502098083496,1.038346529006958,0
6.183670520782471,1.5463409423828125,1.4530431032180786,0
6.222161293029785,1.8796358108520508,1.7860829830169678,0
6.056662082672119,2.348647117614746,1.9140205383300781,0
5.584810733795166,2.8002119064331055,1.9061086177825928,0
5.04622220993042,3.3275489807128906,1.832934856414795,0
4.343239784240723,3.834855079650879,1.8094723224639893,0
3.720238208770752,4.164278030395508,1.6511552333831787,0
2.945072650909424,4.155769348144531,1.3675121068954468,0
2.421571969985962,3.8743085861206055,0.9067469835281372,0
1.6100711822509766,3.4349632263183594,0.3643551766872406,0
1.2773975133895874,3.02219295501709,-0.0887250304222107,0
1.0631226301193237,2.650479316711426,-0.20186248421669006,0
0.7410029172897339,2.1261987686157227,0.10192865133285522,0
0.450996994972229,1.633681297302246,0.749119758605957,0
-0.2649836540222168,1.074742317199707,1.5861185789108276,0
-1.1400156021118164,0.5664920806884766,2.413951873779297,0
-2.1294925212860107,0.2739534378051758,2.983341932296753,0
-3.1690754890441895,0.5153779983520508,3.2591331005096436,0
-4.055521011352539,1.2956666946411133,3.4032609462738037,0
-4.6758809089660645,2.2755937576293945,3.3912181854248047,0
-4.787225723266602,3.032628059387207,3.2780938148498535,0
-4.937971115112305,3.5508975982666016,3.087641716003418,0
-5.02025842666626,3.8906373977661133,2.731933832168579,0
-5.009687423706055,4.003965377807617,2.381446361541748,0
-4.930269241333008,3.9455299377441406,1.719809889793396,0
-4.852079391479492,3.9443607330322266,0.6635726690292358,0
-4.853439807891846,4.0449934005737305,-0.5153394937515259,0
-4.762338638305664,4.188982009887695,-1.7868916988372803,0
-4.47839879989624,4.454424858093262,-2.9328229427337646,0
-4.262417316436768,4.625412940979004,-3.874485731124878,0
-3.994070053100586,4.711315155029297,-4.531522750854492,0
-3.6273794174194336,4.635688781738281,-4.807811737060547,0
-3.39465594291687,4.442011833190918,-4.785204887390137,0
-3.1609764099121094,4.212241172790527,-4.574976921081543,0
-2.760258913040161,3.693692207336426,-4.257730960845947,0
-1.8230825662612915,2.952122688293457,-3.7247209548950195,0
-0.5245605111122131,2.285215377807617,-2.96968150138855,0
0.45562857389450073,1.8395967483520508,-2.0094637870788574,0
1.3778842687606812,1.713547706604004,-0.9619215726852417,0
2.2200639247894287,1.6198596954345703,0.07829642295837402,0
3.055433750152588,1.4866352081298828,0.9285299777984619,0
3.7454683780670166,1.2583427429199219,1.5289428234100342,0
4.252849102020264,0.9032440185546875,1.8029546737670898,0
4.37975549697876,0.7219810485839844,1.7428834438323975,0
4.386713981628418,0.4312419891357422,1.5492141246795654,0
4.037404537200928,0.21663379669189453,1.2240478992462158,0
3.0728423595428467,0.14901351928710938,0.7091968059539795,0
2.099879026412964,0.06760978698730469,0.09857606887817383,0
1.2710806131362915,-0.053879737854003906,-0.5796449184417725,0
0.70135498046875,-0.19388675689697266,-1.1898653507232666,0
-0.019146084785461426,-0.5675210952758789,-1.6203229427337646,0
-0.27740317583084106,-0.7678089141845703,-2.11630916595459,0
-0.5201764702796936,-0.9482641220092773,-2.4410200119018555,0
-0.773145318031311,-0.7912807464599609,-2.658792495727539,0
-0.9796139001846313,-1.1532306671142578,-2.901479959487915,0
-1.4377659559249878,-1.617236614227295,-3.159579277038574,0
-1.6865108013153076,-1.7262778282165527,-3.4860329627990723,0
-2.2345118522644043,-2.0376663208007812,-3.8379435539245605,0
-2.750600814819336,-2.426396369934082,-4.203869342803955,0
-3.2621004581451416,-2.7915005683898926,-4.6324005126953125,0
-3.822657585144043,-3.1181583404541016,-5.074134349822998,0
-4.382809638977051,-3.492025852203369,-5.43907356262207,0
-4.876460552215576,-3.855225086212158,-5.754383563995361,0
-5.3261003494262695,-4.159535884857178,-6.01603889465332,0
-5.7946696281433105,-4.550480842590332,-6.239182472229004,0
-6.177602767944336,-4.793473720550537,-6.275729179382324,0
-6.482632160186768,-4.986672401428223,-6.192828178405762,0
-6.702927589416504,-5.139849662780762,-5.892125606536865,0
-6.315561294555664,-5.107664585113525,-5.5406341552734375,0
-5.480863571166992,-4.977267265319824,-5.070375442504883,0
-4.625424385070801,-4.902805328369141,-4.377010345458984,0
-3.8175909519195557,-4.8468523025512695,-3.7269628047943115,0
-3.196068048477173,-4.838862895965576,-3.073093891143799,0
-2.720639944076538,-4.898616790771484,-2.382699728012085,0
-2.300966262817383,-5.062468528747559,-1.7788231372833252,0
-1.9443187713623047,-5.2662529945373535,-1.2650325298309326,0
-1.5641446113586426,-5.479283332824707,-0.7997093200683594,0
-1.2218800783157349,-5.685142993927002,-0.4204525947570801,0
-1.0315120220184326,-5.855255126953125,-0.12692689895629883,0
-0.994331955909729,-5.953724384307861,0.06892800331115723,0
-1.0015501976013184,-6.05451774597168,0.21469449996948242,0
-1.0543047189712524,-6.135778427124023,0.3195052146911621,0
-1.225520372390747,-6.2448625564575195,0.4185750484466553,0
-1.464504599571228,-6.20893669128418,0.5565736293792725,0
-1.629669189453125,-6.208921432495117,0.6912388801574707,0
-1.8880116939544678,-6.21737003326416,0.8015563488006592,0
-2.0030508041381836,-5.998990058898926,0.9554424285888672,0
-2.256868600845337,-5.730157852172852,1.084489345550537,0
-2.396623373031616,-5.180755615234375,1.1999273300170898,0
-2.260930299758911,-4.264726161956787,1.3089652061462402,0
-2.1161186695098877,-3.1472911834716797,1.3639640808105469,0
-1.640869140625,-1.814192295074463,1.4179790019989014,0
-0.9986447691917419,-0.18656253814697266,1.4614229202270508,0
-0.3755243420600891,1.6998929977416992,1.3564932346343994,0
0.20951177179813385,3.5563249588012695,1.2051975727081299,0
0.7246896028518677,6.105928421020508,0.9903841018676758,0
1.076310634613037,9.260390281677246,0.880500316619873,0
1.1937427520751953,13.007640838623047,1.111259937286377,0
1.4334311485290527,16.438003540039062,2.2128777503967285,0
1.8623555898666382,18.52459144592285,3.9069104194641113,0
2.588681697845459,18.501697540283203,6.00828218460083,0
3.1573410034179688,14.289905548095703,7.739902496337891,0
3.3839776515960693,8.80591106414795,8.454913139343262,0
3.2711501121520996,4.989314079284668,8.55787181854248,0
3.0714735984802246,2.8086557388305664,8.160697937011719,0
2.9199323654174805,1.9097137451171875,7.346242427825928,0
2.865846872329712,1.5562305450439453,6.29477596282959,0
2.8512470722198486,1.3457508087158203,5.031329154968262,0
2.605005979537964,0.9940853118896484,3.5378992557525635,0
1.8117533922195435,0.5432014465332031,1.915954828262329,0
0.697655200958252,-0.11053180694580078,0.23424339294433594,0
-0.6161606311798096,-0.6236581802368164,-1.1250261068344116,0
-1.811737060546875,-1.002730369567871,-2.058305263519287,0
-2.7629430294036865,-1.2023544311523438,-2.3639285564422607,0
-3.349883556365967,-1.2592191696166992,-2.033494472503662,0
-3.6522154808044434,-1.1434125900268555,-1.1739169359207153,0
-3.7552056312561035,-0.7510347366333008,-0.16149425506591797,0
-3.85768461227417,0.021979331970214844,0.6078414916992188,0
-3.9155170917510986,1.0553083419799805,0.6889803409576416,0
-4.279363632202148,2.3371410369873047,-0.10030603408813477,0
-4.571278095245361,3.674616813659668,-1.4116387367248535,0
-4.961435794830322,4.825356483459473,-2.679507255554199,0
-5.396698474884033,5.650315284729004,-3.532423257827759,0
-5.661354064941406,6.115285873413086,-3.992830276489258,0
-5.460064888000488,5.938065528869629,-4.087527751922607,0
-4.566646575927734,4.865987777709961,-3.677597999572754,0
-2.887392520904541,3.215604782104492,-2.8538570404052734,0
-1.2953094244003296,1.234745979309082,-2.1561496257781982,0
0.05356597900390625,-0.6342535018920898,-1.8752624988555908,0
1.110936164855957,-2.214198589324951,-1.9898024797439575,0
1.7778148651123047,-3.480663299560547,-2.4044349193573,0
2.220489025115967,-4.423461437225342,-2.9412357807159424,0
2.3459904193878174,-5.094736576080322,-3.4701032638549805,0
2.1896088123321533,-5.584870338439941,-4.009804725646973,0
1.5345782041549683,-5.800060272216797,-4.345234394073486,0
0.5470213294029236,-5.7806243896484375,-4.469389915466309,0
-0.40629616379737854,-5.612489700317383,-4.419288635253906,0
-1.2728407382965088,-5.240760326385498,-4.255552291870117,0
-2.0031886100769043,-4.6922287940979,-3.871122360229492,0
-2.637507915496826,-3.9293131828308105,-3.4110617637634277,0
-3.041344165802002,-3.0269641876220703,-2.8546090126037598,0
-3.326498031616211,-1.847311019897461,-2.2453365325927734,0
-3.3202664852142334,-0.5563430786132812,-1.7372450828552246,0
-3.130006790161133,0.7660932540893555,-1.2088556289672852,0
-2.6522326469421387,2.011384963989258,-0.33238518238067627,0
-2.0892553329467773,2.9635114669799805,0.49478936195373535,0
-1.5739428997039795,3.6318702697753906,0.7611793279647827,0
-1.096024751663208,3.815927505493164,0.42389976978302,0
-0.7507067918777466,3.6050796508789062,-0.29201674461364746,0
-0.3716341257095337,2.9670114517211914,-1.2593491077423096,0
0.11748981475830078,2.161283493041992,-2.2225418090820312,0
0.4892386198043823,1.4301576614379883,-2.9470534324645996,0
0.8081716895103455,0.9101324081420898,-3.326633930206299,0
1.1509191989898682,0.5436878204345703,-3.4215688705444336,0
1.5612869262695312,0.19443321228027344,-3.2311697006225586,0
2.1223273277282715,-0.0729074478149414,-2.8809051513671875,0
2.7264890670776367,-0.25580692291259766,-2.304006576538086,0
3.2407796382904053,-0.5310449600219727,-1.5785114765167236,0
3.634922504425049,-0.8433132171630859,-0.8269944787025452,0
3.0924742221832275,-1.1687040328979492,-0.12145507335662842,0
1.8191781044006348,-1.3257665634155273,0.3534508943557739,0
0.5822252035140991,-1.3508100509643555,0.5201243162155151,0
-0.24810445308685303,-1.3301200866699219,0.3599705100059509,0
-0.7605041265487671,-1.292372703552246,0.02350938320159912,0
-0.9284031391143799,-1.3474655151367188,-0.34607967734336853,0
-0.9188016653060913,-1.4855842590332031,-0.6153960227966309,0
-0.8365858793258667,-1.572652816772461,-0.7823443412780762,0
-0.7727737426757812,-1.7282977104187012,-0.8853399753570557,0
-0.7422418594360352,-1.8712124824523926,-0.8383229970932007,0
-0.4774106740951538,-1.9273285865783691,-0.7584434747695923,0
-0.20136070251464844,-2.0235400199890137,-0.5617154836654663,0
-0.029652953147888184,-2.023611545562744,-0.3700854182243347,0
0.15915131568908691,-1.9253568649291992,-0.18368662893772125,0
0.35270750522613525,-1.7696046829223633,0.052082862704992294,0
0.5055150389671326,-1.5516605377197266,0.1861294060945511,0
0.5575675964355469,-1.3266544342041016,0.27806586027145386,0
0.6428861618041992,-1.0443973541259766,0.3208441734313965,0
0.6202983856201172,-0.8532257080078125,0.44911202788352966,0
0.5855574011802673,-0.5689096450805664,0.5485857725143433,0
0.6992741227149963,-0.21540546417236328,0.5814194679260254,0
0.5640859007835388,0.042183876037597656,0.5480487942695618,0
0.6345139741897583,0.20397377014160156,0.44140785932540894,0
0.851152777671814,0.2558460235595703,0.3427833020687103,0
0.9941656589508057,0.21712493896484375,0.2232331782579422,0
1.1572190523147583,0.2744636535644531,0.0031280815601348877,0
1.1991130113601685,0.21251392364501953,-0.1216522753238678,0
1.3087594509124756,0.11748409271240234,-0.17754113674163818,0
1.433548927307129,0.03486824035644531,-0.13814479112625122,0
1.5567272901535034,-0.07359600067138672,-0.015353202819824219,0
1.649764060974121,-0.19824600219726562,0.23670470714569092,0
1.7417106628417969,-0.34851551055908203,0.5801512002944946,0
1.9238698482513428,-0.514683723449707,0.9459532499313354,0
1.9763436317443848,-0.49580860137939453,1.3340399265289307,0
1.7818291187286377,-0.25632572174072266,1.6625182628631592,0
1.308727502822876,0.1769704818725586,1.8634933233261108,0
0.9683215022087097,0.5597753524780273,1.9477980136871338,0
0.7318004369735718,0.8274831771850586,1.9837225675582886,0
0.5273592472076416,0.920344352722168,1.9008285999298096,0
0.3715095520019531,0.8240690231323242,1.7987234592437744,0
0.14429402351379395,0.6845846176147461,1.7007255554199219,0
0.18794500827789307,0.48758411407470703,1.5443379878997803,0
0.2748687267303467,0.32640647888183594,1.5071909427642822,0
0.32349109649658203,0.16037940979003906,1.465653657913208,0
0.6039856672286987,0.063690185546875,1.4085676670074463,0
0.9919215440750122,0.13443470001220703,1.3537143468856812,0
1.5278704166412354,0.26962852478027344,1.1914052963256836,0
1.9552252292633057,0.5934562683105469,1.0993623733520508,0
2.387565851211548,1.1102161407470703,1.2720435857772827,0
2.9192006587982178,1.6256780624389648,1.350884199142456,0
3.4558348655700684,2.0415000915527344,1.204063057899475,0
3.8527674674987793,2.2809085845947266,0.9295291900634766,0
4.108939170837402,2.272059440612793,0.6783133745193481,0
4.26453161239624,2.0342187881469727,0.4601169228553772,0
4.429527759552002,1.665670394897461,0.2104734182357788,0
4.518527030944824,1.1691360473632812,-0.0014327764511108398,0
4.549125671386719,0.8127260208129883,-0.31025195121765137,0
4.623279571533203,0.6038265228271484,-0.5031908750534058,0
4.694651126861572,0.4853696823120117,-0.3570094704627991,0
4.877626419067383,0.6635236740112305,0.024203240871429443,0
4.894050598144531,1.2532100677490234,0.5455306768417358,0
4.54428768157959,2.23976993560791,0.998460590839386,0
4.012903213500977,3.311678886413574,1.2949721813201904,0
3.4961986541748047,4.183991432189941,1.4483420848846436,0
2.801924228668213,4.698634147644043,1.6773029565811157,0
2.0459375381469727,4.80533504486084,1.8163942098617554,0
1.427848219871521,4.65494441986084,1.6966922283172607,0
1.0829771757125854,4.441424369812012,1.2771928310394287,0
0.9529000520706177,4.141079902648926,0.793366551399231,0
0.5935416221618652,3.8258190155029297,0.5990423560142517,0
0.187280535697937,3.5960206985473633,0.7517514824867249,0
-0.20040416717529297,3.188565254211426,1.2806665897369385,0
-0.800001859664917,2.5774288177490234,2.0037689208984375,0
-1.3480653762817383,1.9065380096435547,2.7179815769195557,0
-1.9466913938522339,1.3723878860473633,3.234671115875244,0
-2.4275224208831787,1.0757246017456055,3.43977427482605,0
-3.0574538707733154,0.9667596817016602,3.434230089187622,0
-3.5051326751708984,1.163304328918457,3.2016818523406982,0
-3.7600533962249756,1.5008211135864258,2.793642282485962,0
-3.7064051628112793,1.7741479873657227,2.254234790802002,0
-3.7467780113220215,2.0746259689331055,1.6169848442077637,0
-3.750091791152954,2.2467432022094727,0.9353113174438477,0
-3.6335103511810303,2.17299747467041,0.23382842540740967,0
-3.3834068775177,1.9773120880126953,-0.502112090587616,0
-3.0345606803894043,1.8408985137939453,-1.3664191961288452,0
-2.75458025932312,1.7368707656860352,-2.2520251274108887,0
-2.577340602874756,1.7510175704956055,-3.0914769172668457,0
-2.5686850547790527,1.9667015075683594,-3.8653838634490967,0
-2.55568528175354,2.2017698287963867,-4.429539203643799,0
-2.513176918029785,2.293665885925293,-4.864910125732422,0
-2.3147103786468506,2.35274600982666,-4.998668670654297,0
-2.204834222793579,2.352811813354492,-4.781732082366943,0
-1.9187710285186768,2.5284223556518555,-4.1295247077941895,0
-1.4782288074493408,2.6091928482055664,-2.9859635829925537,0
-0.7162554860115051,2.6956300735473633,-1.5670421123504639,0
0.19017669558525085,2.5293350219726562,-0.14255595207214355,0
1.099100112915039,2.3614492416381836,1.2865946292877197,0
2.0526511669158936,2.3209104537963867,2.5043952465057373,0
2.7019762992858887,2.103640556335449,3.4433374404907227,0
3.092595100402832,2.0733327865600586,3.6592938899993896,0
2.8887789249420166,1.794565200805664,3.3632965087890625,0
2.4210152626037598,1.4948863983154297,2.729544162750244,0
1.6423531770706177,1.1934127807617188,1.9610371589660645,0
0.7000744938850403,0.9832992553710938,1.1699624061584473,0
-0.1179259717464447,0.7902622222900391,0.37755632400512695,0
-0.6648240089416504,0.537714958190918,-0.37806272506713867,0
-1.0112801790237427,0.22329139709472656,-0.9941599369049072,0
-1.2034863233566284,-0.06220817565917969,-1.5567445755004883,0
-1.461742639541626,-0.5795192718505859,-2.0275959968566895,0
-1.4569103717803955,-0.6588191986083984,-2.524427652359009,0
-1.4606504440307617,-0.8867416381835938,-2.8317110538482666,0
-1.3808650970458984,-1.0027122497558594,-2.97821307182312,0
-1.2502520084381104,-1.2533884048461914,-3.0476741790771484,0
-1.0947089195251465,-1.4952921867370605,-3.107131242752075,0
-1.0269094705581665,-1.6760306358337402,-3.094142198562622,0
-1.1221394538879395,-2.2690181732177734,-3.1549057960510254,0
-1.0550376176834106,-2.659320831298828,-3.191228151321411,0
-1.1493418216705322,-2.9571385383605957,-3.3108513355255127,0
-1.3387175798416138,-3.336907386779785,-3.473536968231201,0
-1.5735902786254883,-3.6476664543151855,-3.5864338874816895,0
-1.8284599781036377,-3.949101448059082,-3.659471273422241,0
-2.1251087188720703,-4.068737030029297,-3.815416097640991,0
-2.483015537261963,-4.171585559844971,-3.877638339996338,0
-2.782604217529297,-4.1069769859313965,-3.875068426132202,0
-3.0742063522338867,-3.9445338249206543,-3.7956655025482178,0
-3.3961920738220215,-3.7776718139648438,-3.7015790939331055,0
-3.6003198623657227,-3.6520209312438965,-3.549330711364746,0
-3.7223644256591797,-3.5917744636535645,-3.2545909881591797,0
-3.759847640991211,-3.5782604217529297,-2.842648983001709,0
-3.7007553577423096,-3.645476818084717,-2.3840956687927246,0
-3.674185037612915,-3.7986197471618652,-1.9615452289581299,0
-3.4502146244049072,-4.018916606903076,-1.6289622783660889,0
-3.0736052989959717,-4.256414413452148,-1.4119460582733154,0
-2.663315534591675,-4.511257648468018,-1.2335906028747559,0
-2.2812881469726562,-4.771449089050293,-1.1058106422424316,0
-1.9059845209121704,-5.00811767578125,-1.0024874210357666,0
-1.7024571895599365,-5.192275524139404,-0.9600167274475098,0
-1.4313017129898071,-5.321271896362305,-0.950209379196167,0
-1.3002266883850098,-5.426004409790039,-0.9137208461761475,0
-1.238975167274475,-5.525437355041504,-0.8151123523712158,0
-1.2274515628814697,-5.605202674865723,-0.6448547840118408,0
-1.3079111576080322,-5.6940693855285645,-0.3715975284576416,0
-1.3795223236083984,-5.572211265563965,-0.04002714157104492,0
-1.5038379430770874,-5.679823398590088,0.30715513229370117,0
-1.6724939346313477,-6.08320426940918,0.5211918354034424,0
-1.7868361473083496,-6.190896034240723,0.7116284370422363,0
-1.8018633127212524,-5.909512042999268,0.9115188121795654,0
-1.6410950422286987,-5.262834548950195,1.0530288219451904,0
-1.4572020769119263,-4.544711589813232,1.0488569736480713,0
-1.0593870878219604,-3.3743844032287598,0.9770441055297852,0
-0.45925915241241455,-1.8830585479736328,0.7162492275238037,0
0.1725478172302246,-0.13716983795166016,0.35980701446533203,0
0.7315267324447632,1.7300691604614258,-0.1055455207824707,0
1.156421422958374,3.9250898361206055,-0.619966983795166,0
1.5202791690826416,6.359654426574707,-0.9275423288345337,0
1.753758430480957,8.689485549926758,-0.8441256284713745,0
1.9278560876846313,11.234987258911133,-0.1340622901916504,0
2.0079896450042725,13.660247802734375,1.3673319816589355,0
2.2646870613098145,15.239121437072754,3.8797967433929443,0
2.949138879776001,14.970678329467773,7.087402820587158,0
3.93117618560791,12.316902160644531,9.948617935180664,0
4.798313140869141,8.802183151245117,12.286371231079102,0
5.178798198699951,5.7303314208984375,12.712555885314941,0
5.004329681396484,3.6396656036376953,11.36548137664795,0
4.715463161468506,2.3652048110961914,9.182774543762207,0
4.535573482513428,1.4431285858154297,6.905228614807129,0
4.061614036560059,0.5797519683837891,4.706366539001465,0
3.330681562423706,-0.35343456268310547,2.6138339042663574,0
2.2111759185791016,-1.109548568725586,0.6579899787902832,0
1.0576107501983643,-1.7580556869506836,-0.8923584222793579,0
-0.07392099499702454,-2.25655460357666,-1.947638988494873,0
-1.1400223970413208,-2.627613067626953,-2.5814971923828125,0
-1.9909532070159912,-2.8818411827087402,-2.9031178951263428,0
-2.6591899394989014,-2.8624277114868164,-3.069545269012451,0
-3.182039737701416,-2.441534996032715,-3.0770881175994873,0
-3.7079386711120605,-1.517533302307129,-3.12359619140625,0
-4.285619735717773,-0.08861160278320312,-3.46157169342041,0
-4.351128101348877,1.3412694931030273,-4.2254228591918945,0
-4.480207443237305,2.738186836242676,-5.024170398712158,0
-4.794589042663574,3.753140449523926,-5.472651481628418,0
-5.560810565948486,5.150249481201172,-4.998188018798828,0
-6.866123199462891,7.14304256439209,-3.7191996574401855,0
-7.822787284851074,8.147799491882324,-2.173433780670166,0
-8.110589981079102,7.682378768920898,0.233970046043396,0
-7.65375280380249,6.567943572998047,2.612220287322998,0
-5.987356662750244,5.078590393066406,4.185664653778076,0
-3.733219623565674,3.423534393310547,4.63148307800293,0
-2.073491096496582,1.8811798095703125,3.4164280891418457,0
-1.4509875774383545,0.3532733917236328,0.5914938449859619,0
-0.27030718326568604,-1.2317571640014648,-2.4971907138824463,0
0.6022847890853882,-2.7641563415527344,-5.047866344451904,0
0.8989489078521729,-3.7333993911743164,-6.7862348556518555,0
1.0218863487243652,-4.5124969482421875,-7.718995571136475,0
1.0152130126953125,-5.106126308441162,-8.050064086914062,0
0.9262803792953491,-5.626731872558594,-8.023394584655762,0
0.7029580473899841,-5.971551895141602,-7.800767421722412,0
0.38089919090270996,-6.210196495056152,-7.377909183502197,0
-0.10825777053833008,-6.256860733032227,-6.644665241241455,0
-0.747862696647644,-5.966236114501953,-5.549827575683594,0
-1.5962265729904175,-5.222147464752197,-4.129240989685059,0
-2.2283294200897217,-3.8993024826049805,-2.383011817932129,0
-2.649390697479248,-1.9374427795410156,-0.33772629499435425,0
-2.5873684883117676,0.34288787841796875,2.98492431640625,0
-2.2258496284484863,2.71022891998291,5.928827285766602,0
-1.8551461696624756,4.595033645629883,6.258750915527344,0
-1.6191973686218262,5.415057182312012,4.452448844909668,0
-1.2363883256912231,5.421238899230957,1.8255521059036255,0
-0.7588778734207153,4.598714828491211,-0.6467041373252869,0
-0.4071413278579712,3.4130725860595703,-2.6558053493499756,0
-0.12099742889404297,2.5035457611083984,-4.013172626495361,0
0.22450149059295654,1.716874122619629,-4.796013832092285,0
0.5875253677368164,0.9238977432250977,-4.89611291885376,0
1.011023998260498,0.24441814422607422,-4.5562286376953125,0
1.506987452507019,-0.3047666549682617,-3.8454606533050537,0
2.070974826812744,-0.9388084411621094,-2.8005902767181396,0
2.6677894592285156,-1.6717233657836914,-1.5937162637710571,0
2.9796173572540283,-2.2043704986572266,-0.371947318315506,0
2.840881824493408,-2.5728421211242676,0.48749440908432007,0
2.1728954315185547,-2.7965612411499023,0.7923465967178345,0
1.0223238468170166,-2.81135892868042,0.650365948677063,0
0.25653278827667236,-2.701262950897217,0.1848081648349762,0
-0.26197290420532227,-2.4449262619018555,-0.35728421807289124,0
-0.5673760175704956,-2.030583381652832,-0.9250867962837219,0
-0.7679011821746826,-1.8338937759399414,-1.1723930835723877,0
-0.8447881937026978,-1.6298904418945312,-1.1827828884124756,0
-0.7764660120010376,-1.4185905456542969,-0.9578494429588318,0
-0.8046708106994629,-1.2669868469238281,-0.5898621082305908,0
-0.5967556238174438,-0.9430465698242188,-0.28605762124061584,0
-0.41610777378082275,-0.712397575378418,-0.009981825947761536,0
-0.19803977012634277,-0.4577207565307617,0.09699158370494843,0
-0.009418725967407227,-0.43724727630615234,0.1566210389137268,0
0.05375969409942627,-0.5239973068237305,0.20438864827156067,0
0.010280847549438477,-0.5648784637451172,0.2592198848724365,0
-0.10478806495666504,-0.5218324661254883,0.32317811250686646,0
-0.38814520835876465,-0.3808145523071289,0.32675179839134216,0
-0.2346329689025879,-0.26628875732421875,0.3587515354156494,0
0.10003793239593506,-0.24984264373779297,0.41720566153526306,0
0.324306845664978,-0.08739280700683594,0.4400978982448578,0
0.5775563716888428,0.05120563507080078,0.4728040099143982,0
0.8838536143302917,0.11820030212402344,0.5296109318733215,0
1.121570348739624,0.13049602508544922,0.5842416286468506,0
1.3176710605621338,0.14565277099609375,0.5862607955932617,0
1.4553650617599487,-0.06827831268310547,0.6408132314682007,0
1.4458651542663574,-0.29827308654785156,0.6472254395484924,0
1.2983449697494507,-0.5276823043823242,0.6962246894836426,0
1.2783547639846802,-0.7421646118164062,0.8858062028884888,0
1.1847951412200928,-0.8341274261474609,1.0536611080169678,0
1.0151668787002563,-0.9998044967651367,1.272005319595337,0
1.0591602325439453,-1.124262809753418,1.390150785446167,0
1.0924086570739746,-1.2026548385620117,1.4819284677505493,0
0.9786931276321411,-1.170456886291504,1.6046552658081055,0
0.7513751983642578,-0.9274511337280273,1.741246223449707,0
0.6759074926376343,-0.5361299514770508,1.8193305730819702,0
0.589335560798645,-0.23349857330322266,1.8237926959991455,0
0.3381321430206299,0.025771141052246094,1.6507669687271118,0
0.3336077928543091,0.0837697982788086,1.4380569458007812,0
0.5805091857910156,-0.042504310607910156,1.2929987907409668,0
0.8538353443145752,-0.0873861312866211,1.089050531387329,0
1.1147611141204834,0.00391387939453125,0.8793581128120422,0
1.4445602893829346,-0.0844278335571289,0.6519259810447693,0
1.8215789794921875,-0.019860267639160156,0.4496641755104065,0
2.1929287910461426,0.19260501861572266,0.45219558477401733,0
2.5605432987213135,0.4068784713745117,0.6458257436752319,0
3.0003700256347656,0.6181631088256836,1.1347380876541138,0
3.4231672286987305,0.8478832244873047,1.6136592626571655,0
3.6870760917663574,1.0981330871582031,1.5560983419418335,0
3.865583896636963,1.179631233215332,1.1049500703811646,0
4.02304744720459,1.2310981750488281,0.6282234191894531,0
4.151951789855957,0.9822626113891602,0.26228803396224976,0
4.28102970123291,0.708470344543457,-0.01916944980621338,0
4.403555870056152,0.517460823059082,-0.2570641040802002,0
4.335792541503906,0.4211587905883789,-0.3919692635536194,0
4.272244930267334,0.45549774169921875,-0.4286658763885498,0
4.20627498626709,0.5966243743896484,-0.24216735363006592,0
4.119166851043701,0.8087387084960938,0.07979542016983032,0
4.066517353057861,1.2258710861206055,0.5545305013656616,0
3.948206901550293,1.7665319442749023,0.9924308061599731,0
3.750181198120117,2.466372489929199,1.4299869537353516,0
3.407670021057129,3.2053890228271484,1.7638835906982422,0
2.9751553535461426,3.851673126220703,1.8232219219207764,0
2.506976366043091,4.242475509643555,1.5309369564056396,0
2.150754928588867,4.272861480712891,1.055648684501648,0
1.7572840452194214,4.029444694519043,0.6128281354904175,0
1.5698935985565186,3.665863037109375,0.3287491500377655,0
1.4468274116516113,3.3714847564697266,0.3381079435348511,0
1.3566629886627197,3.06998348236084,0.5890631079673767,0
1.2107534408569336,2.7615480422973633,1.0404621362686157,0
0.7290245294570923,2.4701642990112305,1.5157281160354614,0
-0.5565638542175293,2.592428207397461,2.039518356323242,0
-2.1233835220336914,2.876704216003418,2.483689308166504,0
-3.3717117309570312,3.3137378692626953,2.7268035411834717,0
-4.2298078536987305,3.7871408462524414,2.7019317150115967,0
-4.7186713218688965,4.192713737487793,2.5342819690704346,0
-5.021653175354004,4.540949821472168,2.215303897857666,0
-5.1753339767456055,4.782256126403809,1.8768160343170166,0
-5.153198719024658,4.866805076599121,1.60536527633667,0
-5.004820346832275,4.725360870361328,1.252535343170166,0
-4.72471809387207,4.463007926940918,0.7983161211013794,0
-4.4680070877075195,4.115111351013184,0.18108582496643066,0
-4.240455627441406,3.888917922973633,-0.5684373378753662,0
-4.168528079986572,3.690213203430176,-1.2727768421173096,0
-3.9826126098632812,3.3222246170043945,-1.9899183511734009,0
-3.7920968532562256,2.980680465698242,-2.531813144683838,0
-3.5200233459472656,2.6268129348754883,-2.889781951904297,0
-3.1127524375915527,2.243525505065918,-3.1624441146850586,0
-2.6782734394073486,1.8760442733764648,-3.2879714965820312,0
-2.4107813835144043,1.6173286437988281,-3.283268928527832,0
-2.1125411987304688,1.3860034942626953,-3.2404942512512207,0
-1.8762010335922241,1.1370439529418945,-3.2362289428710938,0
-1.4354281425476074,0.9237556457519531,-3.273271322250366,0
-0.874957799911499,0.7588977813720703,-3.213505268096924,0
-0.4634614586830139,0.6503219604492188,-2.908747911453247,0
-0.03575766831636429,0.6966361999511719,-2.427980899810791,0
0.4404889941215515,0.8575105667114258,-1.892122745513916,0
1.0011616945266724,1.080404281616211,-1.1794812679290771,0
1.7991681098937988,1.630366325378418,-0.38235020637512207,0
2.5806007385253906,2.035348892211914,0.3407871723175049,0
3.196924924850464,2.4551076889038086,0.9389767646789551,0
3.371860980987549,2.374980926513672,1.473296880722046,0
3.1746978759765625,1.8768539428710938,1.6828246116638184,0
2.7582783699035645,1.4967451095581055,1.6875007152557373,0
2.1391639709472656,1.282109260559082,1.4185850620269775,0
1.7010607719421387,1.5863447189331055,0.9818482398986816,0
1.4251294136047363,2.001864433288574,0.5145714282989502,0
0.8336753249168396,1.1418495178222656,0.06653761863708496,0
0.5717430114746094,0.827601432800293,-0.3870975971221924,0
-0.3515433669090271,-0.035941123962402344,-0.8963823318481445,0
-1.2122973203659058,-1.2803316116333008,-1.2994599342346191,0
-1.652132272720337,-2.1660337448120117,-1.816982626914978,0
-2.598771095275879,-2.9965429306030273,-3.430295705795288,0
-2.6183433532714844,-2.67807674407959,-4.258541107177734,0
-2.208383321762085,-2.368612766265869,-4.0740132331848145,0
-2.3079891204833984,-2.470686435699463,-3.8248965740203857,0
-2.6704201698303223,-2.795248508453369,-3.6826725006103516,0
-3.015566349029541,-2.932973861694336,-3.7434964179992676,0
-3.206913948059082,-2.809760093688965,-3.9480743408203125,0
-3.4467051029205322,-2.5543012619018555,-4.111336708068848,0
-4.511320114135742,-3.446995258331299,-4.2691473960876465,0
-4.8399434089660645,-3.5132665634155273,-4.290745258331299,0
-5.272478103637695,-3.7795915603637695,-4.210032939910889,0
-4.668753147125244,-3.392758846282959,-3.822788953781128,0
-3.5258407592773438,-2.878220558166504,-3.342656373977661,0
-3.2411446571350098,-2.781864643096924,-2.820955276489258,0
-3.416846752166748,-2.7924513816833496,-2.4104652404785156,0
-3.5343985557556152,-3.0462026596069336,-2.092209577560425,0
-3.155606269836426,-2.9595870971679688,-1.8449163436889648,0
-2.8910298347473145,-2.8294124603271484,-1.6884832382202148,0
-2.785766363143921,-2.9639387130737305,-1.5134077072143555,0
-2.9022531509399414,-2.994361400604248,-1.2627160549163818,0
-3.133531093597412,-3.198133945465088,-0.8525960445404053,0
-3.2672057151794434,-3.37899112701416,-0.5053234100341797,0
-3.308587074279785,-3.328904628753662,-0.32350707054138184,0
-3.531309127807617,-3.633626937866211,-0.35768842697143555,0
-3.742257595062256,-3.907540798187256,-0.4643704891204834,0
-3.740398645401001,-3.854116439819336,-0.653156042098999,0
-4.27913761138916,-3.7863879203796387,-1.0564255714416504,0
-4.913614749908447,-4.0845770835876465,-1.226184368133545,0
-4.468400478363037,-4.231533527374268,-1.5413517951965332,0
-4.090350151062012,-4.4786553382873535,-1.566620111465454,0
-3.9725379943847656,-4.596710681915283,-1.351532220840454,0
-3.822880744934082,-4.724849700927734,-1.2135944366455078,0
-3.182628870010376,-4.433130741119385,-0.8623974323272705,0
-2.5428285598754883,-4.334465980529785,-0.2474043369293213,0
-2.287189483642578,-4.602097034454346,-0.49967384338378906,0
-2.370429277420044,-4.679650783538818,-1.465198040008545,0
-1.7687379121780396,-3.7931275367736816,-0.954106330871582,0
-1.048713207244873,-3.077737331390381,-0.389507532119751,0
-0.2541908323764801,-2.220552444458008,0.11498475074768066,0
0.4584197998046875,-1.1982202529907227,0.8234689235687256,0
