AccX,AccY,AccZ,stepCount
1.0786689519882202,0.3200044631958008,-1.6656644344329834,-1.0258504152297974
1.421930193901062,0.7380123138427734,-0.39336729049682617,4.173974514007568
1.468095064163208,1.1199779510498047,0.6771271228790283,-1.8071956634521484
1.5430920124053955,1.7118406295776367,1.3964250087738037,5.138274192810059
1.4965436458587646,2.001368522644043,1.8182885646820068,-2.2943618297576904
1.2751033306121826,2.1227283477783203,1.9671525955200195,4.528609752655029
0.6554479598999023,2.028336524963379,1.752307415008545,-1.0556410551071167
0.019468724727630615,1.7711353302001953,1.3054780960083008,2.234416961669922
-0.4725883901119232,1.5282487869262695,0.7153105735778809,-0.08170828223228455
-0.8368121981620789,1.125051498413086,0.12778472900390625,1.9042482376098633
-1.050963282585144,0.6763639450073242,-0.4880557060241699,0.5515978336334229
-1.2483131885528564,0.339874267578125,-1.0555534362792969,-1.6105409860610962
-1.4546459913253784,-0.009034156799316406,-1.5269181728363037,-0.18944638967514038
-1.787179946899414,-0.68359375,-1.9166840314865112,0
-1.7969555854797363,-0.9541215896606445,-2.338045120239258,0
-1.8107993602752686,-1.4523496627807617,-2.6886348724365234,0
-1.9813480377197266,-2.0679259300231934,-3.021660327911377,0
-2.2264280319213867,-2.4992618560791016,-3.390629291534424,0
-2.430577516555786,-2.942526340484619,-3.6288540363311768,0
-2.749333381652832,-3.3187012672424316,-3.8780100345611572,0
-3.1642138957977295,-3.6683530807495117,-4.006960868835449,0
-3.5200037956237793,-3.8885116577148438,-4.052262783050537,0
-3.824429512023926,-4.010432720184326,-3.9781198501586914,0
-4.13087272644043,-4.060591220855713,-3.8179280757904053,0
-4.332477569580078,-3.9507880210876465,-3.537777900695801,0
-4.532976150512695,-3.726994037628174,-3.170349359512329,0
-4.591637134552002,-3.4160890579223633,-2.6764636039733887,0
-4.513501167297363,-3.0448641777038574,-2.17022705078125,0
-4.300824165344238,-2.6951379776000977,-1.696218490600586,0
-3.8745498657226562,-2.548727512359619,-1.378556251525879,0
-3.2285919189453125,-2.117863655090332,-1.209867000579834,0
-2.7903900146484375,-1.8645973205566406,-1.0343234539031982,0
-2.4065451622009277,-1.7432708740234375,-0.9452409744262695,0
-2.093986988067627,-1.717864990234375,-0.8945646286010742,0
-1.8915245532989502,-1.8791193962097168,-0.8365719318389893,0
-1.7089561223983765,-2.104790687561035,-0.8045871257781982,0
-1.5611257553100586,-2.4880313873291016,-0.7840096950531006,0
-1.4459798336029053,-2.932997703552246,-0.7459094524383545,0
-1.4375782012939453,-3.4396133422851562,-0.7116894721984863,0
-1.4613242149353027,-3.9121999740600586,-0.6548919677734375,0
-1.5524908304214478,-4.369946002960205,-0.6017885208129883,0
-1.7079541683197021,-4.690918922424316,-0.509345531463623,0
-1.9218761920928955,-5.279268264770508,-0.4280736446380615,0
-2.0999672412872314,-5.763897895812988,-0.3439903259277344,0
-2.2439680099487305,-6.044466018676758,-0.2834131717681885,0
-2.4514923095703125,-6.152217864990234,-0.1482858657836914,0
-2.604266881942749,-6.644239902496338,-0.027590274810791016,0
-2.684480667114258,-6.888603210449219,0.03766822814941406,0
-2.6843974590301514,-6.904536247253418,0.12389779090881348,0
-2.555706024169922,-6.813881874084473,0.19465303421020508,0
-2.419973134994507,-6.475220203399658,0.21570634841918945,0
-2.322904109954834,-5.6514177322387695,0.1522822380065918,0
-2.181483745574951,-4.4784746170043945,-0.0022182464599609375,0
-1.9011409282684326,-3.13519287109375,-0.21656179428100586,0
-1.5793646574020386,-1.568324089050293,-0.49533939361572266,0
-1.1519169807434082,0.1772603988647461,-0.7502210140228271,0
-0.7730759382247925,1.9872627258300781,-0.9312999248504639,0
-0.4061993360519409,3.828700065612793,-0.8766496181488037,0
-0.0410003662109375,6.012809753417969,-0.6328372955322266,0
0.24813531339168549,8.422260284423828,-0.0595858097076416,0
0.45295730233192444,10.793526649475098,1.0328576564788818,0
0.7812765836715698,12.781453132629395,2.93276047706604,0
1.613430380821228,14.233654022216797,5.642500877380371,0
3.19478178024292,14.511134147644043,9.26168155670166,0
5.022222995758057,12.974225997924805,12.17690658569336,0
6.05500602722168,10.261507987976074,12.033390045166016,0
5.982988357543945,7.799065589904785,9.856133460998535,0
5.5659260749816895,6.300780296325684,7.425179481506348,0
4.277379989624023,5.697021484375,5.258671760559082,0
2.699075937271118,5.5063886642456055,3.295366048812866,0
1.1723511219024658,5.333686828613281,1.664766788482666,0
0.02044123411178589,5.510555267333984,0.6007595062255859,0
-0.8144307136535645,6.051947593688965,0.18355607986450195,0
-1.5996826887130737,6.642430305480957,0.2004096508026123,0
-2.668178081512451,6.699554443359375,0.0025262832641601562,0
-4.00877571105957,5.659317970275879,-0.7188299894332886,0
-5.556386947631836,3.586113929748535,-1.9648607969284058,0
-6.747466564178467,0.635986328125,-3.381340980529785,0
-7.300856590270996,-2.2867050170898438,-4.467473030090332,0
-7.391382217407227,-4.5183024406433105,-5.016395568847656,0
-7.291084289550781,-6.262275695800781,-5.129909038543701,0
-7.078062057495117,-7.459517478942871,-4.9425506591796875,0
-6.550556659698486,-8.075241088867188,-4.778246879577637,0
-5.971019268035889,-8.1297025680542,-4.66860818862915,0
-4.910902500152588,-7.733791351318359,-4.610356330871582,0
-3.08369779586792,-7.096118927001953,-4.62977409362793,0
-1.1286858320236206,-6.3028764724731445,-4.517406463623047,0
0.6353642344474792,-5.306145191192627,-4.284540176391602,0
1.9302215576171875,-4.342578411102295,-4.169717788696289,0
2.3428385257720947,-3.603081703186035,-4.2893877029418945,0
2.2908935546875,-2.795311450958252,-4.571362018585205,0
1.9155046939849854,-1.792379379272461,-4.931520462036133,0
1.4792637825012207,-0.6876974105834961,-5.294840335845947,0
0.9938293099403381,0.3391742706298828,-5.319929122924805,0
0.5451709628105164,1.419412612915039,-5.129831314086914,0
0.05897790193557739,2.3800840377807617,-4.563556671142578,0
-0.36424416303634644,3.0315628051757812,-3.6316542625427246,0
-0.4246443510055542,3.4065208435058594,-1.9430761337280273,0
-0.20569270849227905,3.572803497314453,1.409606695175171,0
-0.5549750328063965,3.253842353820801,5.162365913391113,0
-1.4445823431015015,2.456875801086426,6.5262131690979,0
-2.0762617588043213,1.5089025497436523,5.383546352386475,0
-2.0914525985717773,0.6201190948486328,3.1262974739074707,0
-1.9790483713150024,0.0025758743286132812,1.0135136842727661,0
-2.0902891159057617,-0.41712093353271484,-0.7406586408615112,0
-2.191145181655884,-0.7438840866088867,-2.1719465255737305,0
-1.9597446918487549,-0.8821134567260742,-3.174834728240967,0
-1.4046051502227783,-0.7964763641357422,-3.7100179195404053,0
-0.6340926885604858,-0.6335239410400391,-3.850496530532837,0
0.1440722942352295,-0.3578634262084961,-3.6290860176086426,0
0.8305203318595886,-0.09190654754638672,-3.1518115997314453,0
1.204506754875183,0.12354087829589844,-2.7379133701324463,0
1.3374354839324951,0.15699005126953125,-2.496873617172241,0
1.285814642906189,0.0469512939453125,-2.304849624633789,0
0.8536519408226013,-0.06776905059814453,-2.0076189041137695,0
0.5003126859664917,-0.12021732330322266,-1.6955785751342773,0
0.18027234077453613,-0.30649471282958984,-1.3468422889709473,0
-0.30084508657455444,-0.55706787109375,-0.8779007196426392,0
-0.6754690408706665,-0.6493873596191406,-0.5146398544311523,0
-0.9294521808624268,-0.7987070083618164,-0.22049008309841156,0
-1.0028164386749268,-1.0215301513671875,0.05031588673591614,0
-0.9716413021087646,-1.3678369522094727,0.18570327758789062,0
-0.8929027318954468,-1.6078453063964844,0.2795509397983551,0
-0.7446593046188354,-1.8444790840148926,0.33536773920059204,0
-0.6251373291015625,-1.7287073135375977,0.4103505611419678,0
-0.5153470039367676,-1.8588285446166992,0.3974314033985138,0
-0.4322551488876343,-1.70855712890625,0.3576574921607971,0
-0.33054792881011963,-1.4217510223388672,0.20403170585632324,0
-0.311008095741272,-1.137298583984375,-0.016483984887599945,0
-0.24735093116760254,-0.7715539932250977,-0.3553469479084015,0
-0.14714431762695312,-0.3031120300292969,-0.7306568026542664,0
-0.051322102546691895,-0.1457653045654297,-1.0153285264968872,0
0.0468522310256958,-0.08873558044433594,-1.1639864444732666,0
0.26209986209869385,-0.08883476257324219,-1.229494571685791,0
0.29472267627716064,-0.2201976776123047,-1.0616521835327148,0
0.19223296642303467,-0.2771148681640625,-0.7620671987533569,0
0.31616055965423584,-0.4748868942260742,-0.40128499269485474,0
0.4828000068664551,-0.7176504135131836,-0.0807354748249054,0
0.6928477883338928,-0.9120645523071289,0.18431934714317322,0
0.9063482880592346,-1.1202993392944336,0.36484307050704956,0
0.9875755310058594,-1.4259624481201172,0.5279721021652222,0
1.041872262954712,-1.561131477355957,0.5233622193336487,0
0.7720432877540588,-1.7389097213745117,0.5240603685379028,0
0.5293174982070923,-1.7727937698364258,0.43281152844429016,0
0.2435544729232788,-1.2636985778808594,0.34888097643852234,0
0.16862785816192627,-1.216461181640625,0.2561497092247009,0
0.2788599729537964,-1.3290529251098633,0.12609517574310303,0
0.36692166328430176,-1.280695915222168,0.047113120555877686,0
0.29951179027557373,-1.2532072067260742,0.1145201325416565,0
0.19672131538391113,-1.2082414627075195,0.2656095027923584,0
0.14754164218902588,-1.1911745071411133,0.53321373462677,0
0.09212493896484375,-0.8337478637695312,0.8664921522140503,0
-0.041678428649902344,-0.19390010833740234,1.2143514156341553,0
-0.14668667316436768,0.3715658187866211,1.5256097316741943,0
-0.34579288959503174,0.8002967834472656,1.6629976034164429,0
-0.5126497745513916,0.9631242752075195,1.675959587097168,0
-0.3555126190185547,0.8053512573242188,1.6431999206542969,0
-0.22917652130126953,0.5592050552368164,1.5481069087982178,0
0.03545951843261719,0.4494352340698242,1.5130934715270996,0
0.4522320032119751,0.21520233154296875,1.5792243480682373,0
0.9851669073104858,0.15560150146484375,1.7587385177612305,0
1.677103877067566,0.2321453094482422,1.9320372343063354,0
2.290611505508423,0.5019216537475586,1.9055097103118896,0
2.819751501083374,0.9476175308227539,1.6124587059020996,0
3.289215564727783,1.4155855178833008,1.2309412956237793,0
3.776418685913086,1.929403305053711,0.8534778952598572,0
4.150570869445801,2.2495899200439453,0.5489860773086548,0
4.561680793762207,2.349991798400879,0.5488640069961548,0
5.0001115798950195,2.43886661529541,0.5661334991455078,0
5.428539752960205,2.2604846954345703,0.7693151235580444,0
5.820124626159668,2.0640926361083984,1.0073370933532715,0
6.198640823364258,1.9385242462158203,1.121903896331787,0
6.16657829284668,2.075362205505371,1.020980954170227,0
5.6123504638671875,2.4840097427368164,0.8752228021621704,0
4.7365217208862305,3.0325403213500977,0.7939537167549133,0
4.016919136047363,3.6561279296875,0.7303742170333862,0
3.54886794090271,4.414425849914551,0.5909999012947083,0
3.075985908508301,5.065591812133789,0.3668935000896454,0
2.190746784210205,5.504105567932129,-0.023822307586669922,0
1.790471076965332,5.4958343505859375,-0.23494261503219604,0
1.681210994720459,5.4288434982299805,-0.5436086654663086,0
1.6472291946411133,5.234046936035156,-0.8521607518196106,0
1.592182993888855,5.028985977172852,-0.9465378522872925,0
1.4983325004577637,4.701482772827148,-0.6278492212295532,0
1.4367280006408691,4.297332763671875,0.004201158881187439,0
1.0114150047302246,3.8452835083007812,0.9864151477813721,0
-0.04253196716308594,3.421536445617676,2.139359474182129,0
-1.269350528717041,2.81778621673584,3.193072557449341,0
-2.3076281547546387,2.314263343811035,3.6743814945220947,0
-2.89058518409729,2.0741472244262695,3.6056416034698486,0
-3.0044493675231934,2.196169853210449,3.082962989807129,0
-2.956122398376465,2.4250898361206055,2.3522865772247314,0
-2.91398549079895,2.6516523361206055,1.710495948791504,0
-2.8718984127044678,2.8309850692749023,1.1346386671066284,0
-2.7831315994262695,2.862874984741211,0.6944364905357361,0
-2.5145010948181152,2.685222625732422,0.40437233448028564,0
-2.313101291656494,2.393568992614746,0.18000972270965576,0
-2.117300510406494,2.186079978942871,-0.028919100761413574,0
-1.9427995681762695,2.150601387023926,-0.29768383502960205,0
-1.8588218688964844,2.1332225799560547,-0.7016006708145142,0
-1.736518383026123,2.133326530456543,-1.211401104927063,0
-1.7656784057617188,2.0333690643310547,-1.7346440553665161,0
-1.7822377681732178,1.8883724212646484,-2.223005533218384,0
-1.737092137336731,1.7390966415405273,-2.6331734657287598,0
-1.6478458642959595,1.5905065536499023,-2.9720265865325928,0
-1.6233875751495361,1.3782625198364258,-3.157853126525879,0
-1.5905592441558838,1.2270927429199219,-3.2094202041625977,0
-1.4546387195587158,0.9986047744750977,-3.1572494506835938,0
-1.2594237327575684,0.640599250793457,-2.9283785820007324,0
-0.8348677158355713,0.26827526092529297,-2.7004873752593994,0
-0.34785354137420654,-0.12056827545166016,-2.444984197616577,0
0.025759749114513397,-0.5092487335205078,-2.1180412769317627,0
0.481360524892807,-0.6396141052246094,-1.8482892513275146,0
0.7784196734428406,-0.8181743621826172,-1.6375651359558105,0
0.7719326019287109,-0.9565267562866211,-1.3850239515304565,0
0.733069121837616,-0.5982112884521484,-1.1763478517532349,0
0.5612169504165649,-0.39953136444091797,-0.8066297769546509,0
0.35650455951690674,-0.11925411224365234,-0.5736432075500488,0
0.14430850744247437,0.127288818359375,-0.49029016494750977,0
-0.16999197006225586,0.36602210998535156,-0.536027193069458,0
-0.5632315874099731,0.4412984848022461,-0.7579591274261475,0
-0.7072749733924866,0.738062858581543,-1.0408997535705566,0
-0.9372225999832153,0.8158779144287109,-1.346297025680542,0
-1.0850383043289185,0.8470849990844727,-1.571539282798767,0
-1.2504336833953857,0.7337846755981445,-1.8753582239151,0
-1.612659215927124,0.3736410140991211,-2.1296873092651367,0
-1.732581377029419,0.3124256134033203,-2.5513219833374023,0
-1.7330049276351929,0.24367427825927734,-2.954411029815674,0
-1.8115988969802856,0.057234764099121094,-3.2770071029663086,0
-1.9438350200653076,-0.23019981384277344,-3.583801031112671,0
-2.2999343872070312,-0.8863582611083984,-3.848454475402832,0
-2.474583148956299,-1.1911859512329102,-4.2817511558532715,0
-2.8938164710998535,-1.654561996459961,-4.584406852722168,0
-3.3598666191101074,-2.096869468688965,-4.9263529777526855,0
-3.6870622634887695,-2.525033950805664,-5.276911735534668,0
-4.0322675704956055,-2.9075422286987305,-5.521972179412842,0
-4.437746524810791,-3.2248635292053223,-5.73626184463501,0
-4.87876558303833,-3.481281280517578,-5.834451675415039,0
-5.330280780792236,-3.652397632598877,-5.7791900634765625,0
-5.601925849914551,-3.6496691703796387,-5.529953956604004,0
-5.72032356262207,-3.5786380767822266,-4.971780776977539,0
-5.697161674499512,-3.435084342956543,-4.214017868041992,0
-5.476323127746582,-3.2629222869873047,-3.2986273765563965,0
-4.969306468963623,-3.1420812606811523,-2.425565242767334,0
-4.40070104598999,-3.1623921394348145,-1.3442504405975342,0
-3.771096706390381,-3.2749886512756348,-0.18164277076721191,0
-3.075705051422119,-3.433232307434082,0.7802555561065674,0
-2.4835426807403564,-3.657064914703369,1.551288366317749,0
-2.008244514465332,-3.9587788581848145,2.0878801345825195,0
-1.651061773300171,-4.297492504119873,2.225681781768799,0
-1.4767576456069946,-4.619850158691406,1.8826587200164795,0
-1.3552837371826172,-4.771942138671875,1.2630116939544678,0
-1.3165394067764282,-4.925309181213379,0.6615478992462158,0
-1.2874414920806885,-5.088735103607178,0.09299612045288086,0
-1.3002500534057617,-5.275936603546143,-0.4060554504394531,0
-1.3060986995697021,-5.483980178833008,-0.7533257007598877,0
-1.4430149793624878,-5.750731468200684,-0.9187517166137695,0
-1.621840476989746,-6.037668228149414,-0.8311481475830078,0
-1.851689100265503,-6.2706193923950195,-0.5719070434570312,0
-2.1295454502105713,-6.77721643447876,-0.21030449867248535,0
-2.261776924133301,-7.112281799316406,0.1440267562866211,0
-2.2183430194854736,-7.0798444747924805,0.45844030380249023,0
-2.2649097442626953,-7.30175256729126,0.5680572986602783,0
-2.12691593170166,-6.945302486419678,0.5332589149475098,0
-1.89397394657135,-6.089662551879883,0.40439414978027344,0
-1.5932097434997559,-4.686925411224365,0.08736109733581543,0
-1.3047658205032349,-2.949617862701416,-0.38602304458618164,0
-0.996898353099823,-1.1136751174926758,-0.9085825681686401,0
-0.7676912546157837,0.8746852874755859,-1.3240395784378052,0
-0.4915602207183838,3.148183822631836,-1.5635409355163574,0
-0.20601944625377655,5.781825065612793,-1.570815086364746,0
0.024892568588256836,8.938390731811523,-1.283487319946289,0
0.16287946701049805,12.067076683044434,-0.5263659954071045,0
0.32740065455436707,14.586061477661133,0.799238920211792,0
0.466230571269989,16.547500610351562,2.7605032920837402,0
1.0255928039550781,18.049659729003906,6.390268802642822,0
2.2123682498931885,17.680809020996094,10.345273971557617,0
3.423295497894287,13.762162208557129,12.429864883422852,0
4.018057346343994,8.670157432556152,11.221237182617188,0
4.275422096252441,4.955870628356934,8.942573547363281,0
4.4089484214782715,2.584540367126465,6.5982666015625,0
4.492923259735107,1.1363859176635742,4.433827877044678,0
4.199702739715576,0.3263673782348633,2.4087023735046387,0
3.7377498149871826,-0.012734413146972656,0.49292445182800293,0
3.040593147277832,0.16718196868896484,-1.1451560258865356,0
1.9574413299560547,0.7965860366821289,-2.309826612472534,0
0.5069055557250977,1.7122554779052734,-3.042745590209961,0
-0.9905508160591125,2.592921257019043,-3.326352834701538,0
-1.9620742797851562,2.8642044067382812,-3.7025420665740967,0
-2.6218366622924805,2.9689855575561523,-3.9843335151672363,0
-3.1419103145599365,3.020242691040039,-4.22137975692749,0
-3.8631091117858887,2.959552764892578,-4.416595935821533,0
-4.954095363616943,2.7269153594970703,-4.181612491607666,0
-6.398836135864258,2.102511405944824,-3.366830825805664,0
-7.727153778076172,0.6213588714599609,-1.9968124628067017,0
-8.275311470031738,-1.1773509979248047,-0.3487311601638794,0
-7.88535213470459,-2.7371668815612793,1.0734360218048096,0
-6.923321723937988,-3.8338913917541504,1.9834630489349365,0
-5.506560802459717,-4.567376136779785,2.370431661605835,0
-3.6556906700134277,-4.713162899017334,2.0572643280029297,0
-1.911853313446045,-4.347211837768555,0.7929366827011108,0
-0.1284148395061493,-3.7912726402282715,-1.067476749420166,0
0.8365033864974976,-3.2497730255126953,-2.9007692337036133,0
1.2638731002807617,-2.9176111221313477,-4.366433143615723,0
1.277811050415039,-2.6765518188476562,-5.4158220291137695,0
1.2223358154296875,-2.6383347511291504,-6.000174045562744,0
1.0188987255096436,-2.417534351348877,-6.213007926940918,0
0.758222758769989,-2.028818130493164,-6.0380353927612305,0
0.41902780532836914,-1.6257514953613281,-5.690466403961182,0
0.19391769170761108,-1.2374258041381836,-5.232552528381348,0
-0.16939294338226318,-0.49842071533203125,-4.536198139190674,0
-0.6174954175949097,0.32724857330322266,-3.637789249420166,0
-1.2213692665100098,1.3701391220092773,-2.279958486557007,0
-1.88330078125,2.3152694702148438,0.4907456636428833,0
-2.5339882373809814,3.220639228820801,4.027344703674316,0
-2.8730039596557617,3.9106855392456055,5.708284854888916,0
-2.4865610599517822,3.93654727935791,4.770849227905273,0
-1.9492324590682983,3.304905891418457,2.678643226623535,0
-1.2574933767318726,2.2878198623657227,0.5447114109992981,0
-0.27702927589416504,1.2356691360473633,-1.2005999088287354,0
0.4904003143310547,0.4358692169189453,-2.5579333305358887,0
1.0528069734573364,-0.13566017150878906,-3.451594352722168,0
1.4040664434432983,-0.5939874649047852,-3.7584228515625,0
1.7128071784973145,-0.9919605255126953,-3.484865188598633,0
2.081490993499756,-1.190974235534668,-2.80106782913208,0
2.4122934341430664,-1.3179664611816406,-1.7704185247421265,0
2.5636115074157715,-1.490208625793457,-0.8413218259811401,0
1.8874993324279785,-1.6240711212158203,-0.3366966247558594,0
0.936365008354187,-1.7627086639404297,-0.24161005020141602,0
0.0020904541015625,-1.7266883850097656,-0.4107779264450073,0
-0.6273746490478516,-1.719228744506836,-0.5969473123550415,0
-1.1133155822753906,-1.742405891418457,-0.7924230098724365,0
-1.4087119102478027,-1.673996925354004,-1.0060932636260986,0
-1.6202155351638794,-1.6981096267700195,-1.1314927339553833,0
-1.8596763610839844,-1.7715654373168945,-1.1525108814239502,0
-2.0529253482818604,-1.7843523025512695,-1.102784276008606,0
-2.207350730895996,-1.8442106246948242,-0.9792928695678711,0
-2.3498356342315674,-1.9392127990722656,-0.7955065965652466,0
-2.3780388832092285,-2.019162178039551,-0.5958962440490723,0
-2.177802085876465,-2.050642967224121,-0.4851134121417999,0
-1.9675631523132324,-1.978766918182373,-0.44625324010849,0
-1.6855775117874146,-1.978240966796875,-0.43398571014404297,0
-1.2676832675933838,-1.9055347442626953,-0.4320429563522339,0
-0.8074723482131958,-1.779874324798584,-0.3567090928554535,0
-0.30267035961151123,-1.58697509765625,-0.2510385811328888,0
0.21117186546325684,-1.1833915710449219,-0.18657395243644714,0
0.6267529129981995,-0.7964696884155273,-0.07665091753005981,0
0.8941067457199097,-0.37830638885498047,-0.014006465673446655,0
1.1113197803497314,-0.029334068298339844,0.004275798797607422,0
1.2496094703674316,0.20273208618164062,-0.03365054726600647,0
1.2488877773284912,0.3012809753417969,-0.14232566952705383,0
1.2356246709823608,0.38120460510253906,-0.3341687321662903,0
1.0319700241088867,0.3180665969848633,-0.389289915561676,0
0.809598982334137,0.20040416717529297,-0.4107362926006317,0
0.7283264398574829,0.028230667114257812,-0.36255404353141785,0
0.6635960340499878,-0.12665939331054688,-0.2328301966190338,0
0.6825087070465088,-0.3192434310913086,-0.08608576655387878,0
0.7495096921920776,-0.5948219299316406,0.08487182855606079,0
0.8598728179931641,-0.7189121246337891,0.3400641679763794,0
0.8175296783447266,-0.830348014831543,0.6461565494537354,0
1.0653756856918335,-0.8884172439575195,0.9048470854759216,0
1.1344493627548218,-0.9409980773925781,1.1350047588348389,0
1.127441644668579,-0.9044837951660156,1.3650639057159424,0
1.1469647884368896,-0.6403875350952148,1.5444462299346924,0
1.1807959079742432,-0.23993968963623047,1.7158312797546387,0
1.2048377990722656,0.2702817916870117,1.8283411264419556,0
1.0514284372329712,0.6962718963623047,1.8020358085632324,0
0.9357905387878418,0.844273567199707,1.745934009552002,0
0.9032132625579834,0.8698968887329102,1.5802043676376343,0
0.9031850099563599,0.7492303848266602,1.5004427433013916,0
0.8924061059951782,0.800384521484375,1.3895381689071655,0
0.9661495685577393,0.8221893310546875,1.4057656526565552,0
1.4091140031814575,0.7908468246459961,1.4992051124572754,0
1.8911207914352417,0.8524322509765625,1.8764662742614746,0
2.4313931465148926,1.0714216232299805,2.2623865604400635,0
3.026973009109497,1.528681755065918,2.3142285346984863,0
3.6651577949523926,1.9965057373046875,2.161144495010376,0
4.172226905822754,2.4314355850219727,1.9020133018493652,0
4.5128493309021,2.7899513244628906,1.494994044303894,0
4.764832973480225,3.014436721801758,1.2044862508773804,0
4.956454277038574,2.9470863342285156,1.0498460531234741,0
5.202930450439453,2.683932304382324,0.9800193309783936,0
5.43621301651001,2.3593578338623047,0.8208608627319336,0
5.387355804443359,2.1004037857055664,0.5874050259590149,0
5.1266374588012695,2.0745506286621094,0.46339866518974304,0
4.738326072692871,2.2793445587158203,0.5428012609481812,0
4.34470272064209,2.690770149230957,0.6612053513526917,0
3.862520694732666,3.3661155700683594,0.4713108539581299,0
3.4547574520111084,4.006187438964844,-0.12659764289855957,0
2.850764751434326,4.503308296203613,-0.7112343907356262,0
2.3897855281829834,4.79304313659668,-1.2341934442520142,0
2.0446975231170654,4.741829872131348,-1.4327377080917358,0
1.9177494049072266,4.477077484130859,-1.305653691291809,0
1.7526981830596924,3.9659156799316406,-0.7913376688957214,0
1.6426085233688354,3.452798843383789,-0.026440203189849854,0
1.2060703039169312,2.8850584030151367,0.9559300541877747,0
-0.011385917663574219,2.52996826171875,2.0191152095794678,0
-1.384695291519165,2.501612663269043,2.92168927192688,0
-2.5390284061431885,2.759066581726074,3.486560583114624,0
-3.265631675720215,3.3123321533203125,3.6426875591278076,0
-3.493283271789551,3.770144462585449,3.530461311340332,0
-3.69370174407959,4.150552749633789,3.115586757659912,0
-3.831342935562134,4.421047210693359,2.563182830810547,0
-4.026349067687988,4.402838706970215,2.078733205795288,0
-3.970306396484375,4.08680534362793,1.5976659059524536,0
-3.847456216812134,3.7792530059814453,1.174050211906433,0
-3.708075523376465,3.467926025390625,0.6979407072067261,0
-3.6486244201660156,3.1834211349487305,0.1854243278503418,0
-3.4436192512512207,3.0422182083129883,-0.4554901123046875,0
-3.2652926445007324,2.909611701965332,-1.2097973823547363,0
-3.0878543853759766,2.6798839569091797,-1.9917093515396118,0
-2.8978757858276367,2.4245223999023438,-2.625108003616333,0
-2.5794644355773926,2.1121950149536133,-3.032252550125122,0
-2.339317798614502,1.692704200744629,-3.430030345916748,0
-1.9581934213638306,1.2571229934692383,-3.6838066577911377,0
-1.40816068649292,0.7866582870483398,-3.855750560760498,0
-0.7959388494491577,0.28875732421875,-3.7827277183532715,0
-0.2936084270477295,-0.12158203125,-3.523883819580078,0
0.17103329300880432,-0.2960205078125,-3.228738307952881,0
0.5984165072441101,-0.3876485824584961,-2.824040412902832,0
0.949255108833313,-0.4440793991088867,-2.365530014038086,0
1.2955737113952637,-0.49133777618408203,-1.839159607887268,0
1.7782464027404785,-0.2805356979370117,-1.4192477464675903,0
2.0318403244018555,-0.18975162506103516,-0.9017124176025391,0
2.3378171920776367,0.05599021911621094,-0.46749329566955566,0
2.4530210494995117,0.004070281982421875,-0.021749258041381836,0
2.209606647491455,-0.025336265563964844,0.26712870597839355,0
1.3251359462738037,-0.07817649841308594,0.2735178470611572,0
0.3703291714191437,-0.2097930908203125,0.05580019950866699,0
-0.258189857006073,-0.11671829223632812,-0.3399240970611572,0
-0.6733854413032532,-0.12255191802978516,-0.7091825008392334,0
-0.9621756672859192,-0.1607646942138672,-1.0580945014953613,0
-1.2209529876708984,-0.24129009246826172,-1.3787857294082642,0
-1.4364994764328003,-0.46712684631347656,-1.6279041767120361,0
-1.5781676769256592,-0.5535306930541992,-1.980478048324585,0
-1.7010877132415771,-0.820887565612793,-2.253103256225586,0
-1.8768696784973145,-1.0964851379394531,-2.5426735877990723,0
-2.1819400787353516,-1.5066804885864258,-2.7283682823181152,0
-2.3070521354675293,-1.668381690979004,-2.9932351112365723,0
-2.546238422393799,-1.9905009269714355,-3.2759222984313965,0
-2.7486109733581543,-2.2742271423339844,-3.5219247341156006,0
-3.002696990966797,-2.6104421615600586,-3.7170944213867188,0
-3.236595630645752,-2.834080696105957,-3.942936420440674,0
-3.541916847229004,-2.9884462356567383,-4.151157379150391,0
-3.7855799198150635,-3.154951572418213,-4.331972122192383,0
-3.997121572494507,-3.2163209915161133,-4.588313579559326,0
-4.239670276641846,-3.3063817024230957,-4.834310054779053,0
-4.432708263397217,-3.362705707550049,-5.034440040588379,0
-4.541358470916748,-3.3134031295776367,-5.117251873016357,0
-4.513813018798828,-3.2996301651000977,-5.018231391906738,0
-4.268673896789551,-3.244953155517578,-4.801891326904297,0
-3.8287110328674316,-3.1640725135803223,-4.463222026824951,0
-3.36220645904541,-3.057471752166748,-4.011350154876709,0
-2.965688705444336,-2.963965892791748,-3.491091728210449,0
-2.582923650741577,-2.9200029373168945,-2.8513197898864746,0
-2.3422179222106934,-2.9525985717773438,-2.1743898391723633,0
-2.1710076332092285,-3.158205509185791,-1.3915777206420898,0
-1.935028314590454,-3.4680728912353516,-0.52040696144104,0
-1.8165394067764282,-3.865787982940674,0.14850091934204102,0
-1.7707839012145996,-4.284391403198242,0.6829385757446289,0
-1.8149480819702148,-4.683126449584961,1.0378129482269287,0
-1.9058880805969238,-4.968523979187012,1.2369861602783203,0
-1.9666759967803955,-5.2335309982299805,1.260718822479248,0
-2.08754825592041,-5.358129978179932,1.1345798969268799,0
-2.2843499183654785,-5.425576210021973,0.933985710144043,0
-2.4982128143310547,-5.729461669921875,0.7197906970977783,0
-2.7327370643615723,-5.876828193664551,0.5242938995361328,0
-2.9803175926208496,-5.831406116485596,0.41084909439086914,0
-3.2146894931793213,-5.788853645324707,0.3972494602203369,0
-3.3425817489624023,-5.772489547729492,0.45351457595825195,0
-3.3907470703125,-5.580984115600586,0.5262343883514404,0
-3.2236900329589844,-5.152015686035156,0.6364412307739258,0
-2.945099353790283,-4.43060827255249,0.6403598785400391,0
-2.4361753463745117,-3.4862680435180664,0.5404224395751953,0
-1.793827772140503,-2.2306442260742188,0.38225769996643066,0
-1.1104899644851685,-0.7690629959106445,0.15120267868041992,0
-0.5508365035057068,0.8149871826171875,-0.10844707489013672,0
-0.12908443808555603,2.612898826599121,-0.4517476558685303,0
0.18740130960941315,4.560660362243652,-0.7626421451568604,0
0.4613749086856842,6.601552963256836,-0.8879207372665405,0
0.6698558926582336,8.898637771606445,-0.6287598609924316,0
0.7854084968566895,11.222315788269043,0.1427748203277588,0
1.032224416732788,13.196803092956543,1.5286104679107666,0
1.3774089813232422,14.467378616333008,3.5705196857452393,0
2.0239005088806152,14.36758804321289,6.9260053634643555,0
2.9409797191619873,12.202448844909668,10.45640754699707,0
4.038021087646484,8.749114990234375,13.006836891174316,0
4.424224853515625,5.7662763595581055,12.212703704833984,0
4.267873287200928,3.782533645629883,9.7374267578125,0
4.101473331451416,2.4508237838745117,6.926559925079346,0
3.8079960346221924,1.5919780731201172,4.186446189880371,0
3.482053518295288,0.9793758392333984,1.6686527729034424,0
2.882746696472168,0.6737861633300781,-0.7540054321289062,0
2.0573318004608154,0.7596502304077148,-2.703892230987549,0
1.049206018447876,1.4570941925048828,-3.881059169769287,0
-0.03130801022052765,2.4903430938720703,-4.2128586769104,0
-1.0258504152297974,3.5882415771484375,-3.820612907409668,0
-1.7869210243225098,4.44124698638916,-2.9142980575561523,0
-2.503674030303955,5.134626388549805,-1.6862006187438965,0
-3.099560260772705,5.608072280883789,-0.8868659734725952,0
-3.784000873565674,5.548649787902832,-0.6446536779403687,0
-4.6490159034729,4.998679161071777,-0.9554331302642822,0
-5.791749477386475,3.962953567504883,-1.5031951665878296,0
-6.699639797210693,2.2452611923217773,-2.020122528076172,0
-7.232518672943115,0.06657123565673828,-2.3253774642944336,0
-7.070821285247803,-2.0530834197998047,-2.1933770179748535,0
-6.405053615570068,-3.831550121307373,-1.7644410133361816,0
-5.422209739685059,-5.05079460144043,-1.4930487871170044,0
-3.693850040435791,-5.836113929748535,-1.8793836832046509,0
-2.003655195236206,-6.326091289520264,-2.685920476913452,0
-0.7916483283042908,-6.53209114074707,-3.5025241374969482,0
0.10141825675964355,-6.498822212219238,-4.2050580978393555,0
0.7756351232528687,-6.1586103439331055,-4.76541805267334,0
1.1306934356689453,-5.525345802307129,-5.13589334487915,0
1.3017956018447876,-4.775675296783447,-5.301741123199463,0
1.363723874092102,-3.9045557975769043,-5.304356575012207,0
1.3715635538101196,-3.0458970069885254,-4.946804523468018,0
1.167022466659546,-2.144754409790039,-4.2343339920043945,0
0.8791317343711853,-1.325857162475586,-3.2373266220092773,0
0.5486043691635132,-0.4055929183959961,-2.014838218688965,0
0.24555009603500366,0.3353004455566406,-0.7702316045761108,0
-0.021294713020324707,1.2307682037353516,0.5405700206756592,0
-0.43928468227386475,1.9950065612792969,1.5117499828338623,0
-1.042398452758789,2.7537126541137695,2.623105049133301,0
-1.7502100467681885,3.398259162902832,3.209714889526367,0
-2.279008388519287,3.7107105255126953,3.185710906982422,0
-2.3446033000946045,3.5721263885498047,2.479099750518799,0
-1.9514200687408447,3.1822710037231445,1.219071865081787,0
-1.3013144731521606,2.3536806106567383,-0.2278677225112915,0
-0.6462701559066772,1.472940444946289,-1.684751033782959,0
0.005839407444000244,0.5051279067993164,-2.9098565578460693,0
0.6181263327598572,-0.1807537078857422,-3.8789007663726807,0
0.9234652519226074,-0.6827936172485352,-4.551824569702148,0
0.9053437113761902,-0.9007635116577148,-4.99744987487793,0
0.910519003868103,-1.0766401290893555,-5.163911819458008,0
1.013091802597046,-1.1413087844848633,-5.086968898773193,0
1.1178251504898071,-1.0950860977172852,-4.787195205688477,0
1.2998504638671875,-1.0698299407958984,-4.090389728546143,0
1.6487476825714111,-1.1398630142211914,-3.1134896278381348,0
1.9261360168457031,-1.2574844360351562,-2.080571413040161,0
2.0826191902160645,-1.3988571166992188,-1.154137134552002,0
2.099008083343506,-1.6214056015014648,-0.4499775767326355,0
2.0033888816833496,-1.94893217086792,0.08956819772720337,0
1.7205274105072021,-2.23776912689209,0.4944925308227539,0
1.349877119064331,-2.406571388244629,0.8035668730735779,0
0.9601947069168091,-2.4601430892944336,1.0192668437957764,0
0.4483528733253479,-2.2765979766845703,1.1947115659713745,0
-0.032408952713012695,-1.870542049407959,1.16140615940094,0
-0.5057919025421143,-1.3546457290649414,1.0008041858673096,0
-0.950163722038269,-0.9442996978759766,0.7853686213493347,0
-1.3081793785095215,-0.6155338287353516,0.47796034812927246,0
-1.6254169940948486,-0.44242000579833984,0.08428627252578735,0
-1.6458011865615845,-0.386505126953125,-0.30882343649864197,0
-1.6608527898788452,-0.478668212890625,-0.5527281761169434,0
-1.5502136945724487,-0.6349353790283203,-0.692915678024292,0
-1.4451345205307007,-0.7666950225830078,-0.6383969783782959,0
-1.5923480987548828,-0.8070650100708008,-0.36052441596984863,0
-1.3981536626815796,-0.7919502258300781,-0.1897004246711731,0
-1.1253149509429932,-0.7547883987426758,-0.0017745159566402435,0
-0.7495673894882202,-0.6237850189208984,0.2434779554605484,0
-0.5145201683044434,-0.5448408126831055,0.5818136930465698,0
-0.18548297882080078,-0.4437093734741211,0.8214748501777649,0
0.022072911262512207,-0.358673095703125,0.9835293292999268,0
0.23453378677368164,-0.26585865020751953,0.9690918922424316,0
0.42503929138183594,-0.0960073471069336,0.8355638980865479,0
0.568902850151062,-0.03104686737060547,0.7150278687477112,0
0.8354567885398865,-0.0995941162109375,0.5436144471168518,0
1.0713584423065186,-0.14127159118652344,0.3797391653060913,0
1.3796100616455078,-0.3377656936645508,0.35824859142303467,0
1.5548338890075684,-0.39228057861328125,0.37661105394363403,0
1.633279800415039,-0.5344448089599609,0.43522462248802185,0
1.7228336334228516,-0.8286161422729492,0.5270947217941284,0
1.8210575580596924,-1.0904359817504883,0.7095509171485901,0
1.784132480621338,-1.264974594116211,0.9845620393753052,0
1.6621801853179932,-1.4982433319091797,1.2461214065551758,0
1.5913264751434326,-1.6922402381896973,1.5072362422943115,0
1.3988397121429443,-1.7013826370239258,1.7063632011413574,0
1.081862211227417,-1.6385960578918457,1.788977861404419,0
0.8912750482559204,-1.3727493286132812,1.8082966804504395,0
0.8271074295043945,-0.9353094100952148,1.77528977394104,0
0.9251055717468262,-0.38874149322509766,1.6922296285629272,0
1.1180282831192017,0.18549728393554688,1.5622637271881104,0
1.3576953411102295,0.7897825241088867,1.43941330909729,0
1.6842174530029297,1.4073209762573242,1.389771819114685,0
2.125607490539551,1.9710636138916016,1.2971514463424683,0
2.578277826309204,2.576526641845703,1.1378135681152344,0
3.1129021644592285,3.1779394149780273,1.1011099815368652,0
3.7041239738464355,3.631528854370117,1.3291103839874268,0
4.178522109985352,4.147534370422363,1.3124370574951172,0
4.3799896240234375,4.402776718139648,1.1373634338378906,0
4.463618755340576,4.413966178894043,0.7789397239685059,0
4.440330505371094,4.479668617248535,-0.21261781454086304,0
4.335705280303955,4.584989547729492,-1.3824617862701416,0
4.055947780609131,4.758342742919922,-2.29148530960083,0
3.87809419631958,5.08094596862793,-2.702796459197998,0
3.8021726608276367,5.378461837768555,-2.4377450942993164,0
4.173974514007568,5.479649543762207,-1.4913073778152466,0
4.669617652893066,5.567350387573242,-0.20573651790618896,0
5.121090888977051,5.563356399536133,1.1805930137634277,0
5.422856330871582,5.542366981506348,2.3215293884277344,0
5.402710914611816,5.507138252258301,2.931554079055786,0
4.945802688598633,5.512941360473633,3.1506497859954834,0
3.010777473449707,5.544960975646973,3.2183618545532227,0
0.11821341514587402,5.456387519836426,3.241046667098999,0
-1.976064682006836,4.933907508850098,3.161205291748047,0
-3.180147647857666,4.083695411682129,2.962920665740967,0
-3.706721067428589,3.4210214614868164,2.762263774871826,0
-4.186727523803711,3.042008399963379,2.539355993270874,0
-4.501550674438477,2.978078842163086,2.1281402111053467,0
-4.5176239013671875,2.9139184951782227,1.6280628442764282,0
-4.474629878997803,2.833332061767578,1.1699368953704834,0
-4.312916278839111,2.7104063034057617,0.8587578535079956,0
-4.054585933685303,2.602644920349121,0.6161074638366699,0
-3.7552380561828613,2.301860809326172,0.3036556839942932,0
-3.26455020904541,1.8821868896484375,-0.13654065132141113,0
-2.707677125930786,1.51806640625,-0.5844453573226929,0
-2.2675888538360596,1.161372184753418,-1.0909583568572998,0
-1.9105801582336426,0.8883447647094727,-1.60915207862854,0
-1.711833119392395,0.6555328369140625,-2.0154833793640137,0
-1.620419979095459,0.4458913803100586,-2.4425528049468994,0
-1.703798770904541,0.20417118072509766,-2.8388938903808594,0
-1.8505313396453857,-0.04577922821044922,-3.136784315109253,0
-1.980762004852295,-0.2872123718261719,-3.2830593585968018,0
-2.129246711730957,-0.4051637649536133,-3.3397297859191895,0
-2.2028298377990723,-0.5810546875,-3.2828564643859863,0
-2.253203868865967,-0.7258720397949219,-3.0658187866210938,0
-2.117119312286377,-0.7053146362304688,-2.7077581882476807,0
-1.6147303581237793,-0.5886402130126953,-2.1954901218414307,0
-0.9020708799362183,-0.3520469665527344,-1.59389066696167,0
-0.35973846912384033,0.008763313293457031,-0.7904344797134399,0
-0.04870660603046417,0.3995990753173828,0.007420778274536133,0
-0.13545545935630798,0.886347770690918,0.6831550598144531,0
-0.32792428135871887,1.4298171997070312,0.9540977478027344,0
-0.6372052431106567,1.6706609725952148,0.9434840679168701,0
-0.9461218118667603,1.723592758178711,0.7883179187774658,0
-1.0721166133880615,1.834794044494629,0.4411153793334961,0
-1.196397304534912,1.7002277374267578,0.14620161056518555,0
-1.4853838682174683,1.3344650268554688,-0.23308396339416504,0
-1.8560935258865356,0.704498291015625,-0.7023413181304932,0
-2.294670581817627,-0.031113624572753906,-1.172029733657837,0
-2.66204571723938,-0.6996450424194336,-1.535963535308838,0
-2.9432084560394287,-1.2936325073242188,-1.8600126504898071,0
-3.0916085243225098,-1.801055908203125,-2.097050428390503,0
-3.161196708679199,-2.2554616928100586,-2.264266014099121,0
-3.3757948875427246,-2.6377062797546387,-2.5128777027130127,0
-3.5406854152679443,-3.000340461730957,-2.8769445419311523,0
-3.5928468704223633,-3.338606357574463,-3.119941473007202,0
-3.57212495803833,-3.6143527030944824,-3.376116991043091,0
-3.5112667083740234,-3.9447898864746094,-3.746361494064331,0
-3.3281126022338867,-4.078768253326416,-4.190360069274902,0
-3.1110496520996094,-4.31528377532959,-4.555606365203857,0
-3.015892505645752,-4.436581611633301,-4.737151145935059,0
-2.8421430587768555,-4.540825366973877,-4.785457134246826,0
-2.5901148319244385,-4.515747547149658,-4.710062026977539,0
-2.4201748371124268,-4.34020471572876,-4.43175745010376,0
-2.150165557861328,-4.189328193664551,-4.045691013336182,0
-1.9139728546142578,-3.9990386962890625,-3.5844101905822754,0
-1.8003168106079102,-3.7794699668884277,-3.061171293258667,0
-1.7210807800292969,-3.590991497039795,-2.5440943241119385,0
-1.6431758403778076,-3.4411797523498535,-2.0608603954315186,0
-1.751340389251709,-3.3685946464538574,-1.6440479755401611,0
-1.7829062938690186,-3.387758255004883,-1.2641935348510742,0
-1.8341718912124634,-3.4844141006469727,-0.9517767429351807,0
-1.7838679552078247,-3.3693156242370605,-0.6774556636810303,0
-1.7560632228851318,-3.9488887786865234,-0.48207569122314453,0
-1.5964488983154297,-4.571742057800293,-0.37332701683044434,0
-1.3711899518966675,-5.092006683349609,-0.23399686813354492,0
-1.0962393283843994,-5.5767436027526855,-0.03554391860961914,0
-0.8335107564926147,-5.846706390380859,0.20786333084106445,0
-0.4845612049102783,-5.835148811340332,0.5559995174407959,0
-0.26345163583755493,-6.3551411628723145,0.8384029865264893,0
-0.040151357650756836,-6.686114311218262,1.2080097198486328,0
0.008188366889953613,-6.966728687286377,1.600127935409546,0
-0.02577650547027588,-7.20626163482666,1.87839674949646,0
-0.07416874170303345,-7.323121070861816,2.122042417526245,0
0.027200818061828613,-7.365074634552002,2.2836110591888428,0
0.2762420177459717,-7.300976753234863,2.411240339279175,0
0.7548379898071289,-6.743389129638672,2.3687920570373535,0
1.3658080101013184,-5.929220199584961,2.2134203910827637,0
1.9830323457717896,-4.683534622192383,1.956106424331665,0
2.3959202766418457,-3.0347352027893066,1.7151329517364502,0
2.4931952953338623,-1.3721232414245605,1.5555527210235596,0
2.515186071395874,0.4059133529663086,1.3042206764221191,0
2.224566698074341,2.6544132232666016,1.1361756324768066,0
1.9063491821289062,5.371644020080566,1.122359275817871,0
1.5865432024002075,8.275591850280762,1.2647686004638672,0
1.250455379486084,11.451759338378906,1.8316545486450195,0
1.0728451013565063,14.322216033935547,2.855783700942993,0
1.189443826675415,16.32818603515625,4.407047271728516,0
1.6812865734100342,16.675247192382812,5.909432411193848,0
2.290314197540283,14.805333137512207,6.4640655517578125,0
2.5870110988616943,11.19468879699707,6.07963752746582,0
2.571831226348877,7.591169357299805,5.211521625518799,0
2.4407246112823486,5.171382904052734,4.302521705627441,0
2.066633701324463,3.874286651611328,3.290259599685669,0
1.450351595878601,3.270695686340332,2.236614942550659,0
0.5582400560379028,3.1446218490600586,1.2969539165496826,0
-0.16612569987773895,3.009881019592285,0.5003900527954102,0
-0.7068856358528137,3.059652328491211,-0.0036220550537109375,0
-1.3284307718276978,3.2738685607910156,-0.41432321071624756,0
-1.8071956634521484,3.6256418228149414,-1.2143841981887817,0
-2.5734002590179443,4.267823219299316,-1.8827699422836304,0
-3.5796995162963867,4.868180274963379,-2.4119622707366943,0
-5.080038547515869,5.346612930297852,-2.6142001152038574,0
-7.444885730743408,4.870358467102051,-2.395691394805908,0
-10.226634979248047,3.44925594329834,-1.8052538633346558,0
-11.994858741760254,1.185551643371582,-1.5586211681365967,0
-12.164590835571289,-1.2752714157104492,-1.5066981315612793,0
-11.281554222106934,-3.196432113647461,-1.2063288688659668,0
-10.21995735168457,-4.3683552742004395,-0.7319631576538086,0
-9.219523429870605,-4.8299241065979,-0.6699908971786499,0
-7.9904704093933105,-4.575808525085449,-1.6316126585006714,0
-4.786421298980713,-4.0510478019714355,-3.6130073070526123,0
-1.8497823476791382,-3.443079948425293,-6.036715030670166,0
0.09201794862747192,-3.010727882385254,-8.157041549682617,0
1.2179920673370361,-2.6329426765441895,-9.524088859558105,0
1.766162395477295,-2.3162107467651367,-10.184103965759277,0
1.8932714462280273,-2.0960493087768555,-10.388322830200195,0
1.8263623714447021,-1.8575196266174316,-10.38951301574707,0
1.7028322219848633,-1.6533823013305664,-9.889684677124023,0
1.4937719106674194,-1.2903814315795898,-8.87203311920166,0
1.308511734008789,-0.8291921615600586,-7.335334300994873,0
1.2987382411956787,-0.1679534912109375,-5.211026668548584,0
1.58976411819458,0.7783412933349609,-2.3780956268310547,0
2.231597900390625,1.570718765258789,1.4738000631332397,0
3.563077926635742,2.397028923034668,6.230225563049316,0
4.701410293579102,3.046036720275879,9.749726295471191,0
4.890335559844971,3.171834945678711,9.582650184631348,0
3.1409993171691895,2.3582277297973633,6.179403305053711,0
1.573920726776123,1.3279485702514648,2.123800039291382,0
0.2889896631240845,0.5631284713745117,-0.9988561272621155,0
-0.5586141347885132,0.12859249114990234,-3.1468448638916016,0
-1.092920184135437,0.024109840393066406,-4.553065299987793,0
-1.4328941106796265,-0.09758472442626953,-5.351358413696289,0
-1.4071282148361206,-0.2223672866821289,-5.353955268859863,0
-1.3679308891296387,-0.649409294128418,-4.509471416473389,0
-1.4819920063018799,-1.0917444229125977,-3.390199661254883,0
-1.6724200248718262,-1.5089492797851562,-2.365381956100464,0
-1.7647658586502075,-1.8461942672729492,-1.6597840785980225,0
-1.9700791835784912,-2.072538375854492,-1.3011820316314697,0
-2.152618408203125,-2.192920684814453,-1.1054106950759888,0
-2.281834602355957,-2.3748273849487305,-0.9203811883926392,0
-2.257822275161743,-2.5775203704833984,-0.6157693862915039,0
-2.1069576740264893,-2.7698402404785156,-0.2958191931247711,0
-1.8815752267837524,-2.9756417274475098,-0.12708936631679535,0
-1.576439380645752,-3.070514678955078,-0.02194305509328842,0
-1.2992714643478394,-3.1000518798828125,0.014558866620063782,0
-0.9809044599533081,-2.935257911682129,-0.019579598680138588,0
-0.5595928430557251,-2.6768569946289062,-0.06353022903203964,0
-0.26831698417663574,-2.35137939453125,-0.07294254004955292,0
0.06684625148773193,-1.9948668479919434,-0.04614415019750595,0
0.3660273551940918,-1.6194095611572266,-0.041442081332206726,0
0.5469716787338257,-1.3088245391845703,-0.06016300618648529,0
0.7310881614685059,-1.0870161056518555,-0.1593938022851944,0
0.9274535179138184,-0.9778337478637695,-0.301053911447525,0
1.1746611595153809,-0.9500064849853516,-0.37127989530563354,0
1.3631035089492798,-0.6662473678588867,-0.5436410903930664,0
1.560303807258606,-0.4926576614379883,-0.6249951124191284,0
1.6277222633361816,-0.4243049621582031,-0.5270406007766724,0
1.587023138999939,-0.3797492980957031,-0.30941042304039,0
1.723422646522522,-0.2058248519897461,-0.15593314170837402,0
1.7236145734786987,-0.4214925765991211,0.07287541031837463,0
1.6333147287368774,-0.6795120239257812,0.21199625730514526,0
1.6849430799484253,-0.9702024459838867,0.3018178939819336,0
1.5579612255096436,-1.276784896850586,0.4470878839492798,0
1.4511793851852417,-1.4964418411254883,0.5680595636367798,0
1.3674237728118896,-1.6196699142456055,0.7311657667160034,0
1.407671570777893,-1.8234734535217285,0.9166030287742615,0
1.4383950233459473,-1.7777328491210938,1.071122407913208,0
1.2899839878082275,-1.5401477813720703,1.297239065170288,0
0.984135627746582,-0.8766298294067383,1.5375499725341797,0
0.6760939359664917,-0.03405284881591797,1.7419288158416748,0
0.3483610153198242,0.6237468719482422,1.812227725982666,0
0.10320985317230225,1.0274677276611328,1.8005423545837402,0
-0.08633756637573242,1.2752246856689453,1.796877145767212,0
-0.31395530700683594,1.3334999084472656,1.764134168624878,0
-0.14616012573242188,1.1881790161132812,1.7993464469909668,0
0.11794519424438477,0.9279928207397461,1.8471121788024902,0
0.48549342155456543,0.7826604843139648,1.7784135341644287,0
1.0016130208969116,0.7114744186401367,1.7379460334777832,0
1.6227896213531494,0.8459386825561523,1.8369519710540771,0
2.3318467140197754,1.2551918029785156,2.0141689777374268,0
2.9868719577789307,1.714034080505371,2.2941670417785645,0
3.581984043121338,2.181497573852539,2.5290706157684326,0
4.1682634353637695,2.795949935913086,2.9138996601104736,0
4.811182498931885,3.451679229736328,3.1842799186706543,0
5.200587749481201,3.8397293090820312,2.809999942779541,0
4.987931728363037,4.177263259887695,1.8147242069244385,0
4.971371650695801,3.787158966064453,0.6738669276237488,0
4.790929794311523,3.3848657608032227,-0.2689273953437805,0
4.800630569458008,3.039644241333008,-1.0124937295913696,0
4.874176979064941,2.7707862854003906,-1.0717980861663818,0
5.101415634155273,2.8655824661254883,-1.0840344429016113,0
5.369459629058838,3.0827646255493164,-0.9365710020065308,0
5.4193596839904785,3.506424903869629,-0.9427761435508728,0
5.336156845092773,4.007519721984863,-1.167475938796997,0
5.177811622619629,4.514385223388672,-1.3525182008743286,0
5.006860256195068,4.960205078125,-1.2447772026062012,0
4.9529924392700195,5.333340644836426,-0.7226155996322632,0
5.021817207336426,5.5696516036987305,0.09401673078536987,0
5.138274192810059,5.748664855957031,1.243216633796692,0
5.108110427856445,5.9737043380737305,2.279386520385742,0
3.79178524017334,6.220470428466797,2.9909462928771973,0
0.7594900131225586,6.224806785583496,3.562950849533081,0
-1.5272760391235352,5.790478706359863,3.8238253593444824,0
-3.050781488418579,4.975717544555664,3.725041389465332,0
-3.8578858375549316,4.14047908782959,3.331228494644165,0
-4.370423793792725,3.560641288757324,2.7783446311950684,0
-4.670660972595215,3.236661911010742,2.219818115234375,0
-4.747426509857178,3.113947868347168,1.7621272802352905,0
-4.769055366516113,3.0541181564331055,1.4313255548477173,0
-4.709733009338379,2.9713850021362305,1.304478406906128,0
-4.596079349517822,2.8180932998657227,1.291495680809021,0
-4.375980377197266,2.6061172485351562,1.3528037071228027,0
-4.10087251663208,2.241792678833008,1.2719221115112305,0
-3.9179434776306152,1.8729724884033203,0.9582434892654419,0
-3.505784511566162,1.535043716430664,0.27149903774261475,0
-3.0514333248138428,1.2562255859375,-0.5827340483665466,0
-2.6974692344665527,0.9570913314819336,-1.425511360168457,0
-2.4219274520874023,0.7472114562988281,-2.128084421157837,0
-2.287165880203247,0.4658946990966797,-2.827545642852783,0
-2.2938642501831055,0.21575355529785156,-3.4746146202087402,0
-2.3782427310943604,-0.09902667999267578,-3.9822745323181152,0
-2.481198787689209,-0.3514699935913086,-4.362663269042969,0
-2.519702434539795,-0.6033201217651367,-4.5284881591796875,0
-2.306441068649292,-0.8441867828369141,-4.564949989318848,0
-1.462997317314148,-0.9845705032348633,-4.446690559387207,0
-0.42784056067466736,-0.9255828857421875,-4.085009574890137,0
0.3708193302154541,-0.7172069549560547,-3.3075547218322754,0
1.1324398517608643,-0.3691902160644531,-2.131683826446533,0
1.8251227140426636,0.08443355560302734,-0.7101972103118896,0
2.2182185649871826,0.4895753860473633,0.7120270729064941,0
2.4894134998321533,1.0673761367797852,1.8881216049194336,0
2.4050111770629883,1.4791488647460938,2.5564043521881104,0
1.666629433631897,1.5901470184326172,2.549898147583008,0
0.8731869459152222,1.7899103164672852,2.1091864109039307,0
0.19982001185417175,1.7216682434082031,1.5147414207458496,0
-0.24241051077842712,1.5170793533325195,0.8286714553833008,0
-0.5288479328155518,1.193058967590332,0.11499524116516113,0
-0.7874553203582764,0.6973733901977539,-0.5627155303955078,0
-1.1187877655029297,0.12397003173828125,-1.2660045623779297,0
-1.3453481197357178,-0.37352752685546875,-1.831538438796997,0
-1.560023546218872,-0.9045648574829102,-2.3978068828582764,0
-1.9128440618515015,-1.47819185256958,-2.818098545074463,0
-2.2090303897857666,-1.9767732620239258,-3.247044324874878,0
-2.4143874645233154,-2.4623913764953613,-3.575395107269287,0
-2.6361865997314453,-2.954216480255127,-3.8320956230163574,0
-2.9004228115081787,-3.4356112480163574,-4.069716930389404,0
-3.1013669967651367,-3.796755313873291,-4.405259609222412,0
-3.3109726905822754,-4.162224769592285,-4.740411758422852,0
-3.6110072135925293,-4.465029716491699,-5.096753120422363,0
-3.810697555541992,-4.659562110900879,-5.450915336608887,0
-4.018550872802734,-4.874692440032959,-5.743932247161865,0
-3.9934630393981934,-4.859108924865723,-5.897405624389648,0
-3.754176616668701,-4.646704196929932,-5.837241172790527,0
-3.4364633560180664,-4.345678806304932,-5.4458818435668945,0
-3.163853883743286,-3.9374871253967285,-4.878298759460449,0
-2.8446121215820312,-3.5304088592529297,-4.231733322143555,0
-2.6123299598693848,-3.1656851768493652,-3.5194034576416016,0
-2.4762122631073,-2.8367252349853516,-2.8357105255126953,0
-2.3856489658355713,-2.635110855102539,-1.9733855724334717,0
-2.2689669132232666,-2.5757884979248047,-1.1557114124298096,0
-2.1747045516967773,-2.652059555053711,-0.42641472816467285,0
-2.092005491256714,-2.9263710975646973,0.1944713592529297,0
-1.9669685363769531,-3.372396469116211,0.6386451721191406,0
-1.8002890348434448,-3.870314121246338,0.9041316509246826,0
-1.6013524532318115,-4.3170881271362305,1.0554771423339844,0
-1.3261494636535645,-4.78428316116333,1.0754940509796143,0
-0.9637589454650879,-5.190328598022461,1.0042798519134521,0
-0.6134539246559143,-5.582682132720947,0.8791484832763672,0
-0.30534684658050537,-5.9225358963012695,0.6104402542114258,0
-0.22793889045715332,-5.879283905029297,0.33083248138427734,0
-0.18180549144744873,-6.363615036010742,0.0600123405456543,0
-0.11828494071960449,-6.828985214233398,-0.16312122344970703,0
-0.2073032259941101,-6.710617542266846,-0.2534775733947754,0
-0.25219953060150146,-6.888855934143066,-0.23572349548339844,0
-0.17578834295272827,-6.832316875457764,-0.20593762397766113,0
-0.03302586078643799,-6.383349895477295,-0.1902909278869629,0
0.18088769912719727,-5.616357803344727,-0.26047778129577637,0
0.44435441493988037,-4.615208148956299,-0.3445420265197754,0
0.7207501530647278,-3.3559556007385254,-0.39465808868408203,0
0.8914655447006226,-1.809587001800537,-0.6199381351470947,0
0.9827481508255005,-0.3246326446533203,-0.8479020595550537,0
0.8259990215301514,1.3582611083984375,-0.9432053565979004,0
0.769084632396698,3.426398277282715,-0.8650227785110474,0
0.6424155235290527,5.561994552612305,-0.5484734773635864,0
0.4968363642692566,8.145203590393066,0.21178483963012695,0
0.35234785079956055,10.909360885620117,1.6021537780761719,0
0.20812299847602844,13.185489654541016,3.6048195362091064,0
0.23013049364089966,14.531905174255371,6.423031806945801,0
0.47407472133636475,14.287429809570312,9.868606567382812,0
0.8820350170135498,12.070236206054688,12.149862289428711,0
1.1132519245147705,8.751334190368652,11.534948348999023,0
1.181199073791504,5.899216651916504,9.640569686889648,0
1.3299306631088257,3.996866226196289,7.471153259277344,0
1.4765915870666504,2.763718605041504,5.373123645782471,0
1.6965372562408447,2.0774545669555664,3.4815382957458496,0
1.7638829946517944,1.8805418014526367,1.7943463325500488,0
1.5340865850448608,2.1870927810668945,0.48664045333862305,0
1.0394783020019531,2.8767404556274414,-0.39145898818969727,0
0.5896705985069275,3.5561628341674805,-0.9027014970779419,0
0.15892863273620605,4.245865821838379,-1.1849486827850342,0
-0.4559360146522522,5.018955230712891,-1.2394993305206299,0
-1.312051773071289,5.769374847412109,-1.235764503479004,0
-2.2943618297576904,6.432472229003906,-1.2302875518798828,0
-3.164469003677368,6.791526794433594,-1.4526011943817139,0
-4.260624408721924,6.774508476257324,-1.8059320449829102,0
-5.71332311630249,6.254999160766602,-2.0746254920959473,0
-7.146822929382324,4.790925025939941,-2.27801513671875,0
-8.159846305847168,2.4101314544677734,-2.4212534427642822,0
-8.077397346496582,-0.15935611724853516,-2.060793399810791,0
-7.359080791473389,-2.0812106132507324,-1.4141647815704346,0
-6.320686340332031,-3.5207905769348145,-1.1563942432403564,0
-5.238154888153076,-4.570045471191406,-1.351522445678711,0
-3.555514335632324,-5.3241868019104,-2.2727041244506836,0
-1.5650525093078613,-5.762859344482422,-3.707855224609375,0
-0.2979201376438141,-5.997316837310791,-5.101296424865723,0
0.3979472219944,-6.029026031494141,-6.328007698059082,0
0.7897908687591553,-5.878983020782471,-7.252440929412842,0
0.9126321077346802,-5.5994791984558105,-7.760319709777832,0
0.8492996692657471,-5.2190423011779785,-7.932865142822266,0
0.7579576373100281,-4.737643718719482,-7.859391689300537,0
0.5357267260551453,-4.09811544418335,-7.473387718200684,0
0.2857268154621124,-3.1909379959106445,-6.639087677001953,0
0.042160868644714355,-2.112532615661621,-5.465158462524414,0
-0.2230459451675415,-0.9809360504150391,-3.9081218242645264,0
-0.7076348662376404,0.3175621032714844,-2.1310763359069824,0
-1.3265098333358765,1.5442619323730469,0.4004824161529541,0
-2.15891170501709,2.588937759399414,3.9764535427093506,0
-2.712440013885498,3.6100196838378906,6.160038948059082,0
-2.9919824600219727,4.248592376708984,5.93435001373291,0
-2.8328027725219727,4.087821960449219,4.392602920532227,0
-2.3291714191436768,3.0659265518188477,2.5978522300720215,0
-1.8298723697662354,1.7308940887451172,0.8921726942062378,0
-1.2520523071289062,0.5508317947387695,-0.7932981252670288,0
-0.6534566879272461,-0.2678537368774414,-2.5180726051330566,0
-0.18051886558532715,-0.6965236663818359,-3.9774460792541504,0
0.24543333053588867,-0.8957958221435547,-4.874109745025635,0
0.4803139567375183,-1.0382776260375977,-5.102490425109863,0
0.40807628631591797,-1.0240058898925781,-4.738944053649902,0
0.21085768938064575,-0.9421243667602539,-3.9424257278442383,0
0.013186335563659668,-0.9389257431030273,-3.1233463287353516,0
-0.17752504348754883,-0.9881772994995117,-2.43953800201416,0
-0.3273482918739319,-1.046767234802246,-1.9139314889907837,0
-0.48631471395492554,-1.1935148239135742,-1.4843878746032715,0
-0.6639291048049927,-1.3253870010375977,-1.12308931350708,0
-0.8147076368331909,-1.4638233184814453,-0.7929155230522156,0
-0.8478274345397949,-1.6087627410888672,-0.41086483001708984,0
-0.7844732999801636,-1.7912087440490723,0.027438104152679443,0
-0.5618758201599121,-1.8460254669189453,0.34225133061408997,0
-0.4431920051574707,-1.96464204788208,0.5910854339599609,0
-0.32601308822631836,-2.0059423446655273,0.6376049518585205,0
-0.28526008129119873,-1.9629201889038086,0.5727466344833374,0
-0.3336745500564575,-1.8429503440856934,0.40613535046577454,0
-0.4601038694381714,-1.6844978332519531,0.15001031756401062,0
-0.49778616428375244,-1.5833625793457031,-0.12567365169525146,0
-0.4974398612976074,-1.5060720443725586,-0.3099782168865204,0
-0.4568498134613037,-1.428725242614746,-0.4257485270500183,0
-0.3233363628387451,-1.4445610046386719,-0.5676211714744568,0
-0.16140460968017578,-1.3764762878417969,-0.6775819659233093,0
0.017292499542236328,-1.286656379699707,-0.813202977180481,0
0.3090001344680786,-1.1845579147338867,-1.0487326383590698,0
0.5947773456573486,-1.1943721771240234,-1.2310253381729126,0
0.5202144384384155,-1.1414318084716797,-1.0590980052947998,0
0.43902599811553955,-0.7795934677124023,-0.9909632205963135,0
0.7653966546058655,-0.40802478790283203,-0.883549153804779,0
1.025866985321045,-0.38527774810791016,-0.5211541652679443,0
1.2375082969665527,-0.4501800537109375,-0.15943029522895813,0
1.395904541015625,-0.7364120483398438,0.14185085892677307,0
1.4006645679473877,-0.8993387222290039,0.31052064895629883,0
1.342618465423584,-1.25238037109375,0.4820813834667206,0
1.2408024072647095,-1.5251703262329102,0.6433441042900085,0
0.9874571561813354,-1.629425048828125,0.8029337525367737,0
0.7234861850738525,-1.7137165069580078,0.9985823035240173,0
0.592705249786377,-1.782846450805664,1.098089337348938,0
0.4612642526626587,-1.6598773002624512,1.1875402927398682,0
0.3147892951965332,-1.3976688385009766,1.2478702068328857,0
0.05741596221923828,-0.9342842102050781,1.3054860830307007,0
-0.09842467308044434,-0.38965797424316406,1.4082762002944946,0
-0.19885945320129395,0.19286537170410156,1.4600669145584106,0
-0.17055082321166992,0.6407642364501953,1.467118740081787,0
0.05035543441772461,0.8941183090209961,1.5193085670471191,0
0.3721797466278076,1.0125885009765625,1.591451644897461,0
0.9021974802017212,1.1467704772949219,1.599169135093689,0
1.4394582509994507,1.1388254165649414,1.7723476886749268,0
1.9599106311798096,1.2663307189941406,2.1644375324249268,0
2.588148593902588,1.4336557388305664,2.664168357849121,0
3.2549426555633545,1.7699451446533203,3.027825355529785,0
3.763517379760742,2.217349052429199,3.1069822311401367,0
4.2227396965026855,2.7418737411499023,3.0313704013824463,0
4.556973934173584,3.383702278137207,2.7019596099853516,0
4.838886260986328,4.197343826293945,2.041832685470581,0
4.858649253845215,4.173152923583984,1.4122591018676758,0
4.816096782684326,4.093684196472168,0.668039083480835,0
4.811579704284668,3.389826774597168,0.4188230633735657,0
5.036670207977295,2.7533035278320312,0.1911524534225464,0
5.427801609039307,2.2750720977783203,0.3747871518135071,0
5.881113052368164,2.022152900695801,0.6318553686141968,0
6.298168659210205,2.028376579284668,0.9831596612930298,0
6.640727996826172,2.428211212158203,1.3365185260772705,0
6.578247547149658,3.17647647857666,1.5934569835662842,0
6.274855136871338,4.060300827026367,1.5179493427276611,0
5.6567792892456055,4.857043266296387,1.0945377349853516,0
5.0779266357421875,5.408727645874023,0.6127699017524719,0
4.528609752655029,5.660567283630371,0.2690209150314331,0
4.053950309753418,5.598605155944824,0.14371046423912048,0
3.581437587738037,5.3404340744018555,0.23474639654159546,0
3.2705392837524414,5.056150436401367,0.46197205781936646,0
2.9359230995178223,4.769719123840332,0.8438793420791626,0
1.8403822183609009,4.509310722351074,1.513880968093872,0
0.1578676700592041,4.2311248779296875,2.3488104343414307,0
-1.3073432445526123,3.8153114318847656,3.1763036251068115,0
-2.4045250415802,3.4154224395751953,3.759809970855713,0
-3.0219576358795166,3.082509994506836,4.021775722503662,0
-3.4993786811828613,2.867814064025879,3.9776926040649414,0
-3.827594041824341,2.901371955871582,3.6235153675079346,0
-4.055675506591797,3.0330801010131836,3.092088222503662,0
-4.17074728012085,3.2012367248535156,2.516115665435791,0
-4.114142894744873,3.2650814056396484,2.0745768547058105,0
-3.9631266593933105,3.2726659774780273,1.8579223155975342,0
-3.7875723838806152,3.259762763977051,1.6665760278701782,0
-3.5547170639038086,3.204437255859375,1.3843175172805786,0
-3.1870832443237305,3.141904830932617,0.9304913282394409,0
-2.7082507610321045,3.071409225463867,0.19475245475769043,0
-2.3867688179016113,3.0376968383789062,-0.7840418219566345,0
-2.216524124145508,3.1454343795776367,-1.6933465003967285,0
-2.0454869270324707,3.176565170288086,-2.5322835445404053,0
-1.9418531656265259,3.1430253982543945,-3.209439516067505,0
-1.7988312244415283,2.9516754150390625,-3.7124266624450684,0
-1.5907366275787354,2.6483163833618164,-4.000303268432617,0
-1.2509280443191528,2.274001121520996,-4.060792922973633,0
-0.8371206521987915,1.671346664428711,-3.900855541229248,0
-0.31645429134368896,0.8003206253051758,-3.567862033843994,0
0.25770291686058044,0.09665489196777344,-3.1538100242614746,0
0.7290621995925903,-0.4994783401489258,-2.697596311569214,0
1.0995781421661377,-0.9164714813232422,-2.251551389694214,0
1.5299285650253296,-1.1165142059326172,-1.988839864730835,0
1.6976134777069092,-1.2579879760742188,-1.804924726486206,0
1.9360301494598389,-1.1690082550048828,-1.7346346378326416,0
1.987519383430481,-1.2158279418945312,-1.6028189659118652,0
2.212009906768799,-1.0468416213989258,-1.4835573434829712,0
2.378225326538086,-0.9494714736938477,-1.2710685729980469,0
2.348123550415039,-0.8307266235351562,-1.060233235359192,0
2.252068281173706,-0.5452566146850586,-0.9670593738555908,0
1.8510550260543823,-0.31133270263671875,-0.9114933013916016,0
1.4706745147705078,-0.13641071319580078,-0.9766192436218262,0
1.1495758295059204,-0.18332958221435547,-1.104457974433899,0
1.095368504524231,0.050131797790527344,-1.4193994998931885,0
0.8471434712409973,-0.04634571075439453,-1.741752028465271,0
0.6592332720756531,-0.30744457244873047,-2.026362895965576,0
0.2808886170387268,-0.606175422668457,-2.302548885345459,0
-0.17308911681175232,-0.9589614868164062,-2.659822463989258,0
-0.9092090725898743,-1.4871768951416016,-3.0350501537323,0
-1.449059009552002,-1.7213106155395508,-3.4827356338500977,0
-2.1000001430511475,-2.0725865364074707,-3.8532426357269287,0
-2.7817673683166504,-2.4519882202148438,-4.193086624145508,0
-3.4427521228790283,-2.7276129722595215,-4.529478073120117,0
-4.125236988067627,-3.026073932647705,-4.824626922607422,0
-4.663245677947998,-3.2036614418029785,-5.129220962524414,0
-5.242700099945068,-3.377685546875,-5.256546974182129,0
-5.834355354309082,-3.442971706390381,-5.295007705688477,0
-6.399350166320801,-3.504904270172119,-5.2779035568237305,0
-6.9078898429870605,-3.4536852836608887,-5.101844310760498,0
-7.27955961227417,-3.409329891204834,-4.672788143157959,0
-7.591455936431885,-3.3245177268981934,-4.094757556915283,0
-7.774326324462891,-3.2668094635009766,-3.3424181938171387,0
-7.723104476928711,-3.155510425567627,-2.5002248287200928,0
-7.111416816711426,-3.074909210205078,-1.7127280235290527,0
-5.8000383377075195,-3.0396742820739746,-1.2302348613739014,0
-4.503252983093262,-3.1384572982788086,-0.8919456005096436,0
-3.402470588684082,-3.4118547439575195,-0.614051342010498,0
-2.5344419479370117,-3.8142342567443848,-0.36078906059265137,0
-1.8340600728988647,-4.268821716308594,-0.1730968952178955,0
-1.2486262321472168,-4.73715353012085,-0.08949041366577148,0
-0.7850521802902222,-5.1186394691467285,-0.012145519256591797,0
-0.4787002205848694,-5.42274808883667,0.02018117904663086,0
-0.12758904695510864,-5.632664203643799,-0.01685810089111328,0
0.07582169771194458,-5.7889933586120605,-0.028015613555908203,0
0.11147624254226685,-5.805521488189697,-0.0856020450592041,0
0.05688202381134033,-5.749059677124023,-0.22615861892700195,0
-0.25236377120018005,-5.77947998046875,-0.38596153259277344,0
-0.7493770122528076,-5.855539321899414,-0.4918203353881836,0
-1.2220484018325806,-5.790129661560059,-0.5616188049316406,0
-1.5735074281692505,-5.568533897399902,-0.6013200283050537,0
-1.8404467105865479,-5.233559608459473,-0.6262216567993164,0
-1.8873802423477173,-4.7468109130859375,-0.5985329151153564,0
-1.784733533859253,-4.07484769821167,-0.5184023380279541,0
-1.5671156644821167,-3.2010841369628906,-0.4359745979309082,0
-1.4151928424835205,-2.1998538970947266,-0.3917381763458252,0
-1.1914153099060059,-1.0760393142700195,-0.34742093086242676,0
-1.0504145622253418,0.27552032470703125,-0.2771892547607422,0
-0.9825536608695984,1.6802997589111328,-0.16607332229614258,0
-0.9883518218994141,3.298826217651367,0.09552526473999023,0
-0.9912830591201782,5.233962059020996,0.6456644535064697,0
-1.0270624160766602,7.452054023742676,1.6725666522979736,0
-1.141535758972168,9.746967315673828,3.25549054145813,0
-1.1073405742645264,11.833230972290039,5.708670616149902,0
-0.8682869076728821,13.118812561035156,8.613691329956055,0
-0.3518151640892029,12.33269214630127,11.87893295288086,0
0.30378782749176025,9.85876750946045,13.287447929382324,0
0.6382335424423218,6.9521074295043945,12.49882698059082,0
0.7367156744003296,4.665441513061523,10.825221061706543,0
0.8268019556999207,3.048272132873535,8.7843656539917,0
1.020176887512207,1.970850944519043,6.65690803527832,0
1.3779140710830688,1.2586002349853516,4.738980293273926,0
1.8643836975097656,0.8953857421875,2.8371434211730957,0
2.0636751651763916,0.9439821243286133,1.1163904666900635,0
2.066213607788086,1.684173583984375,-0.25978946685791016,0
1.6410109996795654,2.914327621459961,-1.1890323162078857,0
0.9105687737464905,4.196015357971191,-1.8502832651138306,0
0.3220979571342468,5.409073829650879,-2.143711566925049,0
-0.22569480538368225,6.387861251831055,-2.336843252182007,0
-1.0556410551071167,7.033810615539551,-2.4237217903137207,0
-2.1307320594787598,7.045516014099121,-2.4303011894226074,0
-3.460977554321289,6.555390357971191,-2.672003746032715,0
-4.774945259094238,5.383313179016113,-3.369874954223633,0
-5.777751922607422,3.689279556274414,-4.020322322845459,0
-6.363338947296143,1.2598562240600586,-4.409896373748779,0
-6.233391761779785,-1.4518623352050781,-4.446135997772217,0
-5.4306511878967285,-3.547041416168213,-4.259053707122803,0
-4.20377254486084,-4.74959659576416,-4.171403884887695,0
-2.3006680011749268,-5.306910991668701,-4.325418472290039,0
-0.5855096578598022,-5.434550762176514,-4.664687156677246,0
0.720828115940094,-5.323776721954346,-4.950203895568848,0
1.5276861190795898,-5.096359729766846,-5.1158881187438965,0
1.9225685596466064,-4.780778884887695,-5.263128757476807,0
1.8863780498504639,-4.486949920654297,-5.468624114990234,0
1.7049241065979004,-4.111983299255371,-5.6050310134887695,0
1.3352818489074707,-3.746875286102295,-5.499325752258301,0
1.0478246212005615,-3.2506814002990723,-5.156800746917725,0
0.8600232601165771,-2.645277500152588,-4.492827415466309,0
0.752077579498291,-1.9501914978027344,-3.46186900138855,0
0.46318864822387695,-1.1730823516845703,-2.239467144012451,0
-0.2005070447921753,-0.21904659271240234,-0.9827996492385864,0
-1.3469997644424438,0.4249601364135742,0.8796825408935547,0
-2.575030565261841,1.0849847793579102,2.969938278198242,0
-3.632370948791504,1.8025875091552734,4.081182956695557,0
-4.15720796585083,2.5414161682128906,3.7712926864624023,0
-4.392858505249023,2.9336585998535156,2.875842332839966,0
-4.2972259521484375,2.8372621536254883,1.8586103916168213,0
-3.8992395401000977,2.163238525390625,0.721956729888916,0
-3.169949769973755,1.1765966415405273,-0.5233376026153564,0
-2.2483837604522705,0.4644031524658203,-1.828129529953003,0
-1.3029910326004028,0.12940311431884766,-3.048581123352051,0
-0.3894408941268921,0.1351633071899414,-3.978773593902588,0
0.5469920635223389,0.0864114761352539,-4.472247123718262,0
1.3132258653640747,0.1312084197998047,-4.566798210144043,0
1.9613299369812012,0.2884664535522461,-4.3628950119018555,0
2.3643999099731445,0.29021739959716797,-3.801486015319824,0
2.8963894844055176,0.21328163146972656,-2.8077874183654785,0
3.41471529006958,0.10818672180175781,-1.5415241718292236,0
3.4143176078796387,-0.0847005844116211,-0.6543850898742676,0
2.6005492210388184,-0.4658823013305664,-0.17812880873680115,0
1.7329740524291992,-0.894200325012207,-0.11778843402862549,0
1.2007086277008057,-1.0778064727783203,-0.2215760350227356,0
0.7109115123748779,-1.3517112731933594,-0.25721925497055054,0
0.38055419921875,-1.6559343338012695,-0.20554286241531372,0
0.24558806419372559,-1.9879403114318848,-0.08312799781560898,0
0.23445892333984375,-2.2639236450195312,0.11033114790916443,0
0.23232555389404297,-2.4576640129089355,0.3327973186969757,0
0.2295933961868286,-2.5334529876708984,0.5619125962257385,0
0.1590646505355835,-2.4700093269348145,0.7212262153625488,0
0.08257770538330078,-2.243710517883301,0.7780364751815796,0
-0.11498737335205078,-1.9672274589538574,0.7984873056411743,0
-0.19688010215759277,-1.6286945343017578,0.7772008776664734,0
-0.29727232456207275,-1.2473220825195312,0.6656109094619751,0
-0.25797605514526367,-0.8087339401245117,0.3907572627067566,0
-0.203238844871521,-0.6835412979125977,0.15683244168758392,0
-0.22665023803710938,-0.5653181076049805,-0.18206824362277985,0
-0.3528047800064087,-0.4135246276855469,-0.4254690110683441,0
-0.34519708156585693,-0.17087554931640625,-0.5525124073028564,0
-0.009787797927856445,-0.11713409423828125,-0.4750055968761444,0
0.10793793201446533,-0.2544221878051758,-0.1836250126361847,0
0.41493141651153564,-0.2859678268432617,0.1990048587322235,0
0.727660059928894,-0.34804534912109375,0.5790220499038696,0
0.9027729034423828,-0.60797119140625,0.9848555326461792,0
1.0552953481674194,-0.7379083633422852,1.2942099571228027,0
1.1254801750183105,-0.9006052017211914,1.5023337602615356,0
1.2617685794830322,-1.0744819641113281,1.5733933448791504,0
1.4427096843719482,-1.206904411315918,1.5166599750518799,0
1.4695640802383423,-1.2812480926513672,1.2794148921966553,0
1.5072567462921143,-1.3478584289550781,0.8736934065818787,0
1.6610286235809326,-1.4378156661987305,0.43600133061408997,0
1.7006807327270508,-1.424422264099121,0.16550672054290771,0
1.7073473930358887,-1.3747453689575195,0.09879255294799805,0
1.740553379058838,-1.2816200256347656,0.2630230188369751,0
1.5778313875198364,-0.8796472549438477,0.6224353909492493,0
1.2506558895111084,-0.14293766021728516,1.02045738697052,0
0.84550940990448,0.4879627227783203,1.3161052465438843,0
0.5611696243286133,0.8885498046875,1.42960786819458,0
0.2808206081390381,0.7767305374145508,1.561384916305542,0
0.279771089553833,0.54754638671875,1.673858404159546,0
0.32315587997436523,0.3277902603149414,1.726254940032959,0
0.5201535224914551,0.2417449951171875,1.7464146614074707,0
0.8097848892211914,0.31555938720703125,1.863741397857666,0
1.3276480436325073,0.6089582443237305,2.1647162437438965,0
1.9798831939697266,0.9711437225341797,2.4312329292297363,0
2.588955879211426,1.4713048934936523,2.5158417224884033,0
3.2282280921936035,1.9583749771118164,2.5767881870269775,0
3.7338764667510986,2.415236473083496,2.5591580867767334,0
4.193543910980225,2.7984676361083984,2.381044864654541,0
4.669168472290039,2.8114356994628906,2.0775561332702637,0
4.906216621398926,2.5187606811523438,1.6890907287597656,0
5.083670616149902,2.0807876586914062,1.3758213520050049,0
5.196966171264648,1.6913537979125977,1.0485559701919556,0
5.364119529724121,1.448598861694336,0.6704272031784058,0
5.1003875732421875,1.503178596496582,0.4010270833969116,0
4.519038200378418,1.766413688659668,0.4028809368610382,0
4.01309871673584,2.3195323944091797,0.42189010977745056,0
3.477891683578491,3.0212764739990234,0.2870709002017975,0
3.0285725593566895,3.6491470336914062,-0.10160112380981445,0
2.5431675910949707,4.231958389282227,-0.6242820024490356,0
2.234416961669922,4.49727725982666,-1.1031498908996582,0
2.0036325454711914,4.409794807434082,-1.241929292678833,0
1.8477615118026733,4.194943428039551,-0.9443308115005493,0
1.933769941329956,3.9154014587402344,-0.17935721576213837,0
2.115407705307007,3.636148452758789,0.838107168674469,0
2.218151807785034,3.517671585083008,1.859370470046997,0
1.7964630126953125,3.7150983810424805,2.679906129837036,0
0.4587208032608032,4.093661308288574,3.152656316757202,0
-1.1770379543304443,4.55726432800293,3.4227607250213623,0
-2.489514112472534,4.869484901428223,3.583530902862549,0
-3.1907413005828857,5.026641845703125,3.678739070892334,0
-3.5495858192443848,4.977081298828125,3.59507417678833,0
-3.750471353530884,4.767030715942383,3.179029703140259,0
-3.8557238578796387,4.521365165710449,2.577091693878174,0
-3.961066722869873,4.324075698852539,1.855290174484253,0
-4.026379585266113,4.1608734130859375,0.9925346374511719,0
-4.0243706703186035,4.0866241455078125,0.03935837745666504,0
-3.969212055206299,4.129523277282715,-0.9600645899772644,0
-3.769367218017578,4.210013389587402,-2.027780771255493,0
-3.2106149196624756,4.172053337097168,-3.0370543003082275,0
-2.3921945095062256,4.055813789367676,-3.9093985557556152,0
-1.6792232990264893,3.8033056259155273,-4.471190452575684,0
-1.1077698469161987,3.474000930786133,-4.770859718322754,0
-0.7711365222930908,3.024738311767578,-4.770303726196289,0
-0.37850141525268555,2.573184013366699,-4.562875747680664,0
-0.07265692949295044,1.8664112091064453,-4.029062271118164,0
0.40662258863449097,1.1948165893554688,-3.4557127952575684,0
0.9458988904953003,0.5997381210327148,-2.8144795894622803,0
1.4381316900253296,0.0025682449340820312,-2.0890870094299316,0
1.959294319152832,-0.3886137008666992,-1.3117461204528809,0
2.370180368423462,-0.8063039779663086,-0.575718879699707,0
2.591449737548828,-1.148087501525879,-0.050682783126831055,0
2.728429079055786,-1.2900028228759766,0.2482590675354004,0
2.7133424282073975,-1.5889434814453125,0.4612259864807129,0
2.521199941635132,-1.6264724731445312,0.42120814323425293,0
2.1406867504119873,-1.8049535751342773,0.3705580234527588,0
1.6557104587554932,-1.7970404624938965,0.3052530288696289,0
1.26943838596344,-1.7157697677612305,0.2212982177734375,0
1.043403148651123,-1.5781879425048828,0.1092689037322998,0
0.605657696723938,-1.6834182739257812,-0.06657528877258301,0
0.3849852979183197,-1.3619022369384766,-0.2603743076324463,0
0.15389755368232727,-1.1906871795654297,-0.3927805423736572,0
-0.001340031623840332,-1.085984230041504,-0.5548391342163086,0
-0.1977062225341797,-1.0380735397338867,-0.8427159786224365,0
-0.4301259517669678,-1.0466909408569336,-1.1878019571304321,0
-0.6432948112487793,-0.9895811080932617,-1.5934052467346191,0
-0.9425417184829712,-1.0841150283813477,-2.005537986755371,0
-1.196422815322876,-1.1935663223266602,-2.398754119873047,0
-1.4386346340179443,-1.3942623138427734,-2.756939649581909,0
-1.7508790493011475,-1.6308927536010742,-3.1477110385894775,0
-2.103041887283325,-2.053858757019043,-3.471078872680664,0
-2.4426450729370117,-2.2061338424682617,-3.875659704208374,0
-2.897273302078247,-2.499288558959961,-4.217870712280273,0
-3.3889126777648926,-2.7465128898620605,-4.605613708496094,0
-3.9473190307617188,-3.045668601989746,-4.998706340789795,0
-4.37238073348999,-3.3390374183654785,-5.376300811767578,0
-4.729482650756836,-3.6336312294006348,-5.619256019592285,0
-5.033576488494873,-3.9437599182128906,-5.636868476867676,0
-5.289813041687012,-4.262305736541748,-5.4745283126831055,0
-5.457703113555908,-4.534407138824463,-5.088901519775391,0
-5.6736273765563965,-4.7078094482421875,-4.46735954284668,0
-5.676117420196533,-4.658720016479492,-3.733342170715332,0
-4.931732177734375,-4.55290412902832,-3.024707555770874,0
-3.995387315750122,-4.501007556915283,-2.268601894378662,0
-3.2074179649353027,-4.458054065704346,-1.444822907447815,0
-2.5047552585601807,-4.460359573364258,-0.6120383739471436,0
-1.942396640777588,-4.493943214416504,0.14497876167297363,0
-1.4869451522827148,-4.542289733886719,0.8392233848571777,0
-1.06197190284729,-4.562511920928955,1.3782899379730225,0
-0.7725211381912231,-4.547445774078369,1.724302053451538,0
-0.6011133193969727,-4.520914554595947,1.851083517074585,0
-0.6162996292114258,-4.5136613845825195,1.7247135639190674,0
-0.6618139147758484,-4.525144100189209,1.4160823822021484,0
-0.9213193655014038,-4.5211968421936035,0.9477603435516357,0
-1.1792151927947998,-4.522555351257324,0.42554259300231934,0
-1.574509620666504,-4.449530124664307,-0.1572411060333252,0
-1.870897889137268,-4.323040962219238,-0.6731665134429932,0
-2.1744205951690674,-4.152102470397949,-1.1933375597000122,0
-2.4097115993499756,-3.9314680099487305,-1.5924973487854004,0
-2.480207920074463,-3.510225772857666,-1.8622550964355469,0
-2.3612775802612305,-2.9506454467773438,-2.017655372619629,0
-2.2029480934143066,-2.231329917907715,-2.032902240753174,0
-1.94003427028656,-1.3262739181518555,-1.8483911752700806,0
-1.6797429323196411,-0.20957374572753906,-1.5432853698730469,0
-1.392960548400879,0.9988393783569336,-1.0967013835906982,0
-1.1365071535110474,2.3489065170288086,-0.4687061309814453,0
-0.9047623872756958,3.8976125717163086,0.4046952724456787,0
-0.6443107724189758,5.445955276489258,1.5182929039001465,0
-0.4860697388648987,7.089256286621094,2.9052281379699707,0
-0.2741158604621887,8.563838005065918,4.740614414215088,0
0.2151477336883545,9.636934280395508,7.163722038269043,0
0.9645141363143921,9.647908210754395,9.465982437133789,0
1.7018868923187256,8.422524452209473,11.137877464294434,0
2.445117950439453,6.506902694702148,11.594877243041992,0
2.632655620574951,4.82716178894043,10.51885986328125,0
2.686476230621338,3.617438316345215,8.823030471801758,0
2.7334630489349365,2.8154525756835938,6.703779220581055,0
2.8997244834899902,2.2830991744995117,4.302495956420898,0
3.2452328205108643,2.1290950775146484,1.9953107833862305,0
3.314579725265503,2.4954071044921875,-0.15607988834381104,0
2.9913599491119385,3.403881072998047,-1.9123283624649048,0
2.1555161476135254,4.612699508666992,-2.9796502590179443,0
1.3534393310546875,5.691082000732422,-3.385887622833252,0
0.661864161491394,7.324938774108887,-2.9722094535827637,0
-0.08170828223228455,8.883723258972168,-2.0843074321746826,0
-1.0155946016311646,10.177474021911621,-1.1978520154953003,0
-2.1541144847869873,10.650627136230469,-0.5319569110870361,0
-3.800493001937866,10.054584503173828,0.0497744083404541,0
-5.69503927230835,8.457208633422852,0.18126296997070312,0
-6.964169502258301,5.364978790283203,-0.3937184810638428,0
-7.267012119293213,1.8252735137939453,-1.4187424182891846,0
-6.887912273406982,-1.1039066314697266,-2.293139696121216,0
-6.095549583435059,-3.128654956817627,-3.105541229248047,0
-5.269601821899414,-4.533909797668457,-3.959872245788574,0
-4.002562046051025,-5.434275150299072,-4.992158889770508,0
-2.7356948852539062,-5.884512901306152,-6.029957294464111,0
-1.7003858089447021,-6.028061866760254,-6.740153789520264,0
-0.8447707891464233,-5.951028823852539,-7.097875595092773,0
-0.20438116788864136,-5.727691173553467,-7.136794090270996,0
0.2922097146511078,-5.363058090209961,-6.929751873016357,0
0.6412187814712524,-4.845502853393555,-6.4384942054748535,0
1.0301783084869385,-4.337921619415283,-5.6795172691345215,0
1.3114559650421143,-3.790290355682373,-4.651535987854004,0
1.469454050064087,-3.2030129432678223,-3.363677978515625,0
1.5128133296966553,-2.528879165649414,-1.9192395210266113,0
1.275658130645752,-1.5942506790161133,-0.6044801473617554,0
0.7453180551528931,-0.546478271484375,0.6906450986862183,0
-0.3924078941345215,0.3805580139160156,2.380133628845215,0
-1.9878802299499512,1.130178451538086,3.6284193992614746,0
-3.3418679237365723,1.737675666809082,3.374643325805664,0
-4.272512435913086,2.2990951538085938,2.1989970207214355,0
-4.565594673156738,2.6409215927124023,0.8455687761306763,0
-4.199191570281982,2.5758495330810547,-0.2157144546508789,0
-3.305675745010376,2.175126075744629,-1.1493748426437378,0
-2.180265426635742,1.5622501373291016,-1.8802227973937988,0
-0.8839566707611084,0.9678754806518555,-2.5648603439331055,0
0.26630157232284546,0.5287361145019531,-3.1332623958587646,0
1.2118768692016602,0.13477039337158203,-3.5493392944335938,0
1.9203851222991943,-0.20699405670166016,-3.7894487380981445,0
2.2227420806884766,-0.45859622955322266,-3.9147748947143555,0
2.17199444770813,-0.5965595245361328,-3.868152379989624,0
1.7751246690750122,-0.6238126754760742,-3.625398874282837,0
1.2065365314483643,-0.7369298934936523,-3.0902905464172363,0
0.6889927387237549,-0.8953990936279297,-2.369802951812744,0
0.39332520961761475,-1.2235174179077148,-1.6433523893356323,0
0.2030782699584961,-1.5607891082763672,-1.0100977420806885,0
0.08797967433929443,-1.6941747665405273,-0.6305236220359802,0
-0.1073380708694458,-1.8604826927185059,-0.27838459610939026,0
-0.289772629737854,-2.0667428970336914,0.10966575145721436,0
-0.30177032947540283,-2.233901023864746,0.5128961801528931,0
-0.28748977184295654,-2.3380560874938965,0.8244326114654541,0
-0.23530030250549316,-2.34816837310791,0.9016059637069702,0
-0.14074265956878662,-2.374361515045166,0.8654707670211792,0
-0.18861675262451172,-2.230213165283203,0.6295933723449707,0
-0.3244255781173706,-2.0141167640686035,0.26626870036125183,0
-0.4865790605545044,-1.8004469871520996,-0.07503055036067963,0
-0.7018636465072632,-1.6180286407470703,-0.2923537790775299,0
-0.7836272716522217,-1.500321388244629,-0.4203175902366638,0
-0.7672981023788452,-1.442373275756836,-0.44597283005714417,0
-0.661659836769104,-1.302872657775879,-0.4455724358558655,0
-0.5260242223739624,-1.2013463973999023,-0.4359862804412842,0
-0.38681018352508545,-1.1735916137695312,-0.43202850222587585,0
-0.20371150970458984,-1.0832500457763672,-0.38923490047454834,0
0.06604635715484619,-0.9399986267089844,-0.30391696095466614,0
0.3985016345977783,-0.8156337738037109,-0.14096353948116302,0
0.64264976978302,-0.7460603713989258,0.0801689624786377,0
0.994723916053772,-0.5901336669921875,0.35018688440322876,0
1.2419581413269043,-0.4005298614501953,0.6502217650413513,0
1.3989869356155396,-0.33985424041748047,1.025869369506836,0
1.4203956127166748,-0.33145618438720703,1.2997682094573975,0
1.3204399347305298,-0.4231739044189453,1.3947272300720215,0
1.189854383468628,-0.4380474090576172,1.2980284690856934,0
1.0978922843933105,-0.3619041442871094,1.040257215499878,0
1.0681250095367432,-0.28102779388427734,0.7410613298416138,0
1.0117230415344238,-0.19786453247070312,0.4778546392917633,0
1.0123112201690674,-0.1219644546508789,0.2804926633834839,0
1.0964393615722656,-0.11774253845214844,0.23407849669456482,0
