AccX,AccY,AccZ,stepCount
0.7924085855484009,7.309309005737305,2.2270565032958984,10
0.7924085855484009,7.309309005737305,2.2270565032958984,5.531876564025879
1.0756664276123047,9.136917114257812,3.226996660232544,-1.011225700378418
1.5281563997268677,10.569738388061523,4.600587844848633,4.123752593994141
2.1636641025543213,11.214677810668945,6.232025146484375,-1.1013962030410767
2.911360502243042,10.672203063964844,7.838101863861084,-4.038655757904053
3.288851022720337,8.556405067443848,8.53270149230957,-0.07856935262680054
3.207409143447876,5.857666969299316,8.108806610107422,-0.544755220413208
2.7850170135498047,3.503040313720703,7.1120100021362305,0.498807430267334
2.0952627658843994,1.8654804229736328,5.907135009765625,-0.48770803213119507
1.3688695430755615,0.8315248489379883,4.760074615478516,0.9411115646362305
0.8341414928436279,0.34009742736816406,3.7153804302215576,0
0.519183874130249,0.3705902099609375,2.696620225906372,0
0.2646399736404419,0.9406147003173828,1.7903475761413574,0
0.13015413284301758,1.890864372253418,1.042341709136963,0
-0.010561943054199219,3.0407638549804688,0.3596482276916504,0
-0.2548965811729431,4.093147277832031,-0.43521833419799805,0
-0.5614067912101746,4.586647033691406,-1.676027536392212,0
-0.9420753717422485,4.400213241577148,-3.192136287689209,0
-1.6320455074310303,4.175795555114746,-4.5839948654174805,0
-2.391111373901367,3.6152400970458984,-5.6857452392578125,0
-2.8454322814941406,3.150453567504883,-6.314805030822754,0
-3.1715903282165527,2.921255111694336,-6.498401641845703,0
-3.6272244453430176,2.6705188751220703,-6.143607139587402,0
-4.056524276733398,2.2777652740478516,-5.228664398193359,0
-4.567699909210205,1.2877006530761719,-3.923109531402588,0
-5.044014930725098,-0.3010082244873047,-2.5490758419036865,0
-5.4197564125061035,-1.9243626594543457,-1.0370054244995117,0
-5.657281398773193,-3.110565185546875,0.45485079288482666,0
-5.563886642456055,-3.706206798553467,1.5926328897476196,0
-5.113244533538818,-4.023756504058838,2.0993380546569824,0
-4.104049205780029,-4.176319122314453,1.6762686967849731,0
-2.4103519916534424,-4.453318119049072,0.5441021919250488,0
-1.022957682609558,-4.720280647277832,-0.9684913754463196,0
-0.02399420738220215,-4.993459224700928,-2.435720443725586,0
0.3614645302295685,-5.018989086151123,-3.699798107147217,0
0.5699861645698547,-4.928319454193115,-4.703283786773682,0
0.47231146693229675,-4.651977062225342,-5.507840156555176,0
0.23544634878635406,-4.173346042633057,-6.061477184295654,0
-0.14892786741256714,-3.4257946014404297,-6.378138542175293,0
-0.6082875728607178,-2.3692564964294434,-6.473151206970215,0
-1.2069675922393799,-1.1027030944824219,-6.259819507598877,0
-1.7512543201446533,0.2962923049926758,-5.674437522888184,0
-2.1881825923919678,1.850510597229004,-4.652648448944092,0
-2.62127423286438,3.2236032485961914,-2.2443790435791016,0
-2.9163284301757812,4.5220136642456055,0.7044022083282471,0
-2.9135398864746094,5.405839920043945,2.803473949432373,0
-2.308298110961914,5.4532670974731445,3.1606221199035645,0
-1.1744530200958252,4.332270622253418,2.169814109802246,0
-0.10026085376739502,2.8156776428222656,1.0312504768371582,0
0.9748812317848206,1.7440834045410156,-0.09786492586135864,0
1.566625952720642,1.0215473175048828,-1.1943336725234985,0
1.947333812713623,0.4538087844848633,-2.3057479858398438,0
2.170177459716797,-0.08631038665771484,-3.201241970062256,0
2.315723180770874,-0.4772186279296875,-3.507340669631958,0
2.5952789783477783,-0.5328330993652344,-3.0892138481140137,0
2.9316492080688477,-0.5238981246948242,-2.123690128326416,0
2.89605975151062,-0.546229362487793,-0.864324688911438,0
2.1492886543273926,-0.6166143417358398,0.048086345195770264,0
1.149649977684021,-0.6153497695922852,0.1174924373626709,0
0.3088856339454651,-0.5135393142700195,-0.47104087471961975,0
-0.22778558731079102,-0.46640968322753906,-1.1590651273727417,0
-0.8372761011123657,-0.42592716217041016,-1.6250624656677246,0
-1.1450849771499634,-0.5044336318969727,-1.788240671157837,0
-1.1419181823730469,-0.7806205749511719,-1.621948003768921,0
-0.9185497760772705,-1.0031490325927734,-1.2948373556137085,0
-0.6686124801635742,-1.2868728637695312,-0.7929821014404297,0
-0.4446570873260498,-1.5002565383911133,-0.28612950444221497,0
-0.25166022777557373,-1.6912870407104492,0.020450830459594727,0
-0.250368595123291,-1.7166385650634766,0.12508073449134827,0
-0.4006232023239136,-1.7272729873657227,0.07862192392349243,0
-0.42748570442199707,-1.6228351593017578,-0.024665512144565582,0
-0.49632084369659424,-1.4585142135620117,-0.0903063714504242,0
-0.4926060438156128,-1.2559471130371094,-0.1722666174173355,0
-0.4714927673339844,-1.0988683700561523,-0.24807243049144745,0
-0.2968677282333374,-0.8748455047607422,-0.3508278429508209,0
-0.09805583953857422,-0.6915416717529297,-0.4805114269256592,0
0.17030978202819824,-0.5297613143920898,-0.6420667171478271,0
0.43825870752334595,-0.4206209182739258,-0.7092283368110657,0
0.6934373378753662,-0.20868778228759766,-0.7185012102127075,0
0.9858275055885315,-0.15475177764892578,-0.6892492771148682,0
1.2867720127105713,-0.16057395935058594,-0.5859162211418152,0
1.531762957572937,-0.17825031280517578,-0.4179723858833313,0
1.737816333770752,-0.2962017059326172,-0.25710007548332214,0
1.86934232711792,-0.47600364685058594,-0.06724828481674194,0
1.931023359298706,-0.6339206695556641,0.08455261588096619,0
1.9061636924743652,-0.8417139053344727,0.2223178893327713,0
2.0680556297302246,-1.0777063369750977,0.3556068539619446,0
2.09399151802063,-1.2796401977539062,0.47247761487960815,0
1.8213287591934204,-1.406926155090332,0.6305750608444214,0
1.6236944198608398,-1.3735246658325195,0.8036469221115112,0
1.3292179107666016,-1.2752199172973633,0.8216915130615234,0
0.9696721434593201,-0.9326944351196289,0.8254324793815613,0
0.47870123386383057,-0.46813201904296875,0.8336029648780823,0
0.1915757656097412,-0.010756492614746094,0.8721999526023865,0
-0.07803869247436523,0.32233142852783203,0.8904967308044434,0
-0.3036210536956787,0.4667654037475586,1.0222041606903076,0
-0.49507105350494385,0.5853157043457031,1.175952434539795,0
-0.9496228694915771,0.6850204467773438,1.2913074493408203,0
-0.9349610805511475,0.6511116027832031,1.4631154537200928,0
-0.8461114168167114,0.5817146301269531,1.5946130752563477,0
-0.8005574941635132,0.4814891815185547,1.6511290073394775,0
-0.7362017631530762,0.34795093536376953,1.7751314640045166,0
-0.5650321245193481,0.28379058837890625,1.8628407716751099,0
-0.38118505477905273,0.2648782730102539,1.9814045429229736,0
-0.08762931823730469,0.27431297302246094,2.0862503051757812,0
0.2806590795516968,0.3860359191894531,2.064089775085449,0
0.8131299018859863,0.7719449996948242,1.9431344270706177,0
1.3815090656280518,1.326319694519043,1.8473079204559326,0
2.07304048538208,1.9770565032958984,1.6086080074310303,0
2.7691218852996826,2.3388166427612305,1.2644572257995605,0
3.4545021057128906,2.5862483978271484,0.8582521080970764,0
3.910977840423584,2.6307802200317383,0.573800802230835,0
4.308493614196777,2.398448944091797,0.4942312240600586,0
4.719694137573242,2.0905275344848633,0.5796573162078857,0
5.181885719299316,1.819657325744629,0.557276725769043,0
5.577282905578613,1.5311384201049805,0.6313031911849976,0
5.8359293937683105,1.378432273864746,0.6960551142692566,0
5.901917934417725,1.3713874816894531,0.9418390989303589,0
5.709478378295898,1.5891237258911133,1.2437843084335327,0
5.386213302612305,2.038784980773926,1.4839224815368652,0
4.861173629760742,2.569554328918457,1.583196759223938,0
4.470097541809082,3.2124385833740234,1.570913314819336,0
3.8590493202209473,3.8045291900634766,1.649570107460022,0
3.0226330757141113,4.175782203674316,1.9282643795013428,0
2.4001858234405518,4.197109222412109,2.023832082748413,0
1.9210463762283325,3.9524831771850586,1.671486735343933,0
1.6989116668701172,3.5713701248168945,0.9185754060745239,0
1.4526642560958862,3.0731754302978516,0.03344610333442688,0
1.2020819187164307,2.756964683532715,-0.5352044105529785,0
1.062706470489502,2.4647817611694336,-0.5526970028877258,0
1.1107045412063599,2.0032052993774414,-0.06546181440353394,0
1.085778832435608,1.4085912704467773,0.6933162808418274,0
0.6103342771530151,0.8844032287597656,1.4959137439727783,0
-0.3183242082595825,0.6384744644165039,2.0330288410186768,0
-1.29147207736969,0.6108217239379883,2.2653398513793945,0
-2.2492527961730957,0.964350700378418,2.266721248626709,0
-2.903611183166504,1.5585193634033203,2.181096076965332,0
-3.4618191719055176,2.1286067962646484,2.081240177154541,0
-3.8391096591949463,2.4577341079711914,1.9720122814178467,0
-3.895669460296631,2.610997200012207,1.8345227241516113,0
-3.852707624435425,2.5717411041259766,1.635819673538208,0
-3.656104803085327,2.4258861541748047,1.2703739404678345,0
-3.273151159286499,2.25441837310791,0.5881552696228027,0
-2.7102363109588623,2.207427978515625,-0.24841201305389404,0
-2.688380241394043,2.259915351867676,-1.0484648942947388,0
-2.814636707305908,2.2624568939208984,-1.7985423803329468,0
-2.9307479858398438,2.283620834350586,-2.4597136974334717,0
-2.8277220726013184,2.1962175369262695,-3.010915756225586,0
-2.5293500423431396,2.0455846786499023,-3.5242080688476562,0
-2.1466217041015625,1.8341007232666016,-3.8851282596588135,0
-1.800140380859375,1.6528081893920898,-4.113995552062988,0
-1.5505870580673218,1.5186023712158203,-4.044858932495117,0
-1.3733057975769043,1.4962024688720703,-3.8397035598754883,0
-1.273515224456787,1.5858068466186523,-3.593748092651367,0
-1.2406946420669556,1.6826248168945312,-3.333340644836426,0
-1.0638227462768555,1.8686046600341797,-3.103888511657715,0
-0.6993148922920227,1.883742332458496,-2.8501834869384766,0
-0.12408283352851868,1.9034090042114258,-2.504352331161499,0
0.4560762047767639,1.8083772659301758,-1.999971866607666,0
1.0422072410583496,1.7304315567016602,-1.4374794960021973,0
1.5982270240783691,1.5594673156738281,-0.8761007785797119,0
2.0689868927001953,1.371795654296875,-0.37224626541137695,0
2.346269369125366,1.0351858139038086,0.18360424041748047,0
2.4465484619140625,0.9292869567871094,0.5417416095733643,0
2.359229564666748,0.6488351821899414,0.7207958698272705,0
2.1153860092163086,0.3964996337890625,0.6817963123321533,0
1.566387414932251,0.28162384033203125,0.4140772819519043,0
1.046870470046997,0.15790176391601562,-0.005379438400268555,0
0.6927351355552673,0.0036611557006835938,-0.5549466609954834,0
0.2289833426475525,-0.06393146514892578,-1.0555448532104492,0
-0.030346274375915527,-0.07842636108398438,-1.4863941669464111,0
-0.38169175386428833,-0.11394119262695312,-1.8673391342163086,0
-0.685867428779602,-0.31615447998046875,-2.1585681438446045,0
-1.2277090549468994,-0.813694953918457,-2.4590768814086914,0
-1.420430064201355,-0.9508914947509766,-2.748037338256836,0
-1.5918807983398438,-1.278151512145996,-3.011333465576172,0
-1.9294261932373047,-1.7019753456115723,-3.217803716659546,0
-2.2256836891174316,-2.0451812744140625,-3.59955096244812,0
-2.558314561843872,-2.4080562591552734,-4.037071704864502,0
-3.0197219848632812,-2.718441963195801,-4.633557319641113,0
-3.4079272747039795,-3.011767864227295,-5.119317054748535,0
-3.8463199138641357,-3.2182350158691406,-5.55014181137085,0
-4.2165632247924805,-3.4547629356384277,-5.778235912322998,0
-4.467004299163818,-3.6348986625671387,-5.885614395141602,0
-4.657973289489746,-3.7920022010803223,-5.834415435791016,0
-4.830485820770264,-3.8089747428894043,-5.545723915100098,0
-4.850977420806885,-3.7222886085510254,-5.011608600616455,0
-4.73805570602417,-3.5948376655578613,-4.379530429840088,0
-4.097269058227539,-3.4777731895446777,-3.7154064178466797,0
-3.517669677734375,-3.4630331993103027,-2.9148662090301514,0
-3.0195260047912598,-3.463143825531006,-2.0335710048675537,0
-2.6138525009155273,-3.5198326110839844,-1.282517910003662,0
-2.2620131969451904,-3.5836925506591797,-0.6216526031494141,0
-2.0120341777801514,-3.796360492706299,-0.12135982513427734,0
-1.7853996753692627,-4.090831279754639,0.12101364135742188,0
-1.6567527055740356,-4.459522247314453,0.14374971389770508,0
-1.4802520275115967,-4.8301005363464355,0.0324554443359375,0
-1.394256591796875,-5.123130798339844,-0.14665508270263672,0
-1.4247746467590332,-5.3668532371521,-0.29152774810791016,0
-1.5378957986831665,-5.5657124519348145,-0.32384300231933594,0
-1.5825238227844238,-5.7816033363342285,-0.22978425025939941,0
-1.6012520790100098,-5.930600166320801,-0.04075503349304199,0
-1.7392898797988892,-6.108274936676025,0.16659879684448242,0
-1.8593578338623047,-6.223583221435547,0.3755621910095215,0
-2.0059759616851807,-6.276411533355713,0.5837392807006836,0
-2.2547717094421387,-6.41232967376709,0.7669093608856201,0
-2.4874532222747803,-6.5135908126831055,0.8910653591156006,0
-2.722517490386963,-6.455314636230469,0.9221112728118896,0
-2.9238317012786865,-6.093533039093018,0.8520879745483398,0
-3.105212688446045,-5.623861789703369,0.6008205413818359,0
-3.1375491619110107,-4.713249206542969,0.22219204902648926,0
-2.9783921241760254,-3.390136241912842,-0.16543054580688477,0
-2.6005020141601562,-1.6350727081298828,-0.6808298826217651,0
-2.152388095855713,0.3944272994995117,-1.1369765996932983,0
-1.6181559562683105,2.6057262420654297,-1.5755093097686768,0
-1.1275014877319336,5.080988883972168,-1.8892297744750977,0
-0.7855604290962219,8.072288513183594,-2.078669548034668,0
-0.7247669100761414,11.6328763961792,-2.107306957244873,0
-0.9246997833251953,15.47325325012207,-1.5515587329864502,0
-1.266846776008606,18.612102508544922,0.006732463836669922,0
-1.6119903326034546,20.294841766357422,2.550666093826294,0
-1.7651379108428955,18.970230102539062,5.63557767868042,0
-1.1139062643051147,15.140408515930176,8.857993125915527,0
0.12927785515785217,11.153624534606934,11.315390586853027,0
1.3603869676589966,7.900086402893066,12.738191604614258,0
2.7684812545776367,5.851595878601074,12.919332504272461,0
3.850088357925415,4.847078323364258,11.493358612060547,0
4.298272609710693,4.654775619506836,9.182000160217285,0
3.7195634841918945,4.8473968505859375,6.513387680053711,0
2.4091899394989014,5.029148101806641,3.795079231262207,0
0.5834094882011414,4.911816596984863,1.2690134048461914,0
-1.316065788269043,4.6227216720581055,-0.8292964696884155,0
-2.7588398456573486,4.238122940063477,-2.615473747253418,0
-3.66462779045105,3.5853090286254883,-4.115314483642578,0
-4.089925765991211,2.6403141021728516,-5.443951606750488,0
-4.032182216644287,1.5566883087158203,-6.6972246170043945,0
-3.747048854827881,0.4119291305541992,-7.756560802459717,0
-3.518836498260498,-0.7113637924194336,-8.480131149291992,0
-3.22291898727417,-1.8500399589538574,-8.633161544799805,0
-2.9862637519836426,-3.0650415420532227,-8.294677734375,0
-2.793288230895996,-4.341945648193359,-7.518177032470703,0
-2.563807964324951,-5.4980950355529785,-6.265920639038086,0
-2.322375774383545,-6.289076805114746,-4.796283721923828,0
-1.911638617515564,-6.764243125915527,-3.497035026550293,0
-1.3502599000930786,-7.055880546569824,-2.2094600200653076,0
-0.6601653099060059,-7.467775821685791,-1.0339927673339844,0
-0.11849625408649445,-7.896478176116943,-0.22631549835205078,0
0.38785403966903687,-8.183452606201172,0.1885819435119629,0
0.8225154876708984,-8.323293685913086,0.34987199306488037,0
1.1013273000717163,-8.1049165725708,0.23317670822143555,0
1.2290793657302856,-7.640519618988037,-0.01488184928894043,0
1.2414764165878296,-6.7699875831604,-0.23523283004760742,0
0.971973717212677,-5.546715259552002,-0.2053288221359253,0
0.5157521963119507,-4.351828575134277,-0.059558987617492676,0
0.08189047873020172,-2.9753966331481934,-0.027455449104309082,0
-0.4138185381889343,-1.537714958190918,-0.1760108470916748,0
-1.1334232091903687,0.17578411102294922,-0.5343233346939087,0
-1.96259343624115,2.130612373352051,-1.024066686630249,0
-2.7965126037597656,3.9193620681762695,-1.5608662366867065,0
-3.709581136703491,5.326279640197754,-1.6103168725967407,0
-4.46807336807251,6.475566864013672,-1.3094509840011597,0
-4.524684906005859,7.362652778625488,-1.0251044034957886,0
-3.8774256706237793,7.710890769958496,-1.0908699035644531,0
-2.7415735721588135,7.148503303527832,-1.1191872358322144,0
-1.3961118459701538,5.8612823486328125,-1.0364056825637817,0
-0.12569451332092285,4.235618591308594,-0.7950081825256348,0
1.0899021625518799,2.54257869720459,-0.5478350520133972,0
2.0200164318084717,1.0886306762695312,-0.3700835108757019,0
2.601685047149658,-0.016382217407226562,-0.435722291469574,0
2.860765218734741,-0.780024528503418,-0.8355031609535217,0
3.0219788551330566,-1.2099037170410156,-1.354813575744629,0
2.9063913822174072,-1.4164419174194336,-1.971620798110962,0
2.5980348587036133,-1.4956645965576172,-2.435966968536377,0
2.3456921577453613,-1.409581184387207,-2.5866682529449463,0
2.0554399490356445,-1.3760814666748047,-2.595820665359497,0
1.9344213008880615,-1.4405908584594727,-2.530805826187134,0
1.7683944702148438,-1.548020362854004,-2.361382007598877,0
1.7521483898162842,-1.6217832565307617,-2.0242223739624023,0
1.7498254776000977,-1.735976219177246,-1.6576017141342163,0
1.383085012435913,-1.7230653762817383,-1.360335111618042,0
0.6723182797431946,-1.595052719116211,-1.1582366228103638,0
-0.003453195095062256,-1.514582633972168,-0.9076300859451294,0
-0.6553640365600586,-1.385885238647461,-0.5682468414306641,0
-1.0788288116455078,-1.3165979385375977,-0.1092405617237091,0
-1.4513497352600098,-1.2994623184204102,0.37134477496147156,0
-1.5334488153457642,-1.3631038665771484,0.7953080534934998,0
-1.5087652206420898,-1.3998346328735352,1.2054543495178223,0
-1.4748656749725342,-1.3834304809570312,1.4950788021087646,0
-1.44355309009552,-1.2901115417480469,1.558321475982666,0
-1.357673168182373,-1.0770025253295898,1.3732953071594238,0
-1.2436482906341553,-0.7562265396118164,0.910452127456665,0
-0.9698309898376465,-0.45702075958251953,0.37439408898353577,0
-0.7855660915374756,-0.2678556442260742,-0.10754019021987915,0
-0.6149858832359314,0.05046653747558594,-0.6240312457084656,0
-0.417849600315094,0.3829813003540039,-1.0030896663665771,0
-0.2973424196243286,0.6196565628051758,-1.175537109375,0
-0.10524284839630127,0.7247495651245117,-0.9878982305526733,0
0.041275978088378906,0.4689207077026367,-0.45627933740615845,0
0.12777167558670044,0.015250205993652344,0.20232230424880981,0
0.09689617156982422,-0.44707775115966797,0.8371251821517944,0
0.04942977428436279,-0.8821744918823242,1.1691646575927734,0
-0.031014680862426758,-1.4024829864501953,1.2514212131500244,0
0.062422871589660645,-1.622915267944336,1.028717279434204,0
0.11046409606933594,-1.7351255416870117,0.8489606380462646,0
0.10885679721832275,-1.6794490814208984,0.6044453978538513,0
0.11763477325439453,-1.6544818878173828,0.5046404004096985,0
0.14381182193756104,-1.5476913452148438,0.47997963428497314,0
0.11545836925506592,-1.4546785354614258,0.5161198973655701,0
0.22851085662841797,-1.2772455215454102,0.5743958353996277,0
0.25308167934417725,-1.0584564208984375,0.5764328837394714,0
0.46472716331481934,-0.9823951721191406,0.6002277731895447,0
0.5757893323898315,-0.6186351776123047,0.6460712552070618,0
0.7143362760543823,-0.15679359436035156,0.6658641695976257,0
0.804907500743866,0.14673614501953125,0.7002301216125488,0
1.0161106586456299,0.2774057388305664,0.7571010589599609,0
1.2970163822174072,0.31174182891845703,0.9126205444335938,0
1.5132665634155273,0.2354450225830078,1.1746087074279785,0
1.64097261428833,0.16587543487548828,1.4559156894683838,0
1.7568612098693848,0.39720821380615234,1.626150369644165,0
2.103001117706299,0.6781063079833984,1.5184080600738525,0
2.2224762439727783,0.86029052734375,1.4395517110824585,0
2.6629958152770996,1.060978889465332,1.0808807611465454,0
3.009965419769287,1.476165771484375,1.0246832370758057,0
3.362915515899658,1.9691247940063477,0.9271523952484131,0
3.6583681106567383,2.3385801315307617,0.561092734336853,0
3.866422653198242,2.4791336059570312,0.1753072738647461,0
4.031833648681641,2.4434633255004883,-0.10108208656311035,0
4.348519802093506,2.102677345275879,-0.14634060859680176,0
4.52781343460083,1.581686019897461,0.13986897468566895,0
4.854926109313965,1.4473628997802734,-0.10315877199172974,0
5.036046981811523,1.3716793060302734,-0.23253190517425537,0
5.208021640777588,1.543574333190918,-0.21250313520431519,0
5.356768608093262,1.9341611862182617,-0.129084050655365,0
5.20714807510376,2.6364192962646484,-0.020706534385681152,0
4.89536190032959,3.4705142974853516,-0.10595178604125977,0
4.639281272888184,4.225831031799316,-0.43191683292388916,0
4.194887161254883,4.754206657409668,-0.7849981188774109,0
3.8208518028259277,4.984376907348633,-0.8259211778640747,0
3.517399311065674,4.99117374420166,-0.46515971422195435,0
3.2180356979370117,4.856565475463867,0.22245530784130096,0
2.9421045780181885,4.736433982849121,1.0761022567749023,0
1.3741254806518555,4.5850019454956055,2.0302176475524902,0
-0.8525710105895996,4.411250114440918,2.795046806335449,0
-2.516957998275757,4.078826904296875,3.2797582149505615,0
-3.396108627319336,3.6315040588378906,3.42334246635437,0
-4.0390238761901855,3.2112808227539062,3.3180623054504395,0
-4.484719276428223,3.0270423889160156,3.0576202869415283,0
-4.882370471954346,3.0052528381347656,2.800342559814453,0
-5.170711994171143,3.0508127212524414,2.5583574771881104,0
-5.2975921630859375,3.200070381164551,2.3712615966796875,0
-5.320483684539795,3.2954177856445312,2.1351640224456787,0
-5.193816184997559,3.246114730834961,1.8391194343566895,0
-4.908435821533203,3.0616884231567383,1.4476741552352905,0
-4.6088972091674805,2.761033058166504,0.9940091371536255,0
-4.210777759552002,2.4609508514404297,0.45795702934265137,0
-3.8653934001922607,2.1369056701660156,-0.1376786231994629,0
-3.5979130268096924,1.785822868347168,-0.6551335453987122,0
-3.483917236328125,1.4621524810791016,-1.2613526582717896,0
-3.321465015411377,1.218052864074707,-1.8033305406570435,0
-3.336906909942627,1.0316143035888672,-2.3437438011169434,0
-3.3715522289276123,0.9432239532470703,-2.773183822631836,0
-3.40543532371521,0.9050722122192383,-3.1628730297088623,0
-3.147056818008423,0.8026800155639648,-3.5748300552368164,0
-2.379988670349121,0.7036705017089844,-3.9281744956970215,0
-1.3110111951828003,0.666132926940918,-4.034769535064697,0
-0.4515480697154999,0.5541830062866211,-3.770047187805176,0
0.23898150026798248,0.4876985549926758,-3.1517581939697266,0
0.7238587141036987,0.5073318481445312,-2.2350127696990967,0
1.1000491380691528,0.5579214096069336,-1.2225446701049805,0
1.3551225662231445,0.42156410217285156,-0.26832056045532227,0
1.6190755367279053,0.5669355392456055,0.35138893127441406,0
1.7204926013946533,0.6728477478027344,0.8417403697967529,0
1.6648322343826294,0.8153152465820312,1.1997599601745605,0
1.4810562133789062,0.9507522583007812,1.3671202659606934,0
1.3360066413879395,0.9880084991455078,1.3016750812530518,0
1.0712823867797852,0.9029684066772461,1.0618009567260742,0
0.8181755542755127,0.7552242279052734,0.7153024673461914,0
0.5285319685935974,0.5040149688720703,0.2720823287963867,0
0.1158444881439209,0.04885673522949219,-0.11443924903869629,0
-0.1150968074798584,-0.13912105560302734,-0.523350715637207,0
-0.1771939992904663,-0.3809823989868164,-0.8756701946258545,0
-0.1980069875717163,-0.6673221588134766,-1.2267603874206543,0
-0.1875838041305542,-0.964756965637207,-1.5557239055633545,0
-0.2760559320449829,-1.2397894859313965,-1.8873720169067383,0
-0.5566092133522034,-1.8700079917907715,-2.198735237121582,0
-0.6597448587417603,-1.9556832313537598,-2.641662836074829,0
-0.956025242805481,-2.193380832672119,-3.048794746398926,0
-1.3575515747070312,-2.4633069038391113,-3.477626323699951,0
-1.9375364780426025,-2.875166893005371,-3.8685567378997803,0
-2.2806475162506104,-3.1439261436462402,-4.387128829956055,0
-2.85750150680542,-3.479818820953369,-4.928329944610596,0
-3.4712307453155518,-3.817546844482422,-5.473901271820068,0
-4.068602085113525,-4.06078577041626,-5.926743030548096,0
-4.564924240112305,-4.242683410644531,-6.191847324371338,0
-4.915590286254883,-4.45387601852417,-6.226794242858887,0
-5.187819004058838,-4.584401607513428,-6.043565273284912,0
-5.187285423278809,-4.539120674133301,-5.58670711517334,0
-4.598476886749268,-4.333302974700928,-4.99928617477417,0
-3.9740397930145264,-4.12345027923584,-4.347439289093018,0
-3.374516010284424,-3.934462070465088,-3.5484671592712402,0
-2.9427709579467773,-3.7697596549987793,-2.6412858963012695,0
-2.4752464294433594,-3.592287540435791,-1.6332223415374756,0
-2.022822380065918,-3.4557900428771973,-0.6272695064544678,0
-1.5913102626800537,-3.3993072509765625,0.14415884017944336,0
-1.3229775428771973,-3.480506420135498,0.6944112777709961,0
-1.1423680782318115,-3.6322617530822754,1.045720100402832,0
-1.083566665649414,-3.827831268310547,1.131056785583496,0
-0.9763669967651367,-4.016399383544922,1.0574231147766113,0
-0.8460118174552917,-4.273778438568115,0.7829079627990723,0
-0.7270331382751465,-4.568036079406738,0.4663572311401367,0
-0.6969662308692932,-4.841035842895508,0.21392345428466797,0
-0.7736364006996155,-5.073159217834473,0.12250971794128418,0
-0.8796394467353821,-5.240246772766113,0.2464609146118164,0
-1.0334750413894653,-5.423584461212158,0.5497739315032959,0
-1.222672462463379,-5.584858417510986,0.9608738422393799,0
-1.3160130977630615,-5.6738481521606445,1.451669454574585,0
-1.4575728178024292,-5.879294395446777,1.9482884407043457,0
-1.5022614002227783,-6.023630142211914,2.2736756801605225,0
-1.5589159727096558,-6.0729289054870605,2.468489646911621,0
-1.5007240772247314,-6.079348564147949,2.4365835189819336,0
-1.3019256591796875,-5.75071382522583,2.340374231338501,0
-0.9061607122421265,-5.1083526611328125,2.071551561355591,0
-0.20986460149288177,-3.939114570617676,1.6839935779571533,0
0.6404497027397156,-2.524869441986084,1.2063205242156982,0
1.4187067747116089,-0.542149543762207,0.6904008388519287,0
1.9545706510543823,1.973341941833496,0.23552942276000977,0
2.2263705730438232,4.935427665710449,-0.015909910202026367,0
2.5923502445220947,8.274471282958984,-0.07949590682983398,0
2.707261323928833,12.164338111877441,0.15235137939453125,0
2.9062752723693848,15.757457733154297,0.7879800796508789,0
3.4694862365722656,18.15438461303711,2.0311214923858643,0
4.2695631980896,19.167259216308594,3.3942453861236572,0
4.748758316040039,18.976730346679688,5.0226335525512695,0
5.380675792694092,16.97638511657715,6.584413051605225,0
4.480266094207764,13.718103408813477,7.447994232177734,0
3.361424446105957,11.025382041931152,7.162871360778809,0
2.4758198261260986,9.268059730529785,5.675467014312744,0
1.5667927265167236,8.179269790649414,3.879711627960205,0
0.5209367275238037,7.087873458862305,2.5699820518493652,0
-0.2555265426635742,5.925543785095215,1.8651790618896484,0
-1.0338281393051147,5.1307878494262695,1.5882165431976318,0
-2.1801748275756836,4.340826034545898,1.3990042209625244,0
-3.8217883110046387,3.4210195541381836,1.1839485168457031,0
-5.685938358306885,1.9794368743896484,0.7483768463134766,0
-7.400964736938477,0.15391254425048828,-0.17449867725372314,0
-8.6448974609375,-1.8958373069763184,-1.3106930255889893,0
-9.482553482055664,-4.077049732208252,-2.5438218116760254,0
-9.938726425170898,-5.9624762535095215,-3.4712932109832764,0
-10.14704704284668,-7.501530647277832,-3.657428741455078,0
-10.114097595214844,-8.577472686767578,-3.467414379119873,0
-9.943015098571777,-9.181941032409668,-3.1697678565979004,0
-9.609996795654297,-9.2971773147583,-3.074964761734009,0
-8.763861656188965,-9.170646667480469,-3.4723000526428223,0
-6.776885986328125,-8.783575057983398,-4.532742977142334,0
-4.324250221252441,-7.96604585647583,-5.965263366699219,0
-2.040952682495117,-6.842367649078369,-7.266834259033203,0
-0.30319327116012573,-5.379061698913574,-8.247771263122559,0
0.615067720413208,-4.15008020401001,-9.089210510253906,0
0.9199906587600708,-3.0926570892333984,-9.81909465789795,0
0.8879263997077942,-1.9100685119628906,-9.993130683898926,0
0.7338474988937378,-0.6721220016479492,-9.704453468322754,0
0.5524141788482666,0.5965776443481445,-9.00186538696289,0
0.3298865556716919,1.8137226104736328,-7.775185585021973,0
0.11874794960021973,2.7749404907226562,-5.916640281677246,0
0.2467283010482788,3.6204967498779297,-3.211740493774414,0
1.1179101467132568,4.533208847045898,1.371127724647522,0
2.7758989334106445,5.3583784103393555,6.992143630981445,0
4.359776496887207,5.562129974365234,10.873233795166016,0
5.073431015014648,4.9717302322387695,10.840813636779785,0
5.281923294067383,3.4853334426879883,7.934264183044434,0
5.069346904754639,1.7640228271484375,4.2387003898620605,0
4.678553581237793,0.4266777038574219,0.8884354829788208,0
4.339143753051758,-0.35648155212402344,-1.8689817190170288,0
3.675954580307007,-0.7437200546264648,-3.966289520263672,0
2.438584327697754,-0.7885208129882812,-5.161571979522705,0
1.2019670009613037,-0.7429866790771484,-5.518407821655273,0
0.39625000953674316,-0.7463712692260742,-5.3588385581970215,0
0.034210026264190674,-0.8634738922119141,-4.713362216949463,0
-0.39726734161376953,-0.9677228927612305,-3.457502603530884,0
-1.0022703409194946,-1.0618886947631836,-1.8171923160552979,0
-1.4591363668441772,-1.2419118881225586,-0.3941628932952881,0
-1.5658812522888184,-1.2327337265014648,0.07329660654067993,0
-1.4875229597091675,-1.065566062927246,-0.058137446641922,0
-1.4712855815887451,-0.8241615295410156,-0.49157005548477173,0
-1.4272046089172363,-0.7237253189086914,-1.0023305416107178,0
-1.277188777923584,-0.666015625,-1.3793898820877075,0
-0.9645169377326965,-0.670130729675293,-1.396315097808838,0
-0.6306359767913818,-0.8507871627807617,-1.0917320251464844,0
-0.21348977088928223,-1.076279640197754,-0.6688687801361084,0
0.15059924125671387,-1.509150505065918,-0.17756745219230652,0
0.336855411529541,-1.8694438934326172,0.31596803665161133,0
0.28254032135009766,-2.0832033157348633,0.7310163378715515,0
0.1928277611732483,-2.265444278717041,0.8428362011909485,0
0.13408809900283813,-2.2560510635375977,0.6779077053070068,0
0.11772215366363525,-1.9740138053894043,0.3106173276901245,0
0.19604647159576416,-1.5296859741210938,-0.12724095582962036,0
0.4289906620979309,-1.0404043197631836,-0.5924715995788574,0
0.5387426018714905,-0.5899343490600586,-0.9583278298377991,0
0.3384672999382019,-0.17349815368652344,-1.1910536289215088,0
0.6998825073242188,0.017785072326660156,-1.1943459510803223,0
0.749931812286377,0.10143375396728516,-0.9774079918861389,0
0.7161774635314941,0.2784719467163086,-0.6433048248291016,0
0.5939051508903503,0.31447315216064453,-0.3074038028717041,0
0.45957493782043457,0.31481456756591797,0.0438510924577713,0
0.4905073046684265,0.25087738037109375,0.3591815233230591,0
0.536527693271637,0.07258796691894531,0.5730836391448975,0
0.37083327770233154,-0.17447376251220703,0.8282654285430908,0
0.32377707958221436,-0.42568206787109375,0.9807589054107666,0
0.3285583257675171,-0.5327472686767578,1.1791751384735107,0
0.45747900009155273,-0.7492456436157227,1.133876919746399,0
0.5364333987236023,-0.8645591735839844,1.0482510328292847,0
0.5393123030662537,-0.9600620269775391,0.9108738899230957,0
0.5882059931755066,-0.9280996322631836,0.854341447353363,0
0.6397861242294312,-0.7950544357299805,0.8918631076812744,0
0.682123064994812,-0.907649040222168,0.8999428153038025,0
0.8879250288009644,-0.8924293518066406,0.8140259385108948,0
1.0944836139678955,-0.8570728302001953,0.8686068058013916,0
1.2826766967773438,-0.9091320037841797,1.0204730033874512,0
1.4427940845489502,-0.8930702209472656,1.2642545700073242,0
1.5910557508468628,-0.6130170822143555,1.5247552394866943,0
1.7699958086013794,-0.4497194290161133,1.668542504310608,0
1.8205654621124268,-0.16910457611083984,1.8253445625305176,0
1.8035231828689575,0.065582275390625,1.9337509870529175,0
1.8707275390625,0.18699169158935547,1.9279675483703613,0
1.7910618782043457,0.3741445541381836,1.9486795663833618,0
1.7646492719650269,0.660161018371582,1.9099135398864746,0
1.8292843103408813,0.7579669952392578,2.0666799545288086,0
1.8608167171478271,1.062394142150879,2.1133294105529785,0
2.3001742362976074,1.1453666687011719,1.9404000043869019,0
2.585357427597046,1.3898696899414062,1.6109681129455566,0
2.8741629123687744,1.6163415908813477,1.2309000492095947,0
3.1654469966888428,2.073287010192871,0.9469616413116455,0
3.3859643936157227,2.5018510818481445,0.6351819634437561,0
3.541684150695801,2.7797317504882812,0.094169020652771,0
3.5671305656433105,2.9449710845947266,-0.6773610711097717,0
3.3324270248413086,3.1312122344970703,-1.6548576354980469,0
3.0114500522613525,3.486386299133301,-2.4974722862243652,0
2.6844122409820557,3.986238479614258,-3.0690360069274902,0
2.5948193073272705,4.267430305480957,-3.078486680984497,0
2.761936902999878,4.371561050415039,-2.486510753631592,0
3.1625373363494873,4.392989158630371,-1.2881336212158203,0
3.7527084350585938,4.636415481567383,0.32028135657310486,0
4.420099258422852,5.116670608520508,1.7040575742721558,0
4.924090385437012,5.893704414367676,2.604551076889038,0
5.0246429443359375,6.816596031188965,2.729787588119507,0
4.141618728637695,7.559720993041992,2.2550859451293945,0
1.6945050954818726,7.587008476257324,1.9191162586212158,0
-0.9238559007644653,6.932290077209473,1.9889839887619019,0
-2.7042016983032227,5.811713218688965,2.129058361053467,0
-3.459885358810425,4.544349670410156,2.207374095916748,0
-3.9414122104644775,3.377155303955078,2.4655215740203857,0
-4.230551719665527,2.408463478088379,2.983795404434204,0
-4.11892557144165,1.855961799621582,3.4388203620910645,0
-3.7541966438293457,1.7002992630004883,3.6158106327056885,0
-3.178380250930786,1.6806392669677734,3.5121095180511475,0
-2.6157572269439697,1.7133359909057617,3.1062729358673096,0
-2.1496613025665283,1.6884870529174805,2.566098690032959,0
-1.7415248155593872,1.5631866455078125,2.0510261058807373,0
-1.2969305515289307,1.323197364807129,1.5321917533874512,0
-0.9092212319374084,0.9517898559570312,1.0506945848464966,0
-0.5610352158546448,0.5946588516235352,0.5639511346817017,0
-0.19906744360923767,0.20593547821044922,-0.04099142551422119,0
0.06416627764701843,-0.1358814239501953,-0.7513384222984314,0
0.26817843317985535,-0.46472740173339844,-1.4308429956436157,0
0.3003499209880829,-0.7402544021606445,-2.104423999786377,0
0.29043707251548767,-1.0893840789794922,-2.7068185806274414,0
0.12796629965305328,-1.344630241394043,-3.2855753898620605,0
-0.16218002140522003,-1.5943794250488281,-3.7143332958221436,0
-0.5046667456626892,-1.7354679107666016,-4.07043981552124,0
-0.787895143032074,-1.7459726333618164,-4.386198997497559,0
-1.12721586227417,-1.666029930114746,-4.591058731079102,0
-1.237519383430481,-1.344381332397461,-4.618613243103027,0
-1.241581916809082,-0.9623861312866211,-4.415465831756592,0
-0.9878793954849243,-0.5172824859619141,-3.99092698097229,0
-0.6941876411437988,-0.09735298156738281,-3.4728331565856934,0
-0.2645420730113983,0.6658716201782227,-2.92195463180542,0
0.10715627670288086,1.499405860900879,-2.2288620471954346,0
0.4956015944480896,2.390536308288574,-1.1865061521530151,0
0.6121147274971008,3.3999767303466797,0.25795555114746094,0
0.30603206157684326,4.295893669128418,2.187268018722534,0
-0.3168903589248657,4.516766548156738,3.80529522895813,0
-0.9613884687423706,4.159873008728027,4.520133018493652,0
-1.552483320236206,3.029332160949707,4.050641059875488,0
-2.0705173015594482,1.482579231262207,3.0157196521759033,0
-2.4541683197021484,0.20673751831054688,1.820662498474121,0
-2.900089740753174,-0.8864603042602539,0.6358051300048828,0
-3.5241589546203613,-1.7128257751464844,-0.5793993473052979,0
-3.9956424236297607,-2.4369635581970215,-1.6835734844207764,0
-4.29142951965332,-3.065548896789551,-2.587864398956299,0
-4.483962535858154,-3.6507763862609863,-3.219965696334839,0
-4.626837730407715,-4.247217655181885,-3.725071907043457,0
-4.7666335105896,-4.79699182510376,-4.1262407302856445,0
-4.413324356079102,-5.290016174316406,-4.590439796447754,0
-3.794334888458252,-5.587115287780762,-4.923515319824219,0
-3.2528834342956543,-5.633324146270752,-4.956757545471191,0
-2.8607325553894043,-5.467453956604004,-4.606266021728516,0
-2.5034685134887695,-5.090306282043457,-4.105423450469971,0
-2.184149742126465,-4.643856048583984,-3.5412142276763916,0
-1.9103528261184692,-4.105191230773926,-2.8158633708953857,0
-1.6100718975067139,-3.5636653900146484,-2.2053513526916504,0
-1.4339417219161987,-2.974424362182617,-1.8160231113433838,0
-1.333885908126831,-2.395260810852051,-1.5753395557403564,0
-1.108672857284546,-1.8981618881225586,-1.4230420589447021,0
-1.0071146488189697,-1.4593744277954102,-1.2558341026306152,0
-0.9189071655273438,-1.2321786880493164,-1.0660746097564697,0
-0.8819968700408936,-1.1496362686157227,-0.9466648101806641,0
-0.9198816418647766,-1.3097848892211914,-0.8471238613128662,0
-0.8649669885635376,-1.600031852722168,-0.7529852390289307,0
-0.7675496339797974,-1.936577320098877,-0.6976339817047119,0
-0.7281065583229065,-2.3503408432006836,-0.6214358806610107,0
-0.5373915433883667,-3.113682270050049,-0.6063005924224854,0
-0.3883289098739624,-3.7599406242370605,-0.45137763023376465,0
-0.1679530143737793,-4.320495128631592,-0.14689922332763672,0
-0.07747900485992432,-4.74516487121582,0.1397714614868164,0
-0.036452651023864746,-4.842524528503418,0.3823239803314209,0
-0.15734660625457764,-4.985404968261719,0.5607292652130127,0
-0.22385865449905396,-5.400177001953125,0.704505443572998,0
-0.295637309551239,-5.665102005004883,0.9585011005401611,0
-0.28179895877838135,-5.873295783996582,1.298243761062622,0
-0.17554491758346558,-6.000767707824707,1.702233076095581,0
-0.01854950189590454,-5.91615104675293,2.171229600906372,0
0.17588883638381958,-5.751336574554443,2.6345934867858887,0
0.45165085792541504,-5.336723804473877,2.926086664199829,0
0.8837044835090637,-4.540956974029541,3.051185369491577,0
1.3489155769348145,-3.42386531829834,3.0311646461486816,0
1.9564166069030762,-2.0688657760620117,2.9269816875457764,0
2.372694492340088,-0.6113376617431641,2.8310370445251465,0
2.8199715614318848,1.3283920288085938,2.5166666507720947,0
3.1290128231048584,3.1611108779907227,2.316286563873291,0
3.220165967941284,4.978846549987793,2.3684804439544678,0
3.269547700881958,6.843539237976074,2.741763114929199,0
3.322927951812744,8.196736335754395,3.300339698791504,0
3.322385787963867,9.001398086547852,4.269623279571533,0
3.268526315689087,9.28737735748291,5.385369300842285,0
2.849172830581665,9.331178665161133,6.014289855957031,0
2.1045327186584473,9.80172348022461,5.72984504699707,0
1.5911893844604492,10.344622611999512,4.322545051574707,0
1.596551537513733,10.630858421325684,2.5881145000457764,0
1.5929980278015137,12.183037757873535,1.8234870433807373,0
1.5824791193008423,14.555804252624512,1.8261165618896484,0
0.9088885188102722,17.33919906616211,2.533844470977783,0
-0.94887775182724,19.241252899169922,3.944427490234375,0
-5.01004695892334,18.04021453857422,5.128238201141357,0
-9.936312675476074,12.990033149719238,5.754444122314453,0
-12.987635612487793,6.4712324142456055,4.202578544616699,0
-12.851417541503906,1.2709054946899414,-0.26899170875549316,0
-11.44665813446045,-2.4728307723999023,-4.296026229858398,0
-9.768579483032227,-5.19788932800293,-7.027522087097168,0
-8.379120826721191,-7.027688026428223,-9.244547843933105,0
-7.160378456115723,-8.08031940460205,-11.016986846923828,0
-5.416634559631348,-8.715415000915527,-12.245723724365234,0
-2.9470081329345703,-9.350326538085938,-12.674825668334961,0
-0.9896657466888428,-9.850573539733887,-12.191520690917969,0
0.5449280142784119,-10.199798583984375,-10.964427947998047,0
1.7361844778060913,-10.245683670043945,-9.465780258178711,0
2.780916929244995,-10.101509094238281,-8.013094902038574,0
3.352823257446289,-9.519355773925781,-6.8288140296936035,0
3.344862222671509,-8.808680534362793,-5.9312238693237305,0
3.0304408073425293,-8.099117279052734,-5.293083667755127,0
2.593921422958374,-7.0992279052734375,-4.820622444152832,0
2.1733760833740234,-5.725924491882324,-4.432852745056152,0
1.6624817848205566,-3.750479221343994,-3.9674463272094727,0
1.144288182258606,-1.2984256744384766,-3.264604091644287,0
0.6736443638801575,1.3731164932250977,-2.1204755306243896,0
0.35220232605934143,3.8468494415283203,-0.4154568314552307,0
-0.049102962017059326,5.967949867248535,3.3837194442749023,0
-0.7044086456298828,7.803808212280273,7.953591346740723,0
-1.6464219093322754,8.500711441040039,8.753096580505371,0
-1.6016459465026855,7.249041557312012,6.1700921058654785,0
-0.49838370084762573,4.49149227142334,2.686415672302246,0
0.31279975175857544,1.6545829772949219,0.04947257041931152,0
0.4595787227153778,-0.4047985076904297,-1.7406718730926514,0
0.354373574256897,-1.7879419326782227,-3.1699163913726807,0
0.2951468825340271,-2.620171070098877,-4.378344535827637,0
0.5015190839767456,-3.108086585998535,-4.993236064910889,0
0.6429890394210815,-3.171126365661621,-5.092440605163574,0
0.46289634704589844,-2.8484725952148438,-4.604127407073975,0
0.12471133470535278,-2.384957790374756,-3.838780403137207,0
-0.4694986343383789,-1.9796361923217773,-2.8965957164764404,0
-0.8984106779098511,-1.7473602294921875,-2.3320629596710205,0
-0.8671637773513794,-1.5179996490478516,-2.1275696754455566,0
-0.7751007676124573,-1.3367490768432617,-2.099621295928955,0
-0.751677393913269,-1.0861740112304688,-2.049046516418457,0
-0.7783896923065186,-0.8618669509887695,-1.812785267829895,0
-0.7866045832633972,-0.6206722259521484,-1.388037919998169,0
-0.750486433506012,-0.4318971633911133,-0.7525197267532349,0
-0.5431680679321289,-0.21409225463867188,-0.13274282217025757,0
-0.22682690620422363,-0.09396171569824219,0.48144230246543884,0
0.11745405197143555,-0.08330249786376953,0.8108051419258118,0
0.42043787240982056,-0.07200813293457031,1.0554282665252686,0
0.593531608581543,-0.1151580810546875,1.1771411895751953,0
0.6175124645233154,-0.12430763244628906,1.22757089138031,0
0.6189662218093872,-0.1258831024169922,1.1178854703903198,0
0.4993528723716736,-0.08649635314941406,0.828708827495575,0
0.48796790838241577,0.08462333679199219,0.36410558223724365,0
0.5484840869903564,0.24143695831298828,-0.10514131933450699,0
0.6183177828788757,0.4461193084716797,-0.5573778748512268,0
0.7881886959075928,0.4905881881713867,-0.8994378447532654,0
0.8808073997497559,0.3248329162597656,-1.0309287309646606,0
0.960526168346405,0.056697845458984375,-0.8660171627998352,0
0.9123792052268982,-0.15351486206054688,-0.5923537611961365,0
0.9925446510314941,-0.3058786392211914,-0.3140050768852234,0
1.0984227657318115,-0.48651123046875,0.17664018273353577,0
1.2381303310394287,-0.8124246597290039,0.6589158177375793,0
1.3841619491577148,-1.063309669494629,0.9265046119689941,0
1.4174823760986328,-1.3013763427734375,1.017496109008789,0
1.259230613708496,-1.282780647277832,1.0250520706176758,0
1.1895486116409302,-1.321075439453125,0.8486024141311646,0
1.0620527267456055,-1.191488265991211,0.7204079031944275,0
0.9912043213844299,-1.1405420303344727,0.7007459402084351,0
0.9459089040756226,-0.9529237747192383,0.5814967155456543,0
1.184816598892212,-0.7673788070678711,0.45880231261253357,0
1.301081895828247,-0.5622978210449219,0.548737108707428,0
1.4381110668182373,-0.19420909881591797,0.7009804248809814,0
1.6337807178497314,0.19797992706298828,0.9372074007987976,0
1.8275063037872314,0.6260414123535156,1.1589018106460571,0
1.7957305908203125,0.8911657333374023,1.4227148294448853,0
1.8561245203018188,0.9502429962158203,1.6363732814788818,0
1.955675482749939,0.9252128601074219,1.7934930324554443,0
1.874025821685791,0.7657146453857422,2.0459277629852295,0
1.764171838760376,0.524357795715332,2.4791665077209473,0
1.6546242237091064,0.3111600875854492,2.887594699859619,0
1.5262293815612793,0.22171306610107422,3.2787435054779053,0
1.7765202522277832,0.012051582336425781,3.372697114944458,0
2.0131778717041016,0.04592132568359375,3.675252914428711,0
2.3893754482269287,0.4879875183105469,3.3154547214508057,0
3.020054340362549,0.6563682556152344,2.7963929176330566,0
3.3012473583221436,1.1609268188476562,2.1116180419921875,0
3.8418006896972656,1.364933967590332,1.4531265497207642,0
4.053875923156738,1.7371206283569336,1.0350816249847412,0
4.326298713684082,2.0068283081054688,0.8677552938461304,0
4.5723876953125,1.9445104598999023,0.7549946308135986,0
4.737209320068359,1.7537565231323242,0.6098350882530212,0
4.933728218078613,1.4538726806640625,0.3328756093978882,0
4.913335800170898,1.255380630493164,-0.11759716272354126,0
4.92771053314209,1.2562847137451172,-0.39059120416641235,0
4.804811477661133,1.5377588272094727,-0.6227748394012451,0
4.630456924438477,1.9990224838256836,-0.9315783977508545,0
4.375669002532959,2.716379165649414,-1.3701846599578857,0
4.030389308929443,3.486268997192383,-1.8123958110809326,0
3.771528720855713,4.060117721557617,-2.1797378063201904,0
3.6043031215667725,4.357260704040527,-2.2209575176239014,0
3.5418519973754883,4.381026268005371,-1.7630412578582764,0
3.7490861415863037,4.280784606933594,-0.857306957244873,0
3.9820687770843506,4.339555740356445,0.4932311177253723,0
3.312741279602051,4.559557914733887,2.0486578941345215,0
0.15064942836761475,4.855802536010742,3.3989572525024414,0
-2.5670719146728516,4.837838172912598,4.239681243896484,0
-4.102123737335205,4.5638837814331055,4.5042805671691895,0
-4.9581098556518555,4.353290557861328,4.071892261505127,0
-5.511253356933594,4.312272071838379,3.319075584411621,0
-5.874336242675781,4.30294132232666,2.509768486022949,0
-6.075917720794678,4.3571977615356445,1.804311752319336,0
-6.031703948974609,4.341594696044922,1.1995197534561157,0
-5.894711017608643,4.203665733337402,0.7503305077552795,0
-5.538168907165527,3.9623184204101562,0.42559492588043213,0
-5.008225440979004,3.545246124267578,0.15031659603118896,0
-4.521548271179199,3.131143569946289,-0.342889666557312,0
-4.061049938201904,2.908095359802246,-0.8683993816375732,0
-3.6896514892578125,2.777167320251465,-1.5027014017105103,0
-3.3849735260009766,2.3790931701660156,-2.1818532943725586,0
-3.1732873916625977,2.0485382080078125,-2.7749085426330566,0
-3.0379137992858887,1.581801414489746,-3.1818718910217285,0
-2.7799341678619385,1.1630620956420898,-3.492537498474121,0
-2.5305986404418945,0.8018693923950195,-3.6557388305664062,0
-2.241022825241089,0.4792337417602539,-3.6756632328033447,0
-1.6755536794662476,0.2839670181274414,-3.3894548416137695,0
-0.7680845260620117,0.18775463104248047,-2.897723436355591,0
0.1383182257413864,0.2366485595703125,-2.301405429840088,0
0.9000621438026428,0.24463653564453125,-1.5715174674987793,0
1.5491886138916016,0.4799489974975586,-0.6394267082214355,0
2.070875883102417,0.751042366027832,0.294417142868042,0
2.3433563709259033,0.971466064453125,1.1383605003356934,0
2.2473950386047363,1.267563819885254,1.6238410472869873,0
1.722365140914917,1.4691171646118164,1.627936601638794,0
0.8016242980957031,1.4684505462646484,1.1876170635223389,0
-0.05153852701187134,1.409134864807129,0.5429785251617432,0
-0.5696986317634583,1.2527227401733398,-0.09226703643798828,0
-0.827257513999939,1.07537841796875,-0.6142094135284424,0
-0.9629568457603455,0.7376976013183594,-0.9328179359436035,0
-1.020071268081665,0.39214515686035156,-1.218834400177002,0
-1.1041678190231323,-0.0072879791259765625,-1.4042482376098633,0
-1.160585880279541,-0.45603466033935547,-1.6251745223999023,0
-1.425741195678711,-0.9972076416015625,-1.8315868377685547,0
-1.482170581817627,-1.310286045074463,-1.974050521850586,0
-1.5877668857574463,-1.6967048645019531,-2.063110589981079,0
-1.6533293724060059,-1.9935851097106934,-2.1715915203094482,0
-1.7984561920166016,-2.3633861541748047,-2.3027501106262207,0
-1.8267123699188232,-2.633671760559082,-2.4429917335510254,0
-1.8697541952133179,-2.897825241088867,-2.556619644165039,0
-2.0213072299957275,-3.0984983444213867,-2.7296924591064453,0
-2.2433910369873047,-3.348111629486084,-2.983764410018921,0
-2.3499913215637207,-3.503166675567627,-3.2803332805633545,0
-2.537564754486084,-3.303356647491455,-3.528033494949341,0
-2.7560782432556152,-3.5331807136535645,-3.9402496814727783,0
-3.006246566772461,-3.6535792350769043,-4.407787322998047,0
-3.2028589248657227,-3.69061279296875,-4.799653053283691,0
-3.342301845550537,-3.744471549987793,-5.066131114959717,0
-3.4615721702575684,-3.740715980529785,-5.2028961181640625,0
-3.3217740058898926,-3.7080492973327637,-5.12408447265625,0
-2.9506309032440186,-3.6681928634643555,-4.940030097961426,0
-2.5211870670318604,-3.6095499992370605,-4.607675075531006,0
-2.1083993911743164,-3.513610363006592,-4.088229656219482,0
-1.7496764659881592,-3.469648838043213,-3.3829784393310547,0
-1.566665530204773,-3.5047526359558105,-2.521482467651367,0
-1.4544180631637573,-3.564713954925537,-1.6644313335418701,0
-1.4927657842636108,-3.6548681259155273,-0.9799289703369141,0
-1.6010003089904785,-3.9045920372009277,-0.4237222671508789,0
-1.650240182876587,-4.263607501983643,-0.01183629035949707,0
-1.6788010597229004,-4.657687187194824,0.3207681179046631,0
-1.6646075248718262,-5.024572372436523,0.5335392951965332,0
-1.7194663286209106,-5.3162736892700195,0.6837284564971924,0
-1.8643532991409302,-5.592324256896973,0.804415225982666,0
-1.9578443765640259,-5.498558044433594,0.895388126373291,0
-2.0234172344207764,-5.592111110687256,1.0492806434631348,0
-2.0861868858337402,-6.075395584106445,1.152329683303833,0
-2.123523235321045,-6.419005870819092,1.3494608402252197,0
-2.163262367248535,-6.718376159667969,1.6351146697998047,0
-2.192483425140381,-6.934931755065918,1.9511489868164062,0
-2.0882627964019775,-7.1209611892700195,2.2106974124908447,0
-1.8956202268600464,-6.953271389007568,2.3677990436553955,0
-1.4903285503387451,-6.247743606567383,2.4126241207122803,0
-0.890163004398346,-4.923256874084473,2.3426434993743896,0
-0.2096538543701172,-3.1304359436035156,2.082843542098999,0
0.5078863501548767,-1.2538461685180664,1.6505918502807617,0
1.0638654232025146,0.8486442565917969,1.1526098251342773,0
1.5257816314697266,3.345439910888672,0.5669822692871094,0
1.715928077697754,6.395153045654297,-0.07654976844787598,0
1.826435923576355,9.517251968383789,-0.4315556287765503,0
1.9264490604400635,12.65662956237793,-0.38591504096984863,0
1.9366971254348755,15.769353866577148,0.3458881378173828,0
1.970319390296936,18.021944046020508,1.7866754531860352,0
1.9289082288742065,18.15386390686035,3.781074285507202,0
1.6961593627929688,14.739277839660645,5.531584739685059,0
1.8009659051895142,10.10359001159668,7.011100769042969,0
2.2398886680603027,6.325328826904297,7.805479049682617,0
2.9710731506347656,3.5627355575561523,7.766251564025879,0
3.7056398391723633,1.926152229309082,6.880383491516113,0
4.1533427238464355,1.2774391174316406,5.472786903381348,0
4.017414569854736,1.4885978698730469,3.8903255462646484,0
3.469184398651123,2.53958797454834,2.2228941917419434,0
2.403860092163086,4.084996223449707,0.810154914855957,0
0.901829719543457,5.631194114685059,-0.31722450256347656,0
-0.7986554503440857,6.859139442443848,-1.1065428256988525,0
-2.2655954360961914,7.421509742736816,-2.148473024368286,0
-3.1715610027313232,7.094210624694824,-3.295008420944214,0
-3.831024169921875,6.343231201171875,-4.434154510498047,0
-4.2795610427856445,5.431710243225098,-5.53541374206543,0
-4.594747543334961,4.280936241149902,-6.237313270568848,0
-4.799039840698242,2.87448787689209,-6.2350969314575195,0
-4.9080939292907715,0.6402578353881836,-5.5931854248046875,0
-4.792122840881348,-1.9742984771728516,-4.400204181671143,0
-4.703319549560547,-4.073977470397949,-2.718059539794922,0
-4.529245376586914,-5.345407962799072,-1.2639055252075195,0
-4.309056282043457,-6.099038600921631,-0.2735023498535156,0
-3.862614393234253,-6.610775470733643,-0.10005748271942139,0
-3.1494061946868896,-6.794622421264648,-0.8947752714157104,0
-2.4575581550598145,-7.193360805511475,-2.29879093170166,0
-1.5208063125610352,-7.378352642059326,-3.6643548011779785,0
-0.7567111253738403,-7.543275356292725,-4.769433498382568,0
-0.2676919996738434,-7.616246700286865,-5.42447566986084,0
0.053405631333589554,-7.721525192260742,-5.781698226928711,0
0.19060219824314117,-7.686728477478027,-5.915919780731201,0
0.26307588815689087,-7.3660454750061035,-5.886665344238281,0
-0.03475096821784973,-6.575712203979492,-5.685359001159668,0
-0.5261204242706299,-5.237564563751221,-5.249967098236084,0
-0.9576429128646851,-3.4171090126037598,-4.805372714996338,0
-1.3911375999450684,-0.9741172790527344,-4.383201599121094,0
-1.9859962463378906,1.7699737548828125,-3.656810760498047,0
-2.7254722118377686,4.747353553771973,-2.3038172721862793,0
-3.8044848442077637,7.633645057678223,1.2779836654663086,0
-5.078639984130859,10.333739280700684,6.997177600860596,0
-4.839217185974121,11.307501792907715,9.091269493103027,0
-2.385450601577759,9.489789009094238,6.738563537597656,0
-0.5285369753837585,6.370601654052734,3.2716331481933594,0
0.08502250909805298,3.8724708557128906,0.33259105682373047,0
0.894340991973877,1.7846250534057617,-1.944739580154419,0
1.5059685707092285,-0.022424697875976562,-3.5394623279571533,0
1.7820849418640137,-1.3889188766479492,-4.515149116516113,0
1.701364278793335,-2.222320556640625,-4.904561996459961,0
1.4551905393600464,-2.6812171936035156,-4.818858623504639,0
1.043074607849121,-2.859464645385742,-4.239034175872803,0
0.8468866944313049,-2.9584035873413086,-3.1981096267700195,0
0.6308488845825195,-2.997375011444092,-1.9156404733657837,0
0.2518283724784851,-2.8497581481933594,-1.1156160831451416,0
-0.04153639078140259,-2.549142837524414,-1.0872383117675781,0
-0.2738615870475769,-2.2700986862182617,-1.4303252696990967,0
-0.4196460247039795,-2.062657356262207,-1.8036835193634033,0
-0.6425798535346985,-1.9840664863586426,-1.8900691270828247,0
-0.6776828169822693,-2.012639045715332,-1.616200566291809,0
-0.5081936717033386,-2.102813720703125,-0.9990249872207642,0
-0.38518863916397095,-2.201960563659668,-0.11203666776418686,0
-0.32260769605636597,-2.0494961738586426,0.7592891454696655,0
-0.3845875859260559,-1.7557754516601562,1.4378348588943481,0
-0.5227534770965576,-1.4262046813964844,1.7160470485687256,0
-0.6194474101066589,-1.1205987930297852,1.56422758102417,0
-0.7942968010902405,-0.9393310546875,1.2428277730941772,0
-0.8992404937744141,-0.7387485504150391,0.8255630731582642,0
-0.8028385639190674,-0.47576141357421875,0.44565317034721375,0
-0.73020339012146,-0.17668628692626953,0.022683322429656982,0
-0.48272931575775146,0.08917427062988281,-0.2514629364013672,0
-0.16336488723754883,0.3267173767089844,-0.3744882643222809,0
0.3020765781402588,0.5240964889526367,-0.3490687608718872,0
0.7002618312835693,0.5426969528198242,-0.1635591983795166,0
1.0328521728515625,0.4615955352783203,0.16722816228866577,0
1.1912405490875244,0.4361839294433594,0.450803279876709,0
1.442623496055603,0.41837501525878906,0.6451414823532104,0
1.662268042564392,0.19039440155029297,0.7702686190605164,0
1.926531434059143,0.0010328292846679688,0.8802126049995422,0
1.957834243774414,-0.2980833053588867,1.099304437637329,0
1.964613914489746,-0.5275001525878906,1.2912665605545044,0
2.193730115890503,-0.7924041748046875,1.3779021501541138,0
2.0300683975219727,-0.9803552627563477,1.5348312854766846,0
1.6359083652496338,-0.9887189865112305,1.6143181324005127,0
1.1355005502700806,-0.8201322555541992,1.7461167573928833,0
0.7684497237205505,-0.2356710433959961,1.7603437900543213,0
0.5091710090637207,0.3099050521850586,1.7282655239105225,0
0.3131239414215088,0.5775899887084961,1.6871919631958008,0
0.12127768993377686,0.5366249084472656,1.583136796951294,0
0.0894240140914917,0.36662769317626953,1.4052685499191284,0
0.13119304180145264,0.1728515625,1.2724511623382568,0
-0.13736748695373535,0.08413887023925781,1.1004821062088013,0
0.09603691101074219,-0.019394874572753906,1.0928809642791748,0
0.7447985410690308,0.07034492492675781,1.2306811809539795,0
1.2893061637878418,0.27669334411621094,1.6727267503738403,0
1.894683599472046,0.4035654067993164,2.209338665008545,0
2.331080198287964,0.6184310913085938,2.431889057159424,0
2.63601016998291,0.834864616394043,2.216252326965332,0
2.8753998279571533,1.1770124435424805,1.912822961807251,0
3.054797410964966,1.639683723449707,1.7095863819122314,0
3.584138870239258,1.9187164306640625,1.0566414594650269,0
3.8733997344970703,1.9877653121948242,0.5435369610786438,0
4.257230758666992,1.8686017990112305,0.2954816222190857,0
4.492401123046875,1.5904111862182617,0.5712594985961914,0
4.881331920623779,1.3591203689575195,0.5776211023330688,0
5.183620452880859,1.1962385177612305,0.5038005113601685,0
5.407415390014648,1.0992622375488281,0.37146657705307007,0
5.4602556228637695,1.1089248657226562,0.41235440969467163,0
5.424314498901367,1.1776056289672852,0.7208694815635681,0
5.5126543045043945,1.4870939254760742,0.7665684819221497,0
5.531876564025879,1.9224624633789062,0.8871214389801025,0
5.374805450439453,2.5887622833251953,0.8254528045654297,0
5.070348739624023,3.308591842651367,0.5985837578773499,0
4.572997570037842,4.021893501281738,0.34747016429901123,0
4.002020359039307,4.446376800537109,0.05335426330566406,0
3.3782882690429688,4.577610015869141,-0.07636111974716187,0
2.950122594833374,4.571601867675781,-0.021871745586395264,0
2.5738368034362793,4.579531669616699,0.3642810583114624,0
2.189697027206421,4.766759872436523,1.1488994359970093,0
0.9232221841812134,4.932215690612793,2.1977977752685547,0
-0.8735548257827759,4.860428810119629,3.2079644203186035,0
-2.3525748252868652,4.3244781494140625,3.910170078277588,0
-3.2912182807922363,3.6002588272094727,4.21010160446167,0
-4.126429080963135,2.970762252807617,4.271303653717041,0
-4.84307861328125,2.615924835205078,4.062901020050049,0
-5.346864700317383,2.526675224304199,3.6857266426086426,0
-5.669594764709473,2.5146350860595703,3.1730029582977295,0
-5.710972785949707,2.589986801147461,2.580153465270996,0
-5.490225791931152,2.726734161376953,1.997020959854126,0
-5.174945831298828,2.716761589050293,1.4162180423736572,0
-4.526280403137207,2.4091787338256836,0.6726833581924438,0
-3.8961169719696045,2.081094741821289,-0.16062510013580322,0
-3.2850940227508545,1.9040336608886719,-1.074937343597412,0
-2.780862808227539,1.862797737121582,-1.945178508758545,0
-2.5507514476776123,1.9972991943359375,-2.723759174346924,0
-2.4168057441711426,2.046170234680176,-3.4255573749542236,0
-2.400423049926758,2.1167335510253906,-4.027500629425049,0
-2.5035150051116943,2.0294456481933594,-4.492615699768066,0
-2.6584084033966064,1.8489770889282227,-4.8341569900512695,0
-2.9365553855895996,1.647186279296875,-5.089383125305176,0
-3.137420654296875,1.5630817413330078,-5.12439489364624,0
-3.3272016048431396,1.6377935409545898,-4.792152404785156,0
-2.873276472091675,1.687861442565918,-4.022441864013672,0
-1.691124439239502,1.625748634338379,-2.8948872089385986,0
-0.4615151286125183,1.5691356658935547,-1.5029594898223877,0
0.7013490796089172,1.5535011291503906,0.2683868408203125,0
1.681626796722412,1.7142210006713867,2.0711777210235596,0
2.1236612796783447,1.7395133972167969,3.393843412399292,0
2.3176615238189697,1.6122846603393555,4.046962738037109,0
2.1214041709899902,1.3252716064453125,3.895277738571167,0
1.537410020828247,1.0650157928466797,3.3222098350524902,0
0.950141191482544,0.8935136795043945,2.5744760036468506,0
0.28864601254463196,0.7218427658081055,1.7509269714355469,0
-0.2667505741119385,0.46350860595703125,0.9648776054382324,0
-0.803183376789093,0.17087459564208984,0.23841404914855957,0
-1.1436409950256348,-0.04884529113769531,-0.35134077072143555,0
-1.402458906173706,-0.2677335739135742,-0.9191834926605225,0
-1.5547754764556885,-0.4740161895751953,-1.3672242164611816,0
-1.6978414058685303,-0.7180328369140625,-1.6648032665252686,0
-1.680342197418213,-0.9637908935546875,-1.9323318004608154,0
-1.5691490173339844,-1.3017892837524414,-2.242814540863037,0
-1.5875532627105713,-1.5859155654907227,-2.5176939964294434,0
-1.511077642440796,-1.8757567405700684,-2.8509650230407715,0
-1.35945463180542,-2.1616439819335938,-3.1686882972717285,0
-1.325028657913208,-2.5031375885009766,-3.6219089031219482,0
-1.4156502485275269,-2.828120708465576,-4.096271991729736,0
-1.4619855880737305,-3.20806884765625,-4.565950870513916,0
-1.4760215282440186,-3.5853443145751953,-4.926151752471924,0
-1.522384524345398,-3.986204147338867,-5.172311782836914,0
-1.6481082439422607,-4.276647090911865,-5.436420440673828,0
-1.6677511930465698,-4.526174068450928,-5.65659236907959,0
-1.8221869468688965,-4.672702789306641,-5.847400188446045,0
-1.966904878616333,-4.83579158782959,-6.047741889953613,0
-2.1748175621032715,-4.879228591918945,-6.023504257202148,0
-2.4499711990356445,-4.757812976837158,-5.877902507781982,0
-2.8234901428222656,-4.746758460998535,-5.536957740783691,0
-3.134303569793701,-4.394504070281982,-4.957117080688477,0
-3.429924964904785,-4.127928733825684,-4.108398914337158,0
-3.681365966796875,-3.9716649055480957,-3.1258442401885986,0
-3.7975759506225586,-3.928806781768799,-2.0844924449920654,0
-3.8099164962768555,-4.019245624542236,-1.0374879837036133,0
-3.659458637237549,-4.238673686981201,-0.15777134895324707,0
-3.373831272125244,-4.580139636993408,0.5131077766418457,0
-2.8634896278381348,-4.98132848739624,0.8707661628723145,0
-2.198117971420288,-5.382209300994873,1.011148452758789,0
-1.4822275638580322,-5.6869306564331055,1.034581184387207,0
-0.822131335735321,-5.926485538482666,1.0435974597930908,0
-0.5419788360595703,-6.158081531524658,1.078540563583374,0
-0.552187442779541,-6.369500637054443,1.1416339874267578,0
-0.6318655014038086,-6.6680707931518555,1.294966220855713,0
-0.8043699860572815,-7.007986545562744,1.5481657981872559,0
-1.0358487367630005,-7.252529144287109,1.9131872653961182,0
-1.359405755996704,-7.214668273925781,2.3487775325775146,0
-1.6175215244293213,-7.565666198730469,2.73824143409729,0
-1.8021496534347534,-7.514705657958984,3.0888264179229736,0
-2.2165703773498535,-7.149326801300049,3.280456304550171,0
-2.569241523742676,-6.310835838317871,3.2174594402313232,0
-2.899691581726074,-5.018056392669678,2.986961603164673,0
-2.8849148750305176,-3.258899688720703,2.7122349739074707,0
-2.5514495372772217,-1.2147493362426758,2.225855588912964,0
-1.9240295886993408,1.346959114074707,1.538332462310791,0
-1.1153476238250732,4.598634719848633,1.0293846130371094,0
-0.15417680144309998,8.0884370803833,0.7561378479003906,0
0.5256281495094299,12.399686813354492,0.8709456920623779,0
0.9698020219802856,16.905916213989258,1.3003783226013184,0
1.4083824157714844,20.294124603271484,2.2777204513549805,0
2.2934629917144775,20.81285858154297,3.694218397140503,0
2.9738335609436035,18.870866775512695,4.8953857421875,0
3.402107000350952,14.996874809265137,5.732058525085449,0
3.8949532508850098,10.541749954223633,6.229287147521973,0
4.53508186340332,6.914341926574707,6.438270568847656,0
4.8994059562683105,4.899967193603516,6.124739646911621,0
4.91618537902832,4.45567512512207,5.2209014892578125,0
4.210352420806885,5.0052900314331055,3.639183521270752,0
3.1153652667999268,5.875006675720215,2.2875514030456543,0
2.0007123947143555,6.8579607009887695,1.4686322212219238,0
0.8077898025512695,7.802830696105957,0.931596040725708,0
-1.011225700378418,8.348652839660645,0.4030575752258301,0
-3.609285831451416,7.6643171310424805,-0.17034530639648438,0
-6.128936767578125,5.909802436828613,-0.5521821975708008,0
-8.006447792053223,3.2903881072998047,-0.8916269540786743,0
-8.816690444946289,0.5993232727050781,-1.116098165512085,0
-9.13276195526123,-1.8231844902038574,-1.2252075672149658,0
-9.089997291564941,-3.709380626678467,-1.3471410274505615,0
-8.633320808410645,-5.000037670135498,-1.6071062088012695,0
-7.936059474945068,-5.834455490112305,-2.137470245361328,0
-6.853274822235107,-6.274996757507324,-3.0548062324523926,0
-4.611824989318848,-6.627588748931885,-4.266076564788818,0
-2.3933610916137695,-6.611949920654297,-5.382106781005859,0
-0.41894471645355225,-6.058368682861328,-6.183176517486572,0
1.1508982181549072,-5.2470574378967285,-6.793342113494873,0
2.5396533012390137,-4.226016521453857,-7.412607192993164,0
3.4363040924072266,-3.2153334617614746,-8.121164321899414,0
3.6081900596618652,-2.34405517578125,-8.835827827453613,0
3.29791259765625,-1.8512210845947266,-9.266836166381836,0
2.7442760467529297,-1.5262823104858398,-9.305277824401855,0
2.137650728225708,-1.214146614074707,-8.748326301574707,0
1.552999496459961,-0.9251241683959961,-7.720290184020996,0
1.0738317966461182,-0.9565820693969727,-6.422243595123291,0
0.8412319421768188,-1.2397689819335938,-4.80393123626709,0
0.8207210302352905,-1.6270370483398438,-2.9849705696105957,0
1.0058262348175049,-1.9205751419067383,-1.1443891525268555,0
1.2912654876708984,-1.9275827407836914,0.8271279335021973,0
2.070774793624878,-1.309767723083496,3.670900821685791,0
2.881329298019409,-0.19788074493408203,7.094419956207275,0
3.05289363861084,0.8334531784057617,9.18346118927002,0
1.7218924760818481,1.727952003479004,8.936046600341797,0
-0.08441716432571411,2.1028404235839844,6.900607109069824,0
-1.1228514909744263,1.9992618560791016,4.269994735717773,0
-1.655914068222046,1.8882198333740234,1.7359788417816162,0
-1.692610502243042,1.5842037200927734,-0.4893141984939575,0
-1.6443357467651367,1.1259613037109375,-2.363344192504883,0
-1.5800578594207764,0.5636377334594727,-3.720590114593506,0
-1.4870445728302002,-0.012265205383300781,-4.583792209625244,0
-1.2939414978027344,-0.5783939361572266,-4.773592472076416,0
-0.7792062759399414,-1.0181684494018555,-4.294040203094482,0
-0.3810497522354126,-1.2390966415405273,-3.5324034690856934,0
-0.27462393045425415,-1.3736467361450195,-2.669299602508545,0
-0.5231310725212097,-1.5683917999267578,-1.8936753273010254,0
-0.6686453819274902,-1.6537017822265625,-1.7738524675369263,0
-0.5405970811843872,-1.6869163513183594,-2.218766927719116,0
-0.4214772582054138,-1.677353858947754,-2.6944572925567627,0
-0.37657779455184937,-1.5554428100585938,-2.9476211071014404,0
-0.30665117502212524,-1.409627914428711,-3.0258781909942627,0
-0.2728332281112671,-1.2494220733642578,-2.684434652328491,0
-0.1662071943283081,-1.2780399322509766,-2.0157132148742676,0
-0.08574897050857544,-1.356541633605957,-1.049619197845459,0
0.16674840450286865,-1.4991626739501953,-0.08396044373512268,0
0.6653398275375366,-1.586181640625,0.6884812116622925,0
0.9937382936477661,-1.562617301940918,1.2662348747253418,0
1.1854535341262817,-1.4357919692993164,1.628953218460083,0
1.1733789443969727,-1.2298154830932617,1.8049845695495605,0
0.8278538584709167,-0.9353828430175781,1.845519781112671,0
0.46680253744125366,-0.6770820617675781,1.6352900266647339,0
0.26744598150253296,-0.4453458786010742,1.2337201833724976,0
0.18513810634613037,-0.09180927276611328,0.72794109582901,0
0.19918560981750488,0.15393733978271484,0.0989624634385109,0
0.29117095470428467,0.3590850830078125,-0.5359971523284912,0
0.3130788803100586,0.4735269546508789,-1.0454843044281006,0
0.45641499757766724,0.5117568969726562,-1.4055476188659668,0
0.6397572755813599,0.33043575286865234,-1.4961774349212646,0
0.597189724445343,0.1139373779296875,-1.4436980485916138,0
0.8503404259681702,-0.03959846496582031,-1.2860424518585205,0
1.0331999063491821,-0.2592897415161133,-1.0038951635360718,0
1.2702336311340332,-0.5569534301757812,-0.6335949301719666,0
1.4056673049926758,-0.7388134002685547,-0.11838114261627197,0
1.5637450218200684,-0.9772005081176758,0.3252100646495819,0
1.6800042390823364,-1.2027215957641602,0.8153579235076904,0
1.81441068649292,-1.3389415740966797,1.2186254262924194,0
1.8165723085403442,-1.2856025695800781,1.5839284658432007,0
1.7058422565460205,-1.188863754272461,1.8293265104293823,0
1.5610344409942627,-0.8527603149414062,2.0126633644104004,0
1.3433825969696045,-0.3206758499145508,2.070545196533203,0
1.0761795043945312,0.22295284271240234,2.020761013031006,0
0.8520694375038147,0.6512928009033203,1.897542953491211,0
0.7160258293151855,0.8950700759887695,1.7107237577438354,0
0.5579010248184204,0.9520750045776367,1.5892302989959717,0
0.6027406454086304,0.8225030899047852,1.4652601480484009,0
0.7093826532363892,0.6021661758422852,1.464613914489746,0
0.7962054014205933,0.4297475814819336,1.6105700731277466,0
0.9005991220474243,0.40065670013427734,1.8890225887298584,0
1.1294634342193604,0.3877897262573242,1.998239278793335,0
1.7912858724594116,0.32170677185058594,1.7988402843475342,0
2.426218271255493,0.5850315093994141,1.810750961303711,0
3.0598394870758057,1.0553159713745117,1.8101803064346313,0
3.5885136127471924,1.485854148864746,1.5825650691986084,0
4.025935173034668,1.7784805297851562,1.2504353523254395,0
4.433854579925537,1.9906015396118164,0.9693507552146912,0
4.81422233581543,1.959604263305664,0.756164014339447,0
4.899102210998535,1.800553321838379,0.5754022598266602,0
4.969099044799805,1.3224411010742188,0.6759828329086304,0
4.91377592086792,1.5440683364868164,-0.00562739372253418,0
4.9031877517700195,1.3957891464233398,-0.30630797147750854,0
5.040916442871094,1.3255119323730469,-0.18697476387023926,0
5.182003498077393,1.476975440979004,0.14289885759353638,0
5.260791778564453,1.8717470169067383,0.3390178084373474,0
5.079826354980469,2.8013343811035156,0.30883780121803284,0
4.64004373550415,3.9708967208862305,-0.020236313343048096,0
4.123752593994141,4.951977729797363,-0.39148223400115967,0
3.7415287494659424,5.610851287841797,-0.662429928779602,0
3.469233274459839,5.751974105834961,-0.6022375822067261,0
3.1938962936401367,5.407313346862793,-0.1377403736114502,0
2.8155035972595215,4.991127014160156,0.5068731307983398,0
1.6600682735443115,4.603381156921387,1.5752713680267334,0
-0.03244578838348389,4.2337799072265625,2.7142465114593506,0
-1.3955113887786865,3.714726448059082,3.5344078540802,0
-2.2994234561920166,3.0301132202148438,3.751328229904175,0
-2.8091320991516113,2.3842363357543945,3.502514600753784,0
-3.308022975921631,2.005086898803711,3.0978105068206787,0
-3.7963855266571045,1.7402658462524414,2.5757088661193848,0
-4.2391791343688965,1.7482891082763672,2.012960433959961,0
-4.546760082244873,2.0868444442749023,1.653393268585205,0
-4.58149528503418,2.4379453659057617,1.5145269632339478,0
-4.504179000854492,2.6296615600585938,1.38934326171875,0
-4.3772807121276855,2.6549854278564453,1.223935842514038,0
-4.045690536499023,2.571237564086914,0.9160943031311035,0
-3.558098793029785,2.4713449478149414,0.37978971004486084,0
-2.992617607116699,2.333146095275879,-0.2654632329940796,0
-2.3584468364715576,2.031646728515625,-1.0970182418823242,0
-1.7847294807434082,1.884455680847168,-1.7793687582015991,0
-1.5185335874557495,1.7115201950073242,-2.327094554901123,0
-1.3551958799362183,1.574697494506836,-2.750624656677246,0
-1.257698893547058,1.5406732559204102,-2.98636531829834,0
-1.1554136276245117,1.4467058181762695,-3.145875930786133,0
-0.8603231906890869,1.3863372802734375,-3.2455172538757324,0
-0.5382444262504578,1.3216800689697266,-3.1705777645111084,0
-0.1565057784318924,1.4108562469482422,-2.891740322113037,0
0.23607486486434937,1.488886833190918,-2.393340587615967,0
0.7147464752197266,1.546407699584961,-1.8125391006469727,0
1.0001955032348633,1.5383024215698242,-1.2194762229919434,0
1.265836477279663,1.5533781051635742,-0.6240795850753784,0
1.4540481567382812,1.3715782165527344,-0.09008550643920898,0
1.621456265449524,1.41143798828125,0.3213021755218506,0
1.8064978122711182,1.4597558975219727,0.5794792175292969,0
1.83984375,1.4444704055786133,0.74261474609375,0
1.8051400184631348,1.3723812103271484,0.7901022434234619,0
1.5149779319763184,1.288559913635254,0.670081615447998,0
1.1399285793304443,1.2380590438842773,0.4765584468841553,0
0.7035317420959473,1.1392288208007812,0.23163342475891113,0
0.2788810133934021,0.9824361801147461,-0.12663936614990234,0
-0.07285279035568237,0.7606077194213867,-0.524205207824707,0
-0.33083248138427734,0.5001497268676758,-0.949296236038208,0
-0.5119310021400452,0.1486215591430664,-1.3928956985473633,0
-0.8461389541625977,-0.3609199523925781,-1.7304824590682983,0
-1.0096334218978882,-0.6409978866577148,-2.122673511505127,0
-1.0395662784576416,-0.8762626647949219,-2.430718421936035,0
-1.0862927436828613,-1.1483564376831055,-2.6998260021209717,0
-1.1158356666564941,-1.455054759979248,-2.9920783042907715,0
-1.2625200748443604,-1.9590344429016113,-3.2354891300201416,0
-1.2221333980560303,-2.1079230308532715,-3.4944818019866943,0
-1.4186320304870605,-2.4353742599487305,-3.8479578495025635,0
-1.6518481969833374,-2.828491687774658,-4.200669765472412,0
-1.8676713705062866,-3.1265296936035156,-4.608501434326172,0
-2.2683253288269043,-3.400803565979004,-5.0100908279418945,0
-2.699441909790039,-3.60774564743042,-5.29636287689209,0
-3.0926015377044678,-3.747025966644287,-5.535074710845947,0
-3.4963200092315674,-3.827950954437256,-5.664669990539551,0
-3.882455587387085,-3.721379280090332,-5.537031173706055,0
-4.1556806564331055,-3.5401554107666016,-5.187668800354004,0
-4.365931987762451,-3.3518285751342773,-4.663633346557617,0
-4.450483798980713,-3.209656238555908,-3.9877865314483643,0
-4.413285255432129,-3.037871837615967,-3.2592861652374268,0
-4.250909328460693,-3.0357747077941895,-2.539027452468872,0
-3.96689772605896,-3.108293056488037,-1.8688461780548096,0
-3.581667184829712,-3.2440695762634277,-1.2883009910583496,0
-3.1615939140319824,-3.436344623565674,-0.7486424446105957,0
-2.783547878265381,-3.7164177894592285,-0.32079648971557617,0
-2.4699654579162598,-4.007719039916992,0.01983785629272461,0
-2.180971622467041,-4.324512958526611,0.18999195098876953,0
-1.8784080743789673,-4.582847595214844,0.20398879051208496,0
-1.5428385734558105,-4.8111066818237305,0.12111377716064453,0
-1.3338557481765747,-4.999353408813477,-0.004357099533081055,0
-1.2409625053405762,-5.192568778991699,-0.12323522567749023,0
-1.1937998533248901,-5.342472076416016,-0.22937273979187012,0
-1.258305311203003,-5.482277870178223,-0.2637205123901367,0
-1.3568953275680542,-5.602157115936279,-0.23653459548950195,0
-1.5605857372283936,-5.627824783325195,-0.13855671882629395,0
-1.625406265258789,-5.473048210144043,0.06106066703796387,0
-1.8904337882995605,-5.675689697265625,0.2468099594116211,0
-2.0468435287475586,-5.77570104598999,0.42264890670776367,0
-2.186112880706787,-5.832444190979004,0.5543229579925537,0
-2.3709754943847656,-5.659006595611572,0.7058353424072266,0
-2.4222800731658936,-5.2530436515808105,0.8125162124633789,0
-2.146804094314575,-4.430601119995117,0.8268885612487793,0
-1.5574978590011597,-3.153656482696533,0.7130684852600098,0
-0.7755564451217651,-1.5608749389648438,0.5369994640350342,0
-0.13840770721435547,0.33873844146728516,0.3056015968322754,0
0.4129612147808075,2.596238136291504,0.09817647933959961,0
0.9147595763206482,5.085704803466797,0.019010305404663086,0
1.3387823104858398,8.21675968170166,0.2269306182861328,0
1.5602508783340454,11.917401313781738,1.051767349243164,0
1.7864320278167725,15.45244026184082,2.6500160694122314,0
2.3070647716522217,17.96887969970703,5.443549633026123,0
3.0267493724823,18.496295928955078,9.011263847351074,0
3.769989490509033,15.644545555114746,12.777985572814941,0
3.936875104904175,10.067414283752441,13.143514633178711,0
3.716517925262451,5.497057914733887,11.000057220458984,0
3.3072049617767334,2.7223663330078125,8.049129486083984,0
2.836879253387451,1.4045677185058594,5.312912940979004,0
2.5749619007110596,1.0258665084838867,2.8824710845947266,0
2.310943365097046,1.3823423385620117,0.6906273365020752,0
1.987897515296936,2.205646514892578,-1.174141764640808,0
1.3068559169769287,3.454463005065918,-2.451969623565674,0
0.48995649814605713,4.577597618103027,-3.0433332920074463,0
-0.04979056119918823,5.239253997802734,-3.136002540588379,0
-0.4656776189804077,5.713494300842285,-2.9617090225219727,0
-1.1013962030410767,6.006595611572266,-2.863229274749756,0
-1.6670281887054443,5.719305992126465,-3.107513427734375,0
-2.362618923187256,5.187985420227051,-3.453115940093994,0
-3.390620470046997,4.328604698181152,-3.7100324630737305,0
-4.464364528656006,3.0528182983398438,-3.4610822200775146,0
-5.553107738494873,1.1287765502929688,-2.725440502166748,0
-6.217080593109131,-1.140742301940918,-1.7891780138015747,0
-6.451873302459717,-3.0750741958618164,-0.8319970369338989,0
-6.258572101593018,-4.291346073150635,-0.42317771911621094,0
-5.915128231048584,-5.035325050354004,-0.6454085111618042,0
-5.604628562927246,-5.511132717132568,-1.413388729095459,0
-4.851414203643799,-5.714062690734863,-2.6737732887268066,0
-3.1712162494659424,-5.718094825744629,-4.312019348144531,0
-1.5858280658721924,-5.537196636199951,-6.089883327484131,0
-0.29420486092567444,-5.288156032562256,-7.7023420333862305,0
0.543911874294281,-4.937074184417725,-8.920818328857422,0
0.9228529930114746,-4.533929824829102,-9.669230461120605,0
1.0364437103271484,-4.133640766143799,-9.88214111328125,0
0.9603646397590637,-3.827174663543701,-9.545038223266602,0
0.7720116376876831,-3.3469619750976562,-8.735126495361328,0
0.5123098492622375,-2.6746439933776855,-7.650444030761719,0
0.21463176608085632,-1.804018497467041,-6.2897539138793945,0
-0.05696171522140503,-0.6190147399902344,-4.537161827087402,0
-0.326860249042511,0.8551712036132812,-2.0954480171203613,0
-0.7693313360214233,2.5352210998535156,2.015901565551758,0
-1.4616189002990723,4.260350227355957,8.371908187866211,0
-2.1576409339904785,5.57017707824707,11.707297325134277,0
-2.0487332344055176,5.476937294006348,10.145851135253906,0
-1.1811695098876953,4.059414863586426,6.330904483795166,0
-0.3639791011810303,2.431001663208008,2.8329625129699707,0
0.035650014877319336,1.114506721496582,-0.0846930742263794,0
0.3656090795993805,0.16510009765625,-2.361480712890625,0
0.528691291809082,-0.5442781448364258,-3.9725000858306885,0
0.5233885645866394,-0.9806318283081055,-4.961919784545898,0
0.49693888425827026,-1.1948938369750977,-5.241869926452637,0
0.5516821146011353,-1.305002212524414,-4.789007663726807,0
0.5125648975372314,-1.4885587692260742,-3.930591583251953,0
0.18964198231697083,-1.6479501724243164,-2.9386837482452393,0
-0.5119646191596985,-1.7692289352416992,-2.0579867362976074,0
-0.8760963082313538,-1.80462646484375,-1.8565685749053955,0
-0.8182819485664368,-1.8209218978881836,-2.0532844066619873,0
-0.7259933948516846,-1.7915434837341309,-2.461540699005127,0
-0.6620177030563354,-1.7713375091552734,-2.7609660625457764,0
-0.5005615949630737,-1.7219505310058594,-2.867466449737549,0
-0.30964723229408264,-1.631485939025879,-2.734117031097412,0
-0.05925017595291138,-1.4737873077392578,-2.336925506591797,0
0.10851690173149109,-1.3805913925170898,-1.0053753852844238,0
0.34907200932502747,-1.1223373413085938,0.15814685821533203,0
0.6029586791992188,-0.8785562515258789,1.2284893989562988,0
0.669543981552124,-0.555908203125,1.934736728668213,0
0.469812273979187,-0.293121337890625,2.2111430168151855,0
0.07777139544487,-0.18574237823486328,2.1546883583068848,0
-0.3705618977546692,-0.17143821716308594,1.860597848892212,0
-0.5592926144599915,-0.25011348724365234,1.384293794631958,0
-0.509856641292572,-0.3284177780151367,0.772233247756958,0
-0.35348665714263916,-0.39440250396728516,0.2101290225982666,0
-0.16896027326583862,-0.5389499664306641,-0.19316257536411285,0
0.03151887655258179,-0.48939037322998047,-0.49901294708251953,0
0.08017539978027344,-0.2603178024291992,-0.6522092819213867,0
0.24276456236839294,-0.038420677185058594,-0.7487490773200989,0
0.4859452545642853,0.10462379455566406,-0.6784170269966125,0
0.678394615650177,0.047027587890625,-0.4886209964752197,0
0.8418723344802856,-0.045909881591796875,-0.2269076555967331,0
0.8589692115783691,-0.12629127502441406,-0.029863126575946808,0
0.9137573838233948,-0.3184375762939453,0.14769935607910156,0
1.0538806915283203,-0.5456705093383789,0.2570895552635193,0
1.0996124744415283,-0.7147026062011719,0.31181272864341736,0
1.1440813541412354,-0.8160667419433594,0.3444354236125946,0
1.2183191776275635,-0.8570365905761719,0.41907230019569397,0
1.360793948173523,-0.8209333419799805,0.5138033628463745,0
1.4471358060836792,-0.7676239013671875,0.7242767810821533,0
1.3890595436096191,-0.6421003341674805,0.9622597694396973,0
1.3685044050216675,-0.5376710891723633,1.271166205406189,0
1.2561441659927368,-0.33235836029052734,1.4981346130371094,0
1.133208990097046,-0.20323657989501953,1.6312395334243774,0
1.040102243423462,-0.10961341857910156,1.6772918701171875,0
1.041140079498291,0.008266448974609375,1.6978795528411865,0
1.0570738315582275,0.04506111145019531,1.7064646482467651,0
1.1091008186340332,0.09400272369384766,1.766840934753418,0
1.1152832508087158,0.1548938751220703,1.882988691329956,0
1.096680998802185,0.16538333892822266,2.0519514083862305,0
1.0719172954559326,0.28792381286621094,2.0361480712890625,0
1.2033891677856445,0.21376991271972656,1.7513539791107178,0
1.3140056133270264,0.22288227081298828,1.4274191856384277,0
1.568833827972412,0.3462648391723633,1.1271852254867554,0
1.8914399147033691,0.6006031036376953,0.8896536827087402,0
2.2864224910736084,0.7873439788818359,0.8404596447944641,0
2.808319091796875,0.9879369735717773,1.179749846458435,0
3.4179606437683105,1.1449470520019531,1.7821862697601318,0
4.021026611328125,1.4088125228881836,1.8843741416931152,0
4.304987907409668,1.7238883972167969,1.4017912149429321,0
4.337619781494141,1.8576278686523438,0.7789902091026306,0
4.347409248352051,1.7453680038452148,0.26012077927589417,0
4.360157012939453,1.4709787368774414,-0.15959233045578003,0
4.3782830238342285,1.1756935119628906,-0.6674405932426453,0
4.476715087890625,0.9577445983886719,-1.0438108444213867,0
4.4965033531188965,0.8508710861206055,-1.1379897594451904,0
4.568497180938721,0.9582242965698242,-0.9636731147766113,0
4.727771759033203,1.1819744110107422,-0.6467901468276978,0
4.885097980499268,1.5558996200561523,-0.29178881645202637,0
5.111259937286377,2.180522918701172,-0.0783853530883789,0
5.009922027587891,2.947956085205078,-0.051367998123168945,0
4.775372505187988,3.6379308700561523,-0.24699175357818604,0
4.48414421081543,4.049572944641113,-0.4237060546875,0
4.152883529663086,4.235817909240723,-0.47321492433547974,0
3.7260003089904785,4.283039093017578,-0.24993354082107544,0
3.205108642578125,4.267978668212891,0.19677549600601196,0
2.1284642219543457,4.23590087890625,0.9021368622779846,0
0.3105705976486206,4.250853538513184,1.8198227882385254,0
-1.25594961643219,4.188182830810547,2.620335817337036,0
-2.445310115814209,3.773191452026367,3.1525065898895264,0
-3.093273401260376,3.069167137145996,3.398132801055908,0
-3.556485176086426,2.361832618713379,3.434143543243408,0
-4.038655757904053,1.8073911666870117,3.2756896018981934,0
-4.516617298126221,1.4924421310424805,2.938809633255005,0
-4.864694595336914,1.4436254501342773,2.505349636077881,0
-5.091567039489746,1.4028644561767578,2.0485286712646484,0
-5.0620222091674805,1.4255199432373047,1.6734195947647095,0
-4.994888782501221,1.4949674606323242,1.4684295654296875,0
-4.857746124267578,1.6039209365844727,1.338157296180725,0
-4.616140365600586,1.6323699951171875,1.245510220527649,0
-4.365505218505859,1.5630035400390625,1.0026010274887085,0
-4.160965919494629,1.4836339950561523,0.5739829540252686,0
-3.8572309017181396,1.3576688766479492,-0.04814350605010986,0
-3.4646048545837402,1.3232717514038086,-0.7028321027755737,0
-2.913796901702881,1.3248987197875977,-1.3063580989837646,0
-2.2191529273986816,1.3907842636108398,-1.863470435142517,0
-1.6750277280807495,1.49908447265625,-2.286345958709717,0
-1.094754934310913,1.5897979736328125,-2.580615520477295,0
-0.6153372526168823,1.6460866928100586,-2.7375359535217285,0
-0.21878498792648315,1.6895217895507812,-2.6674017906188965,0
0.06155674532055855,1.7704858779907227,-2.5199878215789795,0
0.3332567811012268,1.8104324340820312,-2.32354736328125,0
0.5662979483604431,1.7286462783813477,-2.2809112071990967,0
0.807913064956665,1.7170085906982422,-2.276038885116577,0
1.0445828437805176,1.632284164428711,-2.2570900917053223,0
1.258413314819336,1.4247608184814453,-2.2300219535827637,0
1.5202555656433105,1.2216224670410156,-2.09763240814209,0
1.680937647819519,1.0874700546264648,-1.7788187265396118,0
1.9097216129302979,1.0340642929077148,-1.3716052770614624,0
2.0332417488098145,1.0084733963012695,-0.8660070896148682,0
2.088521957397461,1.065190315246582,-0.33032917976379395,0
1.9016447067260742,1.1007566452026367,0.21275782585144043,0
1.6026740074157715,1.145721435546875,0.6066081523895264,0
1.218904733657837,1.2689456939697266,0.799506664276123,0
0.5874115228652954,1.266728401184082,0.8330175876617432,0
-0.0700371265411377,1.203704833984375,0.6786940097808838,0
-0.5724682211875916,0.9724493026733398,0.4152686595916748,0
-0.9707999229431152,0.6091089248657227,0.07125568389892578,0
-1.1791040897369385,0.22615337371826172,-0.26720595359802246,0
-1.4109039306640625,-0.37738037109375,-0.5376682281494141,0
-1.373986005783081,-0.7280397415161133,-0.8474993705749512,0
-1.3475117683410645,-1.1280193328857422,-1.061753511428833,0
-1.3357478380203247,-1.4317636489868164,-1.287644624710083,0
-1.2811939716339111,-1.8069548606872559,-1.5177862644195557,0
-1.3687448501586914,-2.368283748626709,-1.6899304389953613,0
-1.3162919282913208,-2.606135368347168,-1.9646165370941162,0
-1.4402769804000854,-2.94393253326416,-2.344489574432373,0
-1.6314024925231934,-3.2616963386535645,-2.719906806945801,0
-1.7945735454559326,-3.4251952171325684,-3.148942470550537,0
-2.0598134994506836,-3.5250911712646484,-3.531780958175659,0
-2.353489398956299,-3.59921932220459,-3.8886117935180664,0
-2.582620620727539,-3.647210121154785,-4.158168792724609,0
-2.912581443786621,-3.6688852310180664,-4.307491779327393,0
-3.2333598136901855,-3.6114439964294434,-4.4233269691467285,0
-3.55202579498291,-3.463024139404297,-4.457948207855225,0
-3.906543493270874,-3.1999197006225586,-4.380250930786133,0
-4.188591480255127,-2.9445486068725586,-4.122853755950928,0
-4.36171817779541,-2.7786149978637695,-3.785618782043457,0
-4.425868511199951,-2.640204906463623,-3.355860471725464,0
-4.433688163757324,-2.625269889831543,-2.849613904953003,0
-4.4665913581848145,-2.7458982467651367,-2.414475917816162,0
-4.254228591918945,-2.9377193450927734,-1.9036184549331665,0
-4.021456241607666,-3.153177261352539,-1.4190618991851807,0
-3.6315135955810547,-3.3064804077148438,-0.9624238014221191,0
-3.2681431770324707,-3.5389485359191895,-0.5906476974487305,0
-2.988381862640381,-3.776315212249756,-0.32512640953063965,0
