AccX,AccY,AccZ,SampleRate
-1.1285767555236816,0.7978305816650391,-0.6853210926055908,0.01
-1.547876000404358,-0.41336822509765625,-0.6495797634124756,0.02
-1.7265194654464722,-1.6248607635498047,-0.576230525970459,0.03
-1.642691731452942,-2.6610827445983887,-0.4259328842163086,0.04
-1.6369352340698242,-2.9332146644592285,-0.5676672458648682,0.05
-1.698976993560791,-2.840698719024658,-0.7736630439758301,0.060000000000000005
-1.3509362936019897,-2.9270596504211426,-1.0285611152648926,0.07
-1.3069156408309937,-2.966989040374756,-1.140376091003418,0.08
-1.4791510105133057,-3.0068554878234863,-1.318732738494873,0.09
-1.3699334859848022,-3.4430880546569824,-1.490976333618164,0.09999999999999999
-1.3386245965957642,-3.939087390899658,-1.5734336376190186,0.10999999999999999
-1.480231523513794,-4.596959590911865,-1.3306784629821777,0.11999999999999998
-1.60404372215271,-5.361024856567383,-0.949674129486084,0.12999999999999998
-1.6765122413635254,-5.851828575134277,-0.7788679599761963,0.13999999999999999
-1.7413512468338013,-5.7087860107421875,-0.9799344539642334,0.15
-1.6512129306793213,-5.206094741821289,-0.19547700881958008,0.16
-1.28643000125885,-4.651897430419922,0.6311914920806885,0.17
-0.7591708898544312,-3.915637969970703,1.506504774093628,0.18000000000000002
0.10830497741699219,-3.165403366088867,2.100193977355957,0.19000000000000003
1.6004600524902344,-2.075188159942627,2.1881349086761475,0.20000000000000004
3.167193651199341,-0.5341615676879883,1.6817824840545654,0.21000000000000005
3.998971700668335,1.6815271377563477,1.4145920276641846,0.22000000000000006
3.805676221847534,3.1246232986450195,1.6750285625457764,0.23000000000000007
2.667301893234253,4.2273759841918945,2.5306661128997803,0.24000000000000007
1.1302542686462402,5.09488582611084,3.1508359909057617,0.25000000000000006
0.1316518783569336,5.750744819641113,3.620062828063965,0.26000000000000006
0.16765832901000977,5.454790115356445,4.464310646057129,0.2700000000000001
-0.05903768539428711,3.4665584564208984,5.5750932693481445,0.2800000000000001
-0.351925253868103,1.0324954986572266,5.168173789978027,0.2900000000000001
-0.8571245670318604,-1.0364689826965332,4.372197151184082,0.3000000000000001
-0.8895385265350342,-1.0115203857421875,1.911534309387207,0.3100000000000001
-1.0209038257598877,0.11102294921875,0.2462329864501953,0.3200000000000001
-0.9832769632339478,0.9229021072387695,-0.6671552658081055,0.3300000000000001
-1.7980897426605225,0.722620964050293,-1.6071473360061646,0.34000000000000014
-2.9859137535095215,1.16400146484375,-3.174389600753784,0.35000000000000014
-3.8512721061706543,3.2919816970825195,-4.229200839996338,0.36000000000000015
-2.89168643951416,5.766286849975586,-2.362619161605835,0.37000000000000016
-0.6728142499923706,5.530091285705566,0.8004179000854492,0.38000000000000017
-0.22592854499816895,3.0887022018432617,1.4665024280548096,0.3900000000000002
-1.1364697217941284,-0.1936502456665039,0.7157073020935059,0.4000000000000002
-1.8055026531219482,-1.5774898529052734,-0.6922745704650879,0.4100000000000002
-1.8867433071136475,-2.285635471343994,-1.7966947555541992,0.4200000000000002
-1.2411856651306152,-2.138340950012207,-2.7801353931427,0.4300000000000002
0.3780970573425293,-0.9036750793457031,-3.9649391174316406,0.4400000000000002
1.5935194492340088,0.15742206573486328,-4.437676429748535,0.45000000000000023
1.5540447235107422,0.12338924407958984,-4.294553279876709,0.46000000000000024
-0.030158042907714844,-0.4708385467529297,-2.8804750442504883,0.47000000000000025
-1.713911533355713,-1.2601814270019531,-1.2865124940872192,0.48000000000000026
-1.7090654373168945,-1.2969169616699219,-1.1523784399032593,0.49000000000000027
-3.233226776123047,-1.2307047843933105,-0.15210962295532227,0.5000000000000002
-2.679626703262329,-0.4131193161010742,-0.9897207021713257,0.5100000000000002
-1.5906673669815063,0.46590232849121094,-1.927489995956421,0.5200000000000002
-0.756676197052002,0.8077297210693359,-2.0444517135620117,0.5300000000000002
-0.27491259574890137,0.6633129119873047,-1.7966331243515015,0.5400000000000003
-0.0672452449798584,-0.1876811981201172,-1.840767502784729,0.5500000000000003
0.36797451972961426,-1.5166816711425781,-1.4900727272033691,0.5600000000000003
0.5655944347381592,-2.3919849395751953,-1.1706334352493286,0.5700000000000003
0.4994847774505615,-2.766425132751465,-0.9830053448677063,0.5800000000000003
0.38872599601745605,-2.6408419609069824,-0.9992485642433167,0.5900000000000003
0.2205643653869629,-2.089766025543213,-1.23164963722229,0.6000000000000003
0.4502127170562744,-1.6160469055175781,-0.7181953191757202,0.6100000000000003
0.48982512950897217,-1.4323186874389648,-0.0940905213356018,0.6200000000000003
0.05044066905975342,-1.380453109741211,0.13183915615081787,0.6300000000000003
-0.2575957775115967,-1.4706745147705078,-0.01243165135383606,0.6400000000000003
-0.24812674522399902,-1.635685920715332,-0.25459471344947815,0.6500000000000004
-0.08842253684997559,-1.5979127883911133,-0.04718238115310669,0.6600000000000004
0.3405870199203491,-1.2595863342285156,0.13228702545166016,0.6700000000000004
0.5313029289245605,-0.7142972946166992,0.4134523570537567,0.6800000000000004
0.4389744997024536,-0.342864990234375,1.3232523202896118,0.6900000000000004
0.663238525390625,-0.4255075454711914,1.914659023284912,0.7000000000000004
0.6411614418029785,-0.33263492584228516,2.1422407627105713,0.7100000000000004
0.41291558742523193,-0.1028890609741211,2.1835384368896484,0.7200000000000004
0.020309090614318848,0.33332347869873047,2.147320508956909,0.7300000000000004
-0.02235591411590576,0.5928058624267578,1.6171154975891113,0.7400000000000004
0.9060380458831787,0.5510234832763672,1.107527256011963,0.7500000000000004
1.0222737789154053,0.5453052520751953,1.1908434629440308,0.7600000000000005
3.9509530067443848,1.806161880493164,0.6825827956199646,0.7700000000000005
4.539702892303467,2.562295913696289,0.45012757182121277,0.7800000000000005
4.571310520172119,2.6209259033203125,0.3613206744194031,0.7900000000000005
3.7685813903808594,2.190347671508789,1.0711653232574463,0.8000000000000005
2.6999197006225586,1.592759132385254,1.4197696447372437,0.8100000000000005
2.204340934753418,2.189518928527832,1.5796407461166382,0.8200000000000005
2.201009511947632,4.1498918533325195,2.666093349456787,0.8300000000000005
3.086142063140869,6.275053977966309,2.023719310760498,0.8400000000000005
3.6122450828552246,6.101960182189941,0.1682778000831604,0.8500000000000005
3.405597448348999,3.471859931945801,-1.187101125717163,0.8600000000000005
2.657731294631958,1.5303106307983398,-1.3874914646148682,0.8700000000000006
1.4724469184875488,1.6176986694335938,-1.7885234355926514,0.8800000000000006
0.4981697201728821,2.5320053100585938,-2.0200119018554688,0.8900000000000006
-0.2262236475944519,3.3667640686035156,-1.8973958492279053,0.9000000000000006
-0.7381247282028198,3.7288007736206055,-1.1771191358566284,0.9100000000000006
-1.244228720664978,3.510128974914551,-0.248451828956604,0.9200000000000006
-1.3366292715072632,2.6861276626586914,0.6416512727737427,0.9300000000000006
-1.086194396018982,1.760767936706543,1.5012574195861816,0.9400000000000006
-1.0017942190170288,1.6727533340454102,1.0329176187515259,0.9500000000000006
-1.0839487314224243,2.0066490173339844,0.04512298107147217,0.9600000000000006
-1.2262513637542725,2.2707643508911133,-0.41012176871299744,0.9700000000000006
-1.265460729598999,2.394207000732422,-0.12149494886398315,0.9800000000000006
-1.4748919010162354,2.431192398071289,0.31575775146484375,0.9900000000000007
-1.8490321636199951,2.2175235748291016,-0.20066964626312256,1.0000000000000007
-1.9286587238311768,1.9781150817871094,-1.3237909078598022,1.0100000000000007
-1.5665632486343384,1.4456968307495117,-2.3539750576019287,1.0200000000000007
-1.3052536249160767,0.7989711761474609,-2.423551082611084,1.0300000000000007
-0.5445270538330078,-0.03770732879638672,-2.096045970916748,1.0400000000000007
0.10610520839691162,-0.948307991027832,-1.7475152015686035,1.0500000000000007
0.6126673221588135,-2.217648983001709,-1.0738894939422607,1.0600000000000007
0.4389392137527466,-2.73295259475708,-0.8704683780670166,1.0700000000000007
-0.27064836025238037,-2.899016857147217,-0.7067604064941406,1.0800000000000007
-1.046229362487793,-2.90695858001709,-0.6875886917114258,1.0900000000000007
-1.6611660718917847,-2.80609130859375,-0.8443629741668701,1.1000000000000008
-2.1292455196380615,-2.8957042694091797,-1.049384355545044,1.1100000000000008
-2.726465940475464,-2.9636645317077637,-1.6151175498962402,1.1200000000000008
-2.7711009979248047,-3.2039923667907715,-1.978647232055664,1.1300000000000008
-2.9416801929473877,-3.6918015480041504,-2.4491820335388184,1.1400000000000008
-2.9894790649414062,-4.516743183135986,-2.537194013595581,1.1500000000000008
-2.830646514892578,-5.38174295425415,-2.1116857528686523,1.1600000000000008
-2.151273250579834,-6.681085586547852,-1.2161505222320557,1.1700000000000008
-1.3936258554458618,-7.569639205932617,-1.0821576118469238,1.1800000000000008
-0.929642915725708,-7.254669189453125,-1.3086161613464355,1.1900000000000008
-0.5230011940002441,-6.005785942077637,-1.2680799961090088,1.2000000000000008
0.08434844017028809,-4.652248382568359,-0.6775753498077393,1.2100000000000009
0.6233596801757812,-3.352416515350342,0.03618359565734863,1.2200000000000009
1.026707410812378,-1.6270384788513184,1.1108744144439697,1.2300000000000009
1.1774308681488037,0.1891613006591797,2.022972583770752,1.2400000000000009
0.8313620090484619,1.7244195938110352,3.0214810371398926,1.2500000000000009
0.3369576930999756,3.2010622024536133,3.7039129734039307,1.260000000000001
0.4000840187072754,3.158132553100586,3.778294086456299,1.270000000000001
0.4890938997268677,5.388910293579102,1.8213508129119873,1.280000000000001
0.21743345260620117,6.397985458374023,1.740828275680542,1.290000000000001
0.39992785453796387,5.4974517822265625,3.4972846508026123,1.300000000000001
0.22771799564361572,3.420424461364746,4.448210716247559,1.310000000000001
-0.07135462760925293,0.23176097869873047,4.5414347648620605,1.320000000000001
-0.35506772994995117,-2.6609034538269043,3.646859645843506,1.330000000000001
-0.7486281394958496,-3.272637367248535,3.0538697242736816,1.340000000000001
-0.8232792615890503,-1.0277867317199707,0.9970366954803467,1.350000000000001
-1.0346330404281616,2.05117130279541,0.10419869422912598,1.360000000000001
-1.69227933883667,3.2899208068847656,-0.6327507495880127,1.370000000000001
-3.2823381423950195,3.5280752182006836,-2.717545986175537,1.380000000000001
-4.526778221130371,4.802284240722656,-4.932671546936035,1.390000000000001
-3.706737995147705,7.523223876953125,-4.996772766113281,1.400000000000001
-0.5120881795883179,7.538235664367676,-0.8813109397888184,1.410000000000001
0.2757699489593506,4.045316696166992,1.1445913314819336,1.420000000000001
-1.6384388208389282,0.6140785217285156,-0.07237577438354492,1.430000000000001
-3.3597359657287598,-1.0845046043395996,-1.7999188899993896,1.440000000000001
-2.989712715148926,-2.5385093688964844,-1.3483399152755737,1.450000000000001
-1.4715933799743652,-3.7665414810180664,-1.3802001476287842,1.460000000000001
0.37065815925598145,-3.3998026847839355,-2.4233856201171875,1.470000000000001
1.85872220993042,-1.2825469970703125,-3.8374011516571045,1.480000000000001
2.27412486076355,0.31012916564941406,-4.220584869384766,1.490000000000001
2.3615007400512695,1.645747184753418,-4.071478843688965,1.500000000000001
1.4193532466888428,1.8530197143554688,-2.5151467323303223,1.5100000000000011
-0.07058191299438477,0.8634109497070312,-0.5570554733276367,1.5200000000000011
-1.3065729141235352,-0.6935806274414062,0.21487188339233398,1.5300000000000011
-1.878859281539917,-2.1428070068359375,-0.5036109685897827,1.5400000000000011
-1.9143306016921997,-2.584083080291748,-1.2828243970870972,1.5500000000000012
-1.5494685173034668,-2.3998522758483887,-1.8067582845687866,1.5600000000000012
-1.1653518676757812,-1.6422829627990723,-2.450209617614746,1.5700000000000012
-0.4832758903503418,-0.97412109375,-2.6120877265930176,1.5800000000000012
0.5804779529571533,-1.1673917770385742,-1.8499057292938232,1.5900000000000012
1.1683932542800903,-1.6611146926879883,-1.469179630279541,1.6000000000000012
1.0462794303894043,-1.73272705078125,-1.0249158143997192,1.6100000000000012
0.8311648368835449,-1.5883574485778809,-0.8112767934799194,1.6200000000000012
0.21157312393188477,-1.3310127258300781,-0.5218327045440674,1.6300000000000012
-0.6647275686264038,-1.0383806228637695,0.24511724710464478,1.6400000000000012
-1.069809913635254,-1.1947402954101562,0.18453818559646606,1.6500000000000012
-1.3861031532287598,-1.3216638565063477,-0.05223935842514038,1.6600000000000013
-1.175039529800415,-1.3834867477416992,0.19335272908210754,1.6700000000000013
-0.6476315855979919,-1.3175697326660156,0.43349283933639526,1.6800000000000013
0.08936822414398193,-1.18115234375,0.4602254629135132,1.6900000000000013
0.4704141616821289,-1.0124807357788086,0.5320292115211487,1.7000000000000013
0.7707246541976929,-1.3261547088623047,0.8147363066673279,1.7100000000000013
0.8432662487030029,-1.8632731437683105,1.281901478767395,1.7200000000000013
0.808944821357727,-1.7714314460754395,1.6660393476486206,1.7300000000000013
0.7927073240280151,-0.8971767425537109,2.049445629119873,1.7400000000000013
0.9433056116104126,0.23756694793701172,1.9375723600387573,1.7500000000000013
0.7538696527481079,0.9048357009887695,1.6172000169754028,1.7600000000000013
0.7769302725791931,1.2357330322265625,1.1126368045806885,1.7700000000000014
1.6457273960113525,1.452469825744629,0.648262619972229,1.7800000000000014
3.1302952766418457,1.8271474838256836,-0.0845649242401123,1.7900000000000014
4.626601696014404,2.65177059173584,-0.10423886775970459,1.8000000000000014
5.223467826843262,2.8948354721069336,0.16096997261047363,1.8100000000000014
4.599334716796875,2.5232677459716797,0.7043228149414062,1.8200000000000014
3.5133869647979736,2.3747920989990234,1.2421598434448242,1.8300000000000014
2.524749517440796,3.609921455383301,1.8078715801239014,1.8400000000000014
2.3827202320098877,4.997260093688965,2.087920665740967,1.8500000000000014
2.6149795055389404,5.878716468811035,1.234039306640625,1.8600000000000014
2.5413808822631836,4.726691246032715,0.057470083236694336,1.8700000000000014
2.0899558067321777,2.6897687911987305,-0.33435070514678955,1.8800000000000014
1.6251901388168335,1.3695898056030273,-0.6674869060516357,1.8900000000000015
0.9855754971504211,1.3838281631469727,-0.36529743671417236,1.9000000000000015
0.7837902307510376,1.7776288986206055,-0.38842588663101196,1.9100000000000015
0.4090310037136078,2.0499067306518555,-0.5963466167449951,1.9200000000000015
-0.16792817413806915,2.2865848541259766,-0.39971253275871277,1.9300000000000015
-0.5994288921356201,2.3413963317871094,0.34071993827819824,1.9400000000000015
-0.29822081327438354,1.8923053741455078,1.1676620244979858,1.9500000000000015
0.14137408137321472,1.5646514892578125,0.9853089451789856,1.9600000000000015
0.2054140269756317,2.0284042358398438,0.16613775491714478,1.9700000000000015
-0.28654196858406067,3.061699867248535,-0.3370753526687622,1.9800000000000015
-0.9757661819458008,4.087257385253906,-0.45006632804870605,1.9900000000000015
-1.436450481414795,4.212854385375977,-0.10603892803192139,2.0000000000000013
-2.217679500579834,3.779752731323242,-0.27786076068878174,2.010000000000001
-2.349597930908203,3.8246774673461914,-0.4681001901626587,2.020000000000001
-3.1952691078186035,2.1535072326660156,-1.4443104267120361,2.0300000000000007
-3.1509344577789307,1.2232599258422852,-1.4813838005065918,2.0400000000000005
-2.591930389404297,0.2829294204711914,-1.2870969772338867,2.0500000000000003
-1.8827898502349854,-0.6013555526733398,-1.75398850440979,2.06
-0.9743257164955139,-1.4034366607666016,-2.173326253890991,2.07
-0.04558849334716797,-2.1315083503723145,-1.9437098503112793,2.0799999999999996
0.22125780582427979,-2.729926586151123,-1.6712985038757324,2.0899999999999994
-0.28990209102630615,-2.9438815116882324,-1.5252526998519897,2.099999999999999
-0.9822074770927429,-2.852926254272461,-1.7752028703689575,2.109999999999999
-1.583824872970581,-2.7476329803466797,-2.0882372856140137,2.1199999999999988
-2.076158046722412,-3.0170040130615234,-1.9228172302246094,2.1299999999999986
-2.5800557136535645,-3.8932409286499023,-1.772666573524475,2.1399999999999983
-2.987417697906494,-4.6071977615356445,-2.1171340942382812,2.149999999999998
-3.1372461318969727,-5.3837127685546875,-2.777690887451172,2.159999999999998
-2.9889843463897705,-6.097593307495117,-3.0048577785491943,2.1699999999999977
-2.7752835750579834,-6.633635520935059,-2.520122528076172,2.1799999999999975
-2.4459118843078613,-7.006409645080566,-1.3176641464233398,2.1899999999999973
-1.704487919807434,-7.0355353355407715,-0.21474289894104004,2.199999999999997
-1.1789313554763794,-6.369159698486328,0.11038446426391602,2.209999999999997
-0.39139771461486816,-5.073604106903076,-0.11550569534301758,2.2199999999999966
0.38162052631378174,-3.249361991882324,-0.38927769660949707,2.2299999999999964
1.3357640504837036,-1.3888764381408691,0.3192265033721924,2.239999999999996
1.9994229078292847,0.4189481735229492,1.521087646484375,2.249999999999996
1.8849799633026123,2.6139230728149414,2.9011197090148926,2.259999999999996
1.7176613807678223,3.841874122619629,3.771571159362793,2.2699999999999956
1.9108153581619263,4.639980316162109,3.941793203353882,2.2799999999999954
1.8991990089416504,5.60201358795166,3.9709904193878174,2.289999999999995
0.7077499628067017,6.703536033630371,3.808950185775757,2.299999999999995
0.6825498342514038,6.709741592407227,3.8019139766693115,2.3099999999999947
-1.15825355052948,3.165630340576172,4.440365791320801,2.3199999999999945
-0.7081829309463501,-0.6259632110595703,4.3864946365356445,2.3299999999999943
-0.2008875608444214,-4.1649627685546875,3.714623212814331,2.339999999999994
-0.2354135513305664,-4.134028434753418,3.6479732990264893,2.349999999999994
0.06501221656799316,-2.534008502960205,0.9907832145690918,2.3599999999999937
-0.14483857154846191,1.3781967163085938,0.16188406944274902,2.3699999999999934
-1.814138650894165,4.131227493286133,-0.9297688007354736,2.3799999999999932
-3.6810457706451416,4.195565223693848,-2.6222357749938965,2.389999999999993
-5.079804420471191,4.931840896606445,-4.176100730895996,2.399999999999993
-4.49653434753418,7.45799446105957,-3.6348159313201904,2.4099999999999926
-1.4972378015518188,8.105703353881836,-0.4944026470184326,2.4199999999999924
0.4670736789703369,5.7726240158081055,1.994668960571289,2.429999999999992
-0.5751670002937317,-0.6205291748046875,0.9281840324401855,2.439999999999992
-2.1346688270568848,-3.550323486328125,-1.1577725410461426,2.4499999999999917
-2.919485569000244,-5.011570453643799,-2.4327430725097656,2.4599999999999915
-2.31653094291687,-5.449197769165039,-1.9038755893707275,2.4699999999999913
-0.5836198329925537,-4.464095115661621,-1.7743213176727295,2.479999999999991
1.6254312992095947,-1.5204553604125977,-2.976030111312866,2.489999999999991
3.0041894912719727,2.4134521484375,-4.383296489715576,2.4999999999999907
3.1589300632476807,4.121579170227051,-4.116246700286865,2.5099999999999905
2.61226224899292,3.785677909851074,-2.7776758670806885,2.5199999999999902
1.150293231010437,1.7472515106201172,-1.4624143838882446,2.52999999999999
-0.2931196689605713,-0.6423044204711914,-0.548654317855835,2.53999999999999
-1.2149697542190552,-2.5330047607421875,-0.45568811893463135,2.5499999999999896
-1.8232616186141968,-3.3195323944091797,-0.9239109754562378,2.5599999999999894
-2.069655418395996,-2.989093780517578,-0.9461976289749146,2.569999999999989
-1.7699224948883057,-2.1621828079223633,-0.6551450490951538,2.579999999999989
-1.4767074584960938,-1.049056053161621,-0.8997607827186584,2.5899999999999888
-0.6446086764335632,-0.458526611328125,-1.867030143737793,2.5999999999999885
0.5876158475875854,-0.53607177734375,-2.0305962562561035,2.6099999999999883
0.8843709230422974,-1.1708555221557617,-2.1588191986083984,2.619999999999988
0.7986401319503784,-1.8580312728881836,-1.7579680681228638,2.629999999999988
0.2891606092453003,-2.3415112495422363,-1.2817752361297607,2.6399999999999877
-0.11947131156921387,-2.4488778114318848,-0.8755319118499756,2.6499999999999875
-0.604608952999115,-2.4061808586120605,-0.19935062527656555,2.6599999999999873
-0.6189749240875244,-2.0751218795776367,0.2640654444694519,2.669999999999987
-0.60400390625,-1.8911795616149902,0.019191980361938477,2.679999999999987
-0.7396979331970215,-1.8470897674560547,-0.19677680730819702,2.6899999999999866
0.11266100406646729,-0.7740564346313477,0.06086692214012146,2.6999999999999864
0.3305445909500122,-0.9532098770141602,0.1990339457988739,2.709999999999986
0.19462555646896362,-1.3390426635742188,0.2922844886779785,2.719999999999986
-0.020974814891815186,-1.512019157409668,0.8335890769958496,2.7299999999999858
-0.0893850028514862,-0.8591346740722656,1.198578119277954,2.7399999999999856
0.3281233608722687,-0.5827198028564453,1.7300009727478027,2.7499999999999853
0.11331409215927124,-0.04600811004638672,2.087416648864746,2.759999999999985
0.6593822240829468,0.3103446960449219,1.520910620689392,2.769999999999985
1.5244905948638916,0.521728515625,1.361527681350708,2.7799999999999847
3.0989832878112793,1.353926658630371,0.6930111646652222,2.7899999999999845
4.290656089782715,2.558234214782715,0.6313121914863586,2.7999999999999843
4.9512038230896,3.712042808532715,0.8681457042694092,2.809999999999984
4.484018325805664,3.6889514923095703,0.2791864275932312,2.819999999999984
4.670289993286133,2.874359130859375,1.272947072982788,2.8299999999999836
4.063882350921631,2.706437110900879,1.4044169187545776,2.8399999999999834
3.5834710597991943,3.975764274597168,1.312186598777771,2.849999999999983
2.63158917427063,5.576580047607422,1.9067680835723877,2.859999999999983
2.5562453269958496,6.187395095825195,1.7581796646118164,2.869999999999983
2.672726631164551,5.04129695892334,0.42447447776794434,2.8799999999999826
2.293555498123169,3.17903995513916,-0.6878542304039001,2.8899999999999824
1.7569224834442139,1.910212516784668,-1.210875391960144,2.899999999999982
1.5233097076416016,2.1196155548095703,-1.3764896392822266,2.909999999999982
1.0897026062011719,2.5413026809692383,-1.6708714962005615,2.9199999999999817
0.2094956338405609,2.745638847351074,-1.4533991813659668,2.9299999999999815
-0.48628079891204834,2.822751998901367,-0.8861556053161621,2.9399999999999813
-0.42733174562454224,2.0348758697509766,-0.4232930839061737,2.949999999999981
-0.7777020335197449,1.6912841796875,0.13828568160533905,2.959999999999981
-1.459175705909729,2.4823684692382812,0.7971200942993164,2.9699999999999807
-1.5135456323623657,3.5960235595703125,0.7274056673049927,2.9799999999999804
-1.440948724746704,3.8053293228149414,0.5613067746162415,2.9899999999999802
-1.4851219654083252,3.691706657409668,0.22653377056121826,2.99999999999998
-1.4850187301635742,3.3036375045776367,-0.2161552906036377,3.00999999999998
-1.5754413604736328,2.5990219116210938,-0.9796643257141113,3.0199999999999796
-1.6804475784301758,1.9153127670288086,-1.817460298538208,3.0299999999999794
-2.1372828483581543,1.4049758911132812,-2.4838953018188477,3.039999999999979
-2.1662001609802246,0.9688167572021484,-2.5361344814300537,3.049999999999979
-1.770129680633545,0.3178548812866211,-2.3223507404327393,3.0599999999999787
-1.1885583400726318,-0.4665069580078125,-2.172666072845459,3.0699999999999785
-0.5014653205871582,-1.4349985122680664,-2.1144275665283203,3.0799999999999783
0.08809089660644531,-2.3850321769714355,-1.3444114923477173,3.089999999999978
-0.23766207695007324,-2.749624729156494,-0.5996658802032471,3.099999999999978
-0.613079309463501,-2.6027469635009766,-0.6352465152740479,3.1099999999999777
-1.3101383447647095,-2.5205273628234863,-0.9048793315887451,3.1199999999999775
-1.7632145881652832,-2.726356029510498,-1.2200052738189697,3.1299999999999772
-2.1107137203216553,-3.4428272247314453,-1.5674055814743042,3.139999999999977
-2.19734263420105,-4.514702796936035,-2.049201011657715,3.149999999999977
-2.386704206466675,-5.315889835357666,-2.5374274253845215,3.1599999999999766
-2.5104990005493164,-5.760759353637695,-2.889685869216919,3.1699999999999764
-2.4486918449401855,-6.195528507232666,-3.2141263484954834,3.179999999999976
-2.366882562637329,-6.368640899658203,-2.748720645904541,3.189999999999976
-2.0590314865112305,-6.459036827087402,-1.4829394817352295,3.1999999999999758
-1.6108851432800293,-6.36119270324707,-0.2906339168548584,3.2099999999999755
-1.0244624614715576,-6.07228946685791,0.3518543243408203,3.2199999999999753
-0.6178820133209229,-5.492238998413086,0.24639129638671875,3.229999999999975
-0.32075321674346924,-4.175131320953369,-0.16822385787963867,3.239999999999975
-0.28144872188568115,-2.3751916885375977,0.07364177703857422,3.2499999999999747
-0.05119514465332031,-0.3761882781982422,1.730262279510498,3.2599999999999745
0.4182089567184448,1.5943107604980469,3.1366310119628906,3.2699999999999743
2.016422748565674,3.5233535766601562,3.851219415664673,3.279999999999974
2.596066951751709,5.0412750244140625,4.124865531921387,3.289999999999974
2.66459321975708,5.02114200592041,4.157135486602783,3.2999999999999736
0.8908125162124634,7.307299613952637,3.7095272541046143,3.3099999999999734
-0.3258400559425354,6.05991268157959,3.322263717651367,3.319999999999973
-0.8793583512306213,3.159524917602539,4.108936309814453,3.329999999999973
-0.02041459083557129,-1.2725706100463867,4.394082069396973,3.3399999999999728
0.6702884435653687,-4.403067111968994,4.457492828369141,3.3499999999999726
0.27225053310394287,-5.018354415893555,3.757535219192505,3.3599999999999723
0.2518749237060547,-2.755915641784668,1.2288854122161865,3.369999999999972
-0.18055641651153564,0.2322988510131836,-0.38134312629699707,3.379999999999972
-1.2560594081878662,2.482102394104004,-1.39652419090271,3.3899999999999717
-3.217026472091675,3.12484073638916,-3.9318366050720215,3.3999999999999715
-4.318620681762695,4.806608200073242,-5.274950981140137,3.4099999999999713
-3.912808895111084,8.003070831298828,-4.790396690368652,3.419999999999971
-1.2967194318771362,8.847963333129883,-1.4625027179718018,3.429999999999971
0.12468278408050537,6.208926200866699,1.482461929321289,3.4399999999999706
-0.6812756657600403,1.597677230834961,1.7467124462127686,3.4499999999999704
-2.111546039581299,-1.2367267608642578,-0.5551328659057617,3.45999999999997
-2.049161911010742,-3.267141342163086,-1.0326910018920898,3.46999999999997
-1.1259136199951172,-4.903391361236572,-1.6595916748046875,3.47999999999997
0.3078805208206177,-4.002006530761719,-2.977473258972168,3.4899999999999696
1.6551425457000732,-1.3138175010681152,-4.560888290405273,3.4999999999999694
2.8350839614868164,1.0002784729003906,-5.192370891571045,3.509999999999969
3.217459201812744,2.239548683166504,-4.304370880126953,3.519999999999969
2.220712184906006,1.883866310119629,-2.412261724472046,3.5299999999999687
0.3644826412200928,0.46390342712402344,-0.13822078704833984,3.5399999999999685
-1.2228364944458008,-1.1637334823608398,0.5114498138427734,3.5499999999999683
-2.3835294246673584,-2.275059700012207,-0.6200337409973145,3.559999999999968
-2.8674697875976562,-2.6679224967956543,-1.6224058866500854,3.569999999999968
-2.8315911293029785,-2.7004847526550293,-1.488492488861084,3.5799999999999677
-2.12481427192688,-1.9097566604614258,-1.6176353693008423,3.5899999999999674
-1.4209246635437012,-1.126988410949707,-1.9760968685150146,3.5999999999999672
-0.2979031801223755,-0.852757453918457,-1.7482521533966064,3.609999999999967
0.6311252117156982,-0.8808994293212891,-1.2660424709320068,3.619999999999967
0.9672257900238037,-1.2734251022338867,-0.8051786422729492,3.6299999999999666
0.5501008033752441,-1.8792753219604492,-1.08250093460083,3.6399999999999664
0.15632295608520508,-2.4250941276550293,-1.1477380990982056,3.649999999999966
-0.7217109203338623,-2.542189121246338,-0.800804853439331,3.659999999999966
-1.3784160614013672,-2.437587261199951,-0.5845082998275757,3.6699999999999657
-1.449879765510559,-2.116481304168701,-0.3038363754749298,3.6799999999999655
-1.2344272136688232,-1.7244081497192383,-0.10920929908752441,3.6899999999999653
-0.853524923324585,-1.5768308639526367,-0.11383016407489777,3.699999999999965
-0.4844891428947449,-1.745046615600586,0.058838121592998505,3.709999999999965
-0.3540007770061493,-1.709390640258789,0.49496781826019287,3.7199999999999647
-0.2973783314228058,-1.6041126251220703,1.1225430965423584,3.7299999999999645
-0.17806476354599,-1.3001165390014648,1.645669937133789,3.7399999999999642
0.11284208297729492,-0.3188199996948242,1.5212640762329102,3.749999999999964
0.38012921810150146,0.9373779296875,1.1588976383209229,3.759999999999964
0.5920017957687378,1.6348934173583984,1.2292381525039673,3.7699999999999636
0.9316378831863403,1.8499832153320312,1.2668437957763672,3.7799999999999634
1.953574538230896,1.807046890258789,0.8757892847061157,3.789999999999963
3.5217137336730957,2.4436750411987305,0.6306705474853516,3.799999999999963
4.815759658813477,3.079193115234375,0.5641298890113831,3.8099999999999627
4.81481409072876,3.2205066680908203,0.5800046920776367,3.8199999999999625
4.060831069946289,2.9541168212890625,0.7682989835739136,3.8299999999999623
3.089667320251465,2.6175918579101562,1.414862036705017,3.839999999999962
2.5657098293304443,2.608419418334961,1.4793599843978882,3.849999999999962
1.823713779449463,3.8964900970458984,1.8537955284118652,3.8599999999999617
2.0251083374023438,5.303460121154785,2.0048396587371826,3.8699999999999615
2.492459297180176,5.76129150390625,1.283101201057434,3.8799999999999613
2.5476291179656982,4.596640586853027,0.258303701877594,3.889999999999961
2.3673081398010254,2.9883642196655273,-0.4677402973175049,3.899999999999961
2.2749946117401123,2.2189626693725586,-1.0214409828186035,3.9099999999999606
2.003038167953491,2.322922706604004,-1.0543181896209717,3.9199999999999604
1.5656731128692627,2.614635467529297,-1.2455711364746094,3.92999999999996
1.1191174983978271,2.1064348220825195,-1.8214446306228638,3.93999999999996
0.4654378592967987,1.649409294128418,-2.2472641468048096,3.9499999999999598
-0.09225541353225708,1.4679555892944336,-1.8414645195007324,3.9599999999999596
-0.4391627907752991,1.9973011016845703,-0.37673628330230713,3.9699999999999593
-0.5830819606781006,2.743419647216797,0.9406264424324036,3.979999999999959
-0.9032686352729797,3.225125312805176,1.1250929832458496,3.989999999999959
-1.408013105392456,3.307356834411621,0.3740141987800598,3.9999999999999587
-1.8353468179702759,3.266946792602539,-0.23166722059249878,4.009999999999959
-2.286630392074585,3.0276899337768555,-0.44885802268981934,4.019999999999959
-2.4258503913879395,3.055438995361328,-0.647197961807251,4.0299999999999585
-2.160712242126465,1.8780450820922852,-1.8914871215820312,4.039999999999958
-1.8680760860443115,1.426793098449707,-2.3982186317443848,4.049999999999958
-1.3041051626205444,0.8470926284790039,-1.7081893682479858,4.059999999999958
-0.8795478343963623,0.2272348403930664,-1.3756779432296753,4.069999999999958
-0.3170100450515747,-0.5297079086303711,-1.5988893508911133,4.079999999999957
0.25671714544296265,-1.447662353515625,-1.6171010732650757,4.089999999999957
0.40842366218566895,-2.1284446716308594,-1.1579838991165161,4.099999999999957
-0.1477118730545044,-2.349606513977051,-0.8522541522979736,4.109999999999957
-0.22608983516693115,-2.287604331970215,-1.0160269737243652,4.119999999999957
-1.4240187406539917,-2.743173599243164,-1.477013111114502,4.129999999999956
-1.8697903156280518,-2.835684299468994,-2.1222357749938965,4.139999999999956
-2.0135622024536133,-3.116471767425537,-2.117847204208374,4.149999999999956
-2.024115562438965,-3.7007956504821777,-2.0741162300109863,4.159999999999956
-2.198145627975464,-4.218557357788086,-2.493853807449341,4.1699999999999555
-2.410551071166992,-4.813218116760254,-2.896554946899414,4.179999999999955
-2.4920761585235596,-5.163734436035156,-2.9462153911590576,4.189999999999955
-2.34303617477417,-5.680022716522217,-2.593691110610962,4.199999999999955
-2.2231574058532715,-6.358926296234131,-1.66489839553833,4.209999999999955
-1.9294922351837158,-6.963252067565918,-0.9546937942504883,4.2199999999999545
-1.677844762802124,-6.822781562805176,-0.5842101573944092,4.229999999999954
-1.3117120265960693,-6.103386878967285,-0.19417238235473633,4.239999999999954
-0.7968336939811707,-5.410616874694824,0.0226590633392334,4.249999999999954
-0.11480176448822021,-4.237480163574219,0.14561033248901367,4.259999999999954
0.3685489892959595,-2.6223630905151367,0.5712001323699951,4.269999999999953
0.4206598997116089,-0.49769020080566406,1.2722482681274414,4.279999999999953
0.3608509302139282,1.9341564178466797,1.8026080131530762,4.289999999999953
0.7601165175437927,4.699814796447754,3.042604446411133,4.299999999999953
1.6566977500915527,6.537014961242676,4.011075019836426,4.3099999999999525
2.763545274734497,8.013223648071289,4.718400478363037,4.319999999999952
2.2054851055145264,8.065245628356934,4.940983772277832,4.329999999999952
0.3805728554725647,6.409841537475586,4.5448408126831055,4.339999999999952
-0.7688659429550171,2.8605966567993164,4.585256576538086,4.349999999999952
-0.22319471836090088,-2.832453727722168,4.222434043884277,4.3599999999999515
0.4271957278251648,-6.057979583740234,4.164412498474121,4.369999999999951
0.18722790479660034,-6.373312473297119,3.4903321266174316,4.379999999999951
0.6798020601272583,-4.348559379577637,2.5447192192077637,4.389999999999951
0.32428693771362305,-0.03258037567138672,1.4473278522491455,4.399999999999951
-0.8194410800933838,4.053529739379883,-0.4603703022003174,4.40999999999995
-3.825226306915283,5.059818267822266,-3.9667606353759766,4.41999999999995
-5.067267894744873,4.357802391052246,-5.656230926513672,4.42999999999995
-4.454096794128418,5.712564468383789,-4.791454315185547,4.43999999999995
-2.3012678623199463,7.0037841796875,-2.6390180587768555,4.4499999999999496
-0.19805628061294556,6.021886825561523,0.46538448333740234,4.459999999999949
0.03114461898803711,2.1449108123779297,1.6177747249603271,4.469999999999949
-1.8531653881072998,-1.941786766052246,0.10901999473571777,4.479999999999949
-2.254189968109131,-3.7513623237609863,-1.4186903238296509,4.489999999999949
-1.6355886459350586,-4.310753345489502,-1.3241418600082397,4.4999999999999485
0.11222362518310547,-3.3136653900146484,-0.8792502880096436,4.509999999999948
2.3583502769470215,-0.7154884338378906,-2.8339593410491943,4.519999999999948
3.622817039489746,1.8357410430908203,-4.475721836090088,4.529999999999948
2.8959081172943115,3.1727705001831055,-5.199903964996338,4.539999999999948
1.7916252613067627,2.630189895629883,-3.4915904998779297,4.549999999999947
0.3813897371292114,0.7655658721923828,-1.0283774137496948,4.559999999999947
-1.048281192779541,-1.1355400085449219,0.1668682098388672,4.569999999999947
-1.9874320030212402,-2.474769115447998,0.05546903610229492,4.579999999999947
-2.2815890312194824,-3.1180500984191895,-0.8081471920013428,4.589999999999947
-2.314793825149536,-2.8651843070983887,-1.2044801712036133,4.599999999999946
-2.4502978324890137,-2.142005443572998,-1.5223324298858643,4.609999999999946
-2.147336483001709,-1.6783084869384766,-1.5287350416183472,4.619999999999946
-1.4271399974822998,-1.318216323852539,-1.5551388263702393,4.629999999999946
-0.3245449662208557,-1.24090576171875,-1.28731107711792,4.6399999999999455
0.46664226055145264,-1.479426383972168,-1.7216945886611938,4.649999999999945
0.8101485371589661,-1.5550270080566406,-1.0879708528518677,4.659999999999945
0.7859052419662476,-1.5753803253173828,-0.7527370452880859,4.669999999999945
0.27397942543029785,-1.5357122421264648,-0.5694448351860046,4.679999999999945
-0.1499089002609253,-1.8051767349243164,-0.03683510422706604,4.689999999999944
-0.275410920381546,-1.9938020706176758,0.29419219493865967,4.699999999999944
-0.08431947231292725,-1.9941654205322266,0.15359847247600555,4.709999999999944
0.3929612636566162,-1.8063340187072754,0.6523188948631287,4.719999999999944
0.6953305006027222,-1.5785942077636719,0.9024534225463867,4.729999999999944
0.8973233699798584,-1.2988967895507812,1.0353059768676758,4.739999999999943
0.8660762906074524,-0.9312114715576172,1.5304981470108032,4.749999999999943
0.5682427883148193,-0.5018692016601562,1.9327466487884521,4.759999999999943
0.21500082314014435,-0.26229381561279297,1.9366915225982666,4.769999999999943
-0.2650044858455658,0.05063438415527344,1.4935775995254517,4.7799999999999425
-0.19720731675624847,0.422607421875,1.2988717555999756,4.789999999999942
0.8135061860084534,1.052032470703125,0.8105126619338989,4.799999999999942
2.1834568977355957,2.3789291381835938,0.23724979162216187,4.809999999999942
3.421414375305176,3.265566825866699,0.4012523293495178,4.819999999999942
3.9723706245422363,3.472066879272461,0.6137515902519226,4.8299999999999415
4.232646942138672,2.9401683807373047,0.6649790406227112,4.839999999999941
3.970843553543091,2.590770721435547,0.9433580636978149,4.849999999999941
3.6334400177001953,2.5579137802124023,1.2942719459533691,4.859999999999941
3.2283520698547363,3.119731903076172,1.6336816549301147,4.869999999999941
2.7946369647979736,4.9565887451171875,2.225454330444336,4.87999999999994
2.8638904094696045,6.581966400146484,1.7405407428741455,4.88999999999994
2.59626841545105,6.084586143493652,0.171819806098938,4.89999999999994
2.380237340927124,4.092562675476074,-1.0902639627456665,4.90999999999994
1.93064284324646,2.498260498046875,-1.2528709173202515,4.9199999999999395
1.5219354629516602,2.1877822875976562,-1.1035866737365723,4.929999999999939
1.0496461391448975,2.236577033996582,-1.5128756761550903,4.939999999999939
0.293675035238266,2.12375545501709,-1.9205559492111206,4.949999999999939
-0.6114341020584106,1.9217710494995117,-1.9381672143936157,4.959999999999939
-1.0690151453018188,1.7545461654663086,-1.6070528030395508,4.9699999999999385
-1.2267136573791504,1.6053466796875,-0.6022255420684814,4.979999999999938
-1.0384125709533691,1.4832038879394531,0.6593571305274963,4.989999999999938
-0.9123839139938354,1.7507781982421875,1.0659338235855103,4.999999999999938
-1.0898914337158203,2.3196916580200195,0.15662610530853271,5.009999999999938
-1.3221269845962524,2.8112592697143555,-0.5680899620056152,5.019999999999937
-1.5159639120101929,3.134225845336914,-0.4445934295654297,5.029999999999937
-2.003819227218628,3.2966175079345703,-0.13023769855499268,5.039999999999937
-2.423893690109253,3.263540267944336,-0.8318772315979004,5.049999999999937
-2.342437982559204,3.122685432434082,-1.7989284992218018,5.0599999999999365
-2.1238887310028076,2.595015525817871,-2.4356021881103516,5.069999999999936
-1.3659082651138306,1.4975099563598633,-1.9212883710861206,5.079999999999936
-0.7193353772163391,0.43307971954345703,-1.4080945253372192,5.089999999999936
0.25721246004104614,-0.821162223815918,-1.3186414241790771,5.099999999999936
0.9258775115013123,-1.9603590965270996,-1.360779881477356,5.1099999999999355
1.169328212738037,-2.7988457679748535,-1.4058842658996582,5.119999999999935
0.810543954372406,-3.215449810028076,-1.1907281875610352,5.129999999999935
-0.18872642517089844,-3.303499698638916,-0.9471864700317383,5.139999999999935
-0.8449769020080566,-3.109706401824951,-1.277996301651001,5.149999999999935
-1.2944802045822144,-3.2745509147644043,-1.5299289226531982,5.159999999999934
-1.8258390426635742,-3.841217517852783,-1.8378689289093018,5.169999999999934
-2.4125590324401855,-4.570554256439209,-2.348973274230957,5.179999999999934
-2.9435038566589355,-5.444636821746826,-2.8904685974121094,5.189999999999934
-3.24838924407959,-6.185830116271973,-3.0344252586364746,5.199999999999934
-3.1560449600219727,-6.900346279144287,-2.48081111907959,5.209999999999933
-2.963010787963867,-7.585134029388428,-1.6939151287078857,5.219999999999933
-2.458186149597168,-7.583354473114014,-1.1074738502502441,5.229999999999933
-1.8630421161651611,-6.903407096862793,-1.0867071151733398,5.239999999999933
-1.0422929525375366,-5.943755149841309,-1.144317626953125,5.2499999999999325
-0.066647469997406,-4.515366077423096,-1.0720024108886719,5.259999999999932
0.49025458097457886,-3.046349048614502,-0.4374675750732422,5.269999999999932
0.5474188923835754,-0.9089479446411133,0.7622895240783691,5.279999999999932
0.01765233278274536,1.833003044128418,2.2496933937072754,5.289999999999932
-0.3681088387966156,4.413296699523926,4.074997901916504,5.299999999999931
0.4282302260398865,5.204729080200195,5.202146530151367,5.309999999999931
1.7516818046569824,5.092833518981934,4.173758029937744,5.319999999999931
1.7696127891540527,5.264878273010254,2.950011730194092,5.329999999999931
1.3624132871627808,4.499601364135742,3.20542573928833,5.339999999999931
1.0850328207015991,2.715573310852051,3.9224531650543213,5.34999999999993
0.7152419090270996,0.4493293762207031,3.494601249694824,5.35999999999993
0.4618443250656128,-1.455094814300537,3.132568597793579,5.36999999999993
0.29657262563705444,-2.788949489593506,3.6504459381103516,5.37999999999993
0.7350773811340332,-2.1089673042297363,3.3413870334625244,5.3899999999999295
0.9475670456886292,0.2196664810180664,2.036236524581909,5.399999999999929
-0.5036754608154297,3.0918407440185547,1.0100419521331787,5.409999999999929
-3.3377857208251953,4.132661819458008,-1.5769009590148926,5.419999999999929
-5.545893669128418,4.096914291381836,-4.77360725402832,5.429999999999929
-5.3725080490112305,6.0229949951171875,-5.503975868225098,5.4399999999999284
-3.848878860473633,7.141736030578613,-3.824972152709961,5.449999999999928
-1.7822270393371582,6.736196517944336,-0.1478583812713623,5.459999999999928
-0.5272164344787598,3.2462263107299805,2.3811638355255127,5.469999999999928
-0.8356701135635376,-1.361556053161621,1.4334700107574463,5.479999999999928
-1.5374488830566406,-3.335456371307373,-0.6317930221557617,5.489999999999927
-1.078709363937378,-4.222916603088379,-1.7446845769882202,5.499999999999927
-0.3699027895927429,-4.163300037384033,-2.3394887447357178,5.509999999999927
1.1417651176452637,-2.848069667816162,-3.3427839279174805,5.519999999999927
2.870594024658203,-0.14295387268066406,-5.520299911499023,5.5299999999999265
2.9802846908569336,1.627314567565918,-5.9868316650390625,5.539999999999926
1.6317682266235352,2.3242368698120117,-4.449169158935547,5.549999999999926
-0.24547338485717773,1.0764408111572266,-1.2845994234085083,5.559999999999926
-1.4035534858703613,-0.6087198257446289,0.3941967487335205,5.569999999999926
-2.3121237754821777,-2.157116413116455,0.9301943778991699,5.5799999999999255
-2.721562147140503,-2.811776638031006,-0.013719916343688965,5.589999999999925
-2.7351834774017334,-2.566189765930176,-1.3335388898849487,5.599999999999925
-2.581658363342285,-1.5608453750610352,-2.0956478118896484,5.609999999999925
-1.7563259601593018,-0.6327733993530273,-2.088045358657837,5.619999999999925
-0.914665937423706,-0.3246479034423828,-1.9020955562591553,5.629999999999924
0.31223243474960327,-0.5140609741210938,-1.6133339405059814,5.639999999999924
1.2575905323028564,-0.8783426284790039,-1.4702939987182617,5.649999999999924
1.3554978370666504,-1.231278419494629,-1.710402011871338,5.659999999999924
0.8699682354927063,-1.3116540908813477,-1.7236847877502441,5.6699999999999235
0.2532820701599121,-1.2698230743408203,-0.2643902599811554,5.679999999999923
-0.07491177320480347,-1.1416406631469727,0.7185308933258057,5.689999999999923
-0.223829448223114,-1.1094942092895508,0.5461313128471375,5.699999999999923
-0.2807745933532715,-1.0927982330322266,0.3764491379261017,5.709999999999923
-0.05918997526168823,-1.1371183395385742,0.29405471682548523,5.7199999999999225
0.19107860326766968,-1.1802253723144531,0.13216939568519592,5.729999999999922
0.21877208352088928,-1.2460355758666992,-0.0041481321677565575,5.739999999999922
0.40975475311279297,-0.9514083862304688,0.39375925064086914,5.749999999999922
0.8214114904403687,-0.6672697067260742,1.0191712379455566,5.759999999999922
1.0455820560455322,-0.5418844223022461,1.5407443046569824,5.769999999999921
0.8282825350761414,-0.2708711624145508,1.801598072052002,5.779999999999921
0.54569411277771,0.10544395446777344,2.00311279296875,5.789999999999921
0.3703644871711731,0.32381534576416016,1.661637306213379,5.799999999999921
0.6155146360397339,0.29067420959472656,1.1897459030151367,5.809999999999921
0.7875317335128784,0.5776433944702148,0.9543783068656921,5.81999999999992
1.182611107826233,1.178884506225586,0.7435086965560913,5.82999999999992
1.9897816181182861,1.8614139556884766,0.4486578106880188,5.83999999999992
2.5905842781066895,2.44039249420166,0.6015192866325378,5.84999999999992
2.8460354804992676,2.4294614791870117,0.8497349619865417,5.8599999999999195
2.5148634910583496,2.1485071182250977,1.0281007289886475,5.869999999999919
2.0552103519439697,2.3196964263916016,1.2188178300857544,5.879999999999919
1.7784444093704224,2.904759407043457,1.0556923151016235,5.889999999999919
1.5432589054107666,4.29949951171875,1.5681028366088867,5.899999999999919
1.9169669151306152,5.817008018493652,1.6031556129455566,5.909999999999918
2.1428475379943848,5.304512023925781,0.8404687643051147,5.919999999999918
2.185393810272217,3.457418441772461,-0.4179788827896118,5.929999999999918
1.9619035720825195,1.7837553024291992,-1.386343240737915,5.939999999999918
1.6388230323791504,1.4696121215820312,-1.6740169525146484,5.949999999999918
1.1172038316726685,2.093388557434082,-1.750516653060913,5.959999999999917
0.7701221704483032,2.5437936782836914,-2.062654972076416,5.969999999999917
0.004782915115356445,2.8169946670532227,-1.0816059112548828,5.979999999999917
-0.32725125551223755,2.719942092895508,-0.24067631363868713,5.989999999999917
-0.19442826509475708,2.426325798034668,-0.01535150408744812,5.9999999999999165
-0.044387757778167725,2.296330451965332,-0.21761226654052734,6.009999999999916
-0.5500730872154236,2.2146997451782227,0.04787784814834595,6.019999999999916
-1.5078703165054321,2.2339935302734375,0.42602837085723877,6.029999999999916
-2.3303370475769043,2.425931930541992,0.3526129722595215,6.039999999999916
-2.477247953414917,2.4663381576538086,0.3748488426208496,6.0499999999999154
-2.4214439392089844,2.2139644622802734,0.1339040994644165,6.059999999999915
-2.561072826385498,2.246286392211914,-0.056105852127075195,6.069999999999915
-1.4467062950134277,1.2168512344360352,-1.6386187076568604,6.079999999999915
-0.7761999368667603,0.7533693313598633,-2.5723323822021484,6.089999999999915
-0.12306436896324158,0.18597412109375,-2.441384792327881,6.099999999999914
0.17886194586753845,-0.3249626159667969,-2.3434159755706787,6.109999999999914
0.5723528861999512,-0.8778095245361328,-2.285085916519165,6.119999999999914
0.7633406519889832,-1.482809066772461,-2.095118999481201,6.129999999999914
0.4531724452972412,-1.8577628135681152,-1.7344255447387695,6.1399999999999135
0.405140221118927,-1.7998862266540527,-1.897653579711914,6.149999999999913
-1.1423203945159912,-1.9860577583312988,-0.8943006992340088,6.159999999999913
-1.8426592350006104,-1.9855961799621582,-0.9364547729492188,6.169999999999913
-2.439241647720337,-2.297429084777832,-1.2689719200134277,6.179999999999913
-2.7725625038146973,-2.8694815635681152,-1.6893459558486938,6.1899999999999125
-2.7690107822418213,-3.7497010231018066,-2.1335182189941406,6.199999999999912
-2.7247018814086914,-4.34214448928833,-2.673053026199341,6.209999999999912
-2.5264737606048584,-5.1009721755981445,-2.688958168029785,6.219999999999912
-2.1803669929504395,-5.625144004821777,-2.7375171184539795,6.229999999999912
-1.699277639389038,-6.098657131195068,-2.149095058441162,6.239999999999911
-1.2624869346618652,-6.244436264038086,-1.362522840499878,6.249999999999911
-0.9529523849487305,-5.789763450622559,-0.5218014717102051,6.259999999999911
-0.7800900936126709,-4.864649772644043,-0.10998153686523438,6.269999999999911
-0.31680649518966675,-3.9763031005859375,0.1776580810546875,6.2799999999999105
0.23037993907928467,-3.1863913536071777,0.5730068683624268,6.28999999999991
0.7518476843833923,-2.3000011444091797,1.294593334197998,6.29999999999991
0.7884290814399719,-2.338590621948242,1.380631685256958,6.30999999999991
1.3526852130889893,-0.643310546875,1.8679051399230957,6.31999999999991
1.2770214080810547,0.19090747833251953,1.52638578414917,6.3299999999999095
0.5583000779151917,1.1710329055786133,1.5144200325012207,6.339999999999909
0.38135290145874023,2.0207109451293945,1.3790359497070312,6.349999999999909
0.7920668721199036,3.3390350341796875,1.5641913414001465,6.359999999999909
1.3103325366973877,4.619259834289551,2.623765230178833,6.369999999999909
1.5097448825836182,5.032001495361328,4.259799003601074,6.379999999999908
1.1437005996704102,3.8135318756103516,5.446979522705078,6.389999999999908
0.16203832626342773,0.913487434387207,5.1977434158325195,6.399999999999908
-0.46807655692100525,-1.480445384979248,4.2792439460754395,6.409999999999908
-0.6447619795799255,-2.4014954566955566,3.9439961910247803,6.419999999999908
-0.3289751708507538,-0.6451425552368164,2.8841285705566406,6.429999999999907
-1.0454683303833008,1.8331689834594727,0.8104062080383301,6.439999999999907
-2.8698654174804688,4.038995742797852,-0.46597719192504883,6.449999999999907
-4.512673377990723,3.373795509338379,-2.6508262157440186,6.459999999999907
-5.223233222961426,2.8317031860351562,-4.225806713104248,6.4699999999999065
-5.125743865966797,3.781707763671875,-5.277773857116699,6.479999999999906
-3.420243501663208,5.208322525024414,-3.175558090209961,6.489999999999906
-0.8433255553245544,5.299014091491699,1.0351459980010986,6.499999999999906
-0.8180712461471558,5.296469688415527,1.0368211269378662,6.509999999999906
0.18188023567199707,-2.2549381256103516,1.3680670261383057,6.519999999999905
-0.7915606498718262,-3.2358641624450684,-0.9231879711151123,6.529999999999905
-1.306802749633789,-1.8012080192565918,-2.7438864707946777,6.539999999999905
-0.7094169855117798,0.592930793762207,-2.8117432594299316,6.549999999999905
1.7784161567687988,3.002513885498047,-3.068413496017456,6.559999999999905
3.3209023475646973,3.024653434753418,-4.247263431549072,6.569999999999904
2.067018747329712,1.3899650573730469,-4.350397109985352,6.579999999999904
0.43627870082855225,-0.34252262115478516,-3.124114751815796,6.589999999999904
-1.126628041267395,-2.0568900108337402,-1.8013484477996826,6.599999999999904
-2.3520641326904297,-3.0215282440185547,-0.576775312423706,6.6099999999999035
-2.808894157409668,-3.0054268836975098,0.06795930862426758,6.619999999999903
-2.6221208572387695,-2.132579803466797,-0.23650622367858887,6.629999999999903
-2.0264828205108643,-0.6286468505859375,-1.321639060974121,6.639999999999903
-1.4572046995162964,0.260101318359375,-1.667839765548706,6.649999999999903
-0.6734287142753601,0.47270774841308594,-1.8365259170532227,6.659999999999902
-0.12734287977218628,-0.16245079040527344,-2.1889312267303467,6.669999999999902
0.10408955812454224,-0.8363666534423828,-2.678452730178833,6.679999999999902
0.2998282313346863,-1.3772382736206055,-2.529961347579956,6.689999999999902
0.45850157737731934,-1.6893243789672852,-2.2279794216156006,6.699999999999902
0.8363993167877197,-2.0429563522338867,-1.5065488815307617,6.709999999999901
1.167962908744812,-2.2126388549804688,-0.31390661001205444,6.719999999999901
1.0404143333435059,-2.049757480621338,-0.26025575399398804,6.729999999999901
0.6682175397872925,-1.459141731262207,-0.7225785255432129,6.739999999999901
0.26807135343551636,-0.6616048812866211,-0.541013240814209,6.7499999999999005
-0.17112454771995544,-0.16480255126953125,-0.38366714119911194,6.7599999999999
-0.3812297582626343,-0.289459228515625,-0.37374430894851685,6.7699999999999
-0.5338982939720154,-0.8319988250732422,-0.38172581791877747,6.7799999999999
-0.5816622376441956,-1.4189567565917969,-0.4295879304409027,6.7899999999999
-0.5485329031944275,-1.5835838317871094,-0.44522711634635925,6.7999999999998995
-0.5403369665145874,-1.3308296203613281,-0.3137480318546295,6.809999999999899
-0.2812666893005371,-0.8235588073730469,0.24162760376930237,6.819999999999899
-0.09355777502059937,-0.3753471374511719,0.3101712167263031,6.829999999999899
-0.26048195362091064,0.02586078643798828,0.12712489068508148,6.839999999999899
-0.4803135395050049,0.040053367614746094,0.47721973061561584,6.849999999999898
-0.5797572135925293,0.0025930404663085938,0.9863907098770142,6.859999999999898
-0.5128539800643921,0.002002716064453125,1.0580577850341797,6.869999999999898
-0.16660979390144348,0.02864551544189453,1.062917947769165,6.879999999999898
0.648197591304779,-0.7532005310058594,1.1866636276245117,6.8899999999998975
0.5619877576828003,0.00991058349609375,0.1359635889530182,6.899999999999897
1.600864291191101,0.079193115234375,-0.3939060568809509,6.909999999999897
1.6026262044906616,0.7905616760253906,-0.5644195675849915,6.919999999999897
1.9109809398651123,0.6453018188476562,-0.39518246054649353,6.929999999999897
1.8241114616394043,0.12453269958496094,-0.7815532684326172,6.9399999999998965
1.406137228012085,0.006146430969238281,-0.5482832789421082,6.949999999999896
0.8906727433204651,0.26100730895996094,0.9235348105430603,6.959999999999896
1.1564867496490479,0.6615829467773438,1.928266167640686,6.969999999999896
1.4597065448760986,1.2534971237182617,2.864535093307495,6.979999999999896
1.7204132080078125,1.6467056274414062,3.106698751449585,6.989999999999895
1.8453856706619263,1.7291698455810547,2.261723756790161,6.999999999999895
1.456157922744751,2.5618057250976562,1.9038820266723633,7.009999999999895
1.818995475769043,3.8980445861816406,1.1953983306884766,7.019999999999895
2.804966449737549,4.243288040161133,-0.6345808506011963,7.0299999999998946
3.5284008979797363,3.850923538208008,-2.11165189743042,7.039999999999894
3.7019495964050293,3.5293712615966797,-2.3191330432891846,7.049999999999894
2.5286660194396973,3.5698280334472656,-2.66310715675354,7.059999999999894
1.2431418895721436,3.569941520690918,-2.7559289932250977,7.069999999999894
0.5143336653709412,3.1394081115722656,-2.216982841491699,7.0799999999998935
0.6568371057510376,2.1181182861328125,-1.5405247211456299,7.089999999999893
-0.6678645610809326,2.527944564819336,-0.8669366240501404,7.099999999999893
-2.0767860412597656,3.830014228820801,-0.3051983118057251,7.109999999999893
-2.701871871948242,4.411114692687988,0.4719281494617462,7.119999999999893
-2.6823434829711914,3.6487503051757812,0.43793702125549316,7.129999999999892
-2.539900302886963,2.18975830078125,-0.16513526439666748,7.139999999999892
-2.66852068901062,0.8126306533813477,-0.8323391675949097,7.149999999999892
-3.0897653102874756,0.46094799041748047,-1.1437771320343018,7.159999999999892
-3.403927803039551,0.7093677520751953,-0.7841002941131592,7.169999999999892
-3.587641716003418,1.0583200454711914,-0.591949999332428,7.179999999999891
-3.4381377696990967,1.0408964157104492,-0.46890246868133545,7.189999999999891
-2.672147750854492,0.920802116394043,-0.6243025064468384,7.199999999999891
-1.6194283962249756,0.6813364028930664,-1.3789290189743042,7.209999999999891
-0.7193782329559326,0.4080228805541992,-2.420846700668335,7.2199999999998905
-0.15064406394958496,0.45683956146240234,-3.521822452545166,7.22999999999989
-0.4364255964756012,0.35981273651123047,-3.4933457374572754,7.23999999999989
-0.9900489449501038,0.2266855239868164,-2.8338606357574463,7.24999999999989
-1.2347304821014404,0.18564224243164062,-2.1143648624420166,7.25999999999989
-1.3425782918930054,0.2852134704589844,-1.3455497026443481,7.269999999999889
-1.4122314453125,0.3296184539794922,-1.4696322679519653,7.279999999999889
-0.9468732476234436,0.6382570266723633,-1.1526111364364624,7.289999999999889
-3.5538926124572754,-1.0713119506835938,-1.8493300676345825,7.299999999999889
-3.2965383529663086,-1.7299509048461914,-1.5673521757125854,7.309999999999889
-3.352303981781006,-2.205796241760254,-0.9729082584381104,7.319999999999888
-2.9838085174560547,-3.203584671020508,-0.7034809589385986,7.329999999999888
-2.1193904876708984,-3.58689546585083,-0.5715889930725098,7.339999999999888
-0.7406883239746094,-3.649728298187256,-1.206434965133667,7.349999999999888
-0.660682201385498,-2.6498374938964844,-0.9129056930541992,7.3599999999998875
-0.3521319031715393,-2.116448402404785,-1.0033445358276367,7.369999999999887
0.01730978488922119,-2.29298734664917,-1.1554148197174072,7.379999999999887
0.07263582944869995,-2.753962993621826,-1.3970119953155518,7.389999999999887
-0.11050677299499512,-2.8787240982055664,-1.7428425550460815,7.399999999999887
-0.793154776096344,-2.0947608947753906,-1.9743586778640747,7.4099999999998865
-1.5868208408355713,-1.2289209365844727,-1.4293711185455322,7.419999999999886
-2.1719396114349365,-0.8363704681396484,-1.2342891693115234,7.429999999999886
-1.3730225563049316,-0.7748680114746094,-1.5878615379333496,7.439999999999886
-0.4497300386428833,-0.6910953521728516,-2.4824628829956055,7.449999999999886
-0.4432426393032074,0.5015096664428711,-2.654571294784546,7.459999999999885
-0.07084989547729492,0.5762081146240234,-3.0731048583984375,7.469999999999885
-1.0965441465377808,0.8625965118408203,-1.4753739833831787,7.479999999999885
-1.8666975498199463,1.3570947647094727,-0.6011209487915039,7.489999999999885
-1.7438926696777344,1.6028175354003906,-0.7247741222381592,7.4999999999998845
-1.182011365890503,1.2565040588378906,-0.01768779754638672,7.509999999999884
-0.9826161861419678,1.4722070693969727,0.5781846046447754,7.519999999999884
-1.6260247230529785,1.3472118377685547,1.181612253189087,7.529999999999884
-1.0752301216125488,2.099715232849121,0.4899725914001465,7.539999999999884
-0.3075648248195648,0.6576166152954102,-0.9617530107498169,7.5499999999998835
-0.27005019783973694,0.6480093002319336,-0.9224587678909302,7.559999999999883
0.6963772773742676,1.4453611373901367,-1.8868637084960938,7.569999999999883
0.9976662993431091,1.7541351318359375,-0.581439733505249,7.579999999999883
1.1228913068771362,0.8562030792236328,-0.6914381980895996,7.589999999999883
0.9993172883987427,-0.48844337463378906,-1.165887713432312,7.599999999999882
-0.5138257741928101,0.5689125061035156,1.3368974924087524,7.609999999999882
-2.4405338764190674,1.0946159362792969,0.6624820232391357,7.619999999999882
-1.5176684856414795,-0.5227622985839844,-0.6068235635757446,7.629999999999882
-1.106873631477356,-2.3561606407165527,-1.5907390117645264,7.6399999999998816
-1.1209930181503296,-1.6227140426635742,-1.2557319402694702,7.649999999999881
-0.4833909273147583,-0.36289215087890625,0.16388344764709473,7.659999999999881
-0.2795063257217407,0.008699417114257812,0.10287821292877197,7.669999999999881
0.14490744471549988,-0.9987125396728516,-0.5102366209030151,7.679999999999881
-0.09568192064762115,-2.6093525886535645,-0.15266776084899902,7.6899999999998805
-0.8645020723342896,-1.9761762619018555,0.35521721839904785,7.69999999999988
-1.8938621282577515,-1.3384742736816406,-0.37319087982177734,7.70999999999988
-1.2998234033584595,-0.8713674545288086,-1.0237208604812622,7.71999999999988
-1.3383233547210693,0.5511541366577148,-1.5284709930419922,7.72999999999988
-1.731119155883789,2.106339454650879,0.06161987781524658,7.739999999999879
-0.5129373669624329,1.1844892501831055,-1.0434932708740234,7.749999999999879
-0.15935435891151428,-1.0879106521606445,-2.481898307800293,7.759999999999879
-0.3353731632232666,-1.711583137512207,-2.2122161388397217,7.769999999999879
-0.9093836545944214,-0.8318004608154297,-0.6801174283027649,7.779999999999879
-0.865155816078186,-0.83148193359375,-0.6444481015205383,7.789999999999878
-0.18312472105026245,-0.5267009735107422,0.0329013466835022,7.799999999999878
-0.7824439406394958,2.9937362670898438,-0.9250621795654297,7.809999999999878
-0.8217624425888062,4.386162757873535,-0.7777360677719116,7.819999999999878
0.13150006532669067,1.103006362915039,-0.2850397825241089,7.8299999999998775
0.3007966876029968,-1.0143070220947266,-0.20877119898796082,7.839999999999877
-0.15582901239395142,-1.1084318161010742,-0.6767978668212891,7.849999999999877
-0.699316143989563,0.8114471435546875,-0.5997616052627563,7.859999999999877
0.09336751699447632,2.477738380432129,-0.036156684160232544,7.869999999999877
-0.1560686230659485,3.0038957595825195,1.5453617572784424,7.879999999999876
-0.40178191661834717,2.952383041381836,1.8244916200637817,7.889999999999876
-0.46064937114715576,3.2198190689086914,0.24953234195709229,7.899999999999876
-0.5486757159233093,3.346464157104492,-0.17154936492443085,7.909999999999876
-2.2756505012512207,3.36867618560791,0.6921323537826538,7.919999999999876
-1.9465160369873047,2.513774871826172,-1.1074649095535278,7.929999999999875
-0.6840165257453918,2.191587448120117,-2.234241485595703,7.939999999999875
-0.311275839805603,1.7256126403808594,-2.4056341648101807,7.949999999999875
-0.4175258278846741,2.481464385986328,0.9620774984359741,7.959999999999875
-1.8316941261291504,2.495265007019043,2.9767262935638428,7.9699999999998745
-0.9258848428726196,1.3006582260131836,-0.42729756236076355,7.979999999999874
-0.8727760314941406,-1.7146825790405273,-1.9297438859939575,7.989999999999874
-1.3903930187225342,-2.583580493927002,-0.4105094075202942,7.999999999999874
