AccX,AccY,AccZ,SampleRate
-1.3000659942626953,0.21439170837402344,-1.651268482208252,0
-1.2711342573165894,1.2808198928833008,-2.3196957111358643,0.01
-0.9893602132797241,2.7663841247558594,-3.6492443084716797,0.02
-0.5296095609664917,3.9669055938720703,-4.632434368133545,0.03
0.043990373611450195,5.142377853393555,-5.078098773956299,0.04
0.5837128162384033,5.397430419921875,-4.486171722412109,0.05
0.5790501832962036,4.613103866577148,-3.8421359062194824,0.060000000000000005
0.7468287348747253,3.0292301177978516,-3.7242486476898193,0.07
0.9184303283691406,1.2296857833862305,-4.071666717529297,0.08
1.0646131038665771,-0.25316572189331055,-4.718950271606445,0.09
1.2822939157485962,-1.546647548675537,-5.001415252685547,0.09999999999999999
1.1387054920196533,-2.341350555419922,-4.714352607727051,0.10999999999999999
0.7991015911102295,-2.4873580932617188,-4.235558032989502,0.11999999999999998
0.3612437844276428,-2.353165626525879,-3.618797779083252,0.12999999999999998
0.12909728288650513,-2.0135812759399414,-3.486884593963623,0.13999999999999999
-0.09161800146102905,-1.7226133346557617,-3.862159013748169,0.15
-0.21939831972122192,-1.7129311561584473,-4.436365127563477,0.16
-0.20153450965881348,-1.6675677299499512,-4.4879913330078125,0.17
-0.4518967270851135,-2.9170355796813965,-4.85104513168335,0.18000000000000002
-0.5181278586387634,-3.887967348098755,-4.110705852508545,0.19000000000000003
-0.43351876735687256,-4.7679362297058105,-3.283348798751831,0.20000000000000004
-0.22682833671569824,-5.338683128356934,-2.7069201469421387,0.21000000000000005
0.14221280813217163,-5.336394786834717,-2.279430866241455,0.22000000000000006
0.23237931728363037,-4.430680274963379,-1.8049135208129883,0.23000000000000007
0.36027759313583374,-3.5414607524871826,-1.4767179489135742,0.24000000000000007
0.7429858446121216,-2.2665810585021973,-1.280107021331787,0.25000000000000006
1.7040491104125977,-0.7520990371704102,-0.9776945114135742,0.26000000000000006
3.0070221424102783,1.1647210121154785,-0.35143089294433594,0.2700000000000001
4.276845932006836,3.0611376762390137,0.10069561004638672,0.2800000000000001
4.385236740112305,5.490145206451416,0.5501980781555176,0.2900000000000001
3.7799201011657715,7.033538818359375,1.1150941848754883,0.3000000000000001
3.08251953125,7.853812217712402,1.4837260246276855,0.3100000000000001
2.1895408630371094,7.4433183670043945,1.5294842720031738,0.3200000000000001
0.883314311504364,6.345737457275391,1.5216479301452637,0.3300000000000001
-0.09172999858856201,4.244845390319824,1.809704303741455,0.34000000000000014
0.32118088006973267,0.44253015518188477,1.5324273109436035,0.35000000000000014
0.6128469705581665,-1.6066155433654785,0.9047069549560547,0.36000000000000015
1.1847598552703857,-1.0796470642089844,0.24133634567260742,0.37000000000000016
1.2527565956115723,1.254049301147461,-0.9200534820556641,0.38000000000000017
0.05165231227874756,3.4681968688964844,-1.7092928886413574,0.3900000000000002
-2.024519681930542,4.185562610626221,-2.9465231895446777,0.4000000000000002
-3.7065436840057373,4.105691432952881,-4.814093112945557,0.4100000000000002
-3.9762396812438965,5.049465656280518,-6.165004730224609,0.4200000000000002
-3.088083028793335,6.531913757324219,-6.048107147216797,0.4300000000000002
-1.6499662399291992,6.7932024002075195,-2.6389341354370117,0.4400000000000002
-0.4717404246330261,4.1666998863220215,0.19351434707641602,0.45000000000000023
0.04720509052276611,0.5441064834594727,-0.33579015731811523,0.46000000000000024
-0.03512454032897949,-2.2948999404907227,-3.0357580184936523,0.47000000000000025
0.19615158438682556,-3.524141788482666,-5.003993034362793,0.48000000000000026
0.908299446105957,-3.61264705657959,-5.992149353027344,0.49000000000000027
2.296356678009033,-1.99053955078125,-5.754861831665039,0.5000000000000002
4.648303985595703,0.45619678497314453,-5.575768947601318,0.5100000000000002
6.242276191711426,2.2054948806762695,-6.311563491821289,0.5200000000000002
4.95450496673584,2.9286861419677734,-7.482999801635742,0.5300000000000002
2.478222608566284,2.781167984008789,-7.349308013916016,0.5400000000000003
-0.24544651806354523,1.8025026321411133,-5.428462982177734,0.5500000000000003
-2.0654032230377197,0.4653310775756836,-2.866239547729492,0.5600000000000003
-2.811039447784424,-0.7289047241210938,-1.5310235023498535,0.5700000000000003
-2.7626051902770996,-1.4969182014465332,-1.8828487396240234,0.5800000000000003
-1.8888006210327148,-1.9422955513000488,-2.9451045989990234,0.5900000000000003
-0.7955350875854492,-1.7472724914550781,-3.7881357669830322,0.6000000000000003
0.2122601568698883,-0.6534490585327148,-4.1840596199035645,0.6100000000000003
0.9579062461853027,0.6633281707763672,-4.028580188751221,0.6200000000000003
1.5902997255325317,1.6321487426757812,-3.8488168716430664,0.6300000000000003
2.178513765335083,1.585184097290039,-3.2352981567382812,0.6400000000000003
2.0167877674102783,0.6318035125732422,-3.689513921737671,0.6500000000000004
1.9443655014038086,-0.42440032958984375,-3.8136181831359863,0.6600000000000004
1.6332015991210938,-1.6830735206604004,-3.5517966747283936,0.6700000000000004
1.2552785873413086,-2.297362804412842,-3.5568580627441406,0.6800000000000004
0.7407532334327698,-2.262031078338623,-3.7088077068328857,0.6900000000000004
0.3605841100215912,-1.8954887390136719,-3.336940050125122,0.7000000000000004
0.05474807322025299,-1.282242774963379,-2.9699223041534424,0.7100000000000004
-0.27728506922721863,-0.9021453857421875,-2.7770261764526367,0.7200000000000004
-0.4525204300880432,-0.8090925216674805,-2.6730117797851562,0.7300000000000004
-0.41791439056396484,-0.8835372924804688,-2.240593910217285,0.7400000000000004
-0.06807437539100647,-1.1153392791748047,-1.5655401945114136,0.7500000000000004
0.5557513236999512,-1.2031221389770508,-1.151879906654358,0.7600000000000005
1.0312343835830688,0.06724071502685547,-0.5770251750946045,0.7700000000000005
1.3362929821014404,1.7945585250854492,-0.11324238777160645,0.7800000000000005
1.9374408721923828,2.1562604904174805,-0.5545612573623657,0.7900000000000005
2.239128828048706,2.026034355163574,-1.0277587175369263,0.8000000000000005
2.561288356781006,2.422454833984375,-1.1498914957046509,0.8100000000000005
3.284860134124756,2.9772472381591797,-1.961256504058838,0.8200000000000005
4.337925910949707,3.4559497833251953,-2.349579095840454,0.8300000000000005
4.70878267288208,3.519991874694824,-2.1973891258239746,0.8400000000000005
4.386528968811035,3.0306081771850586,-2.180893898010254,0.8500000000000005
3.8746390342712402,2.525257110595703,-2.341418504714966,0.8600000000000005
3.5233044624328613,3.496023178100586,-1.5803170204162598,0.8700000000000006
3.205953598022461,5.711422920227051,-0.9297592043876648,0.8800000000000006
2.4581470489501953,7.199774742126465,-1.4469397068023682,0.8900000000000006
1.6954245567321777,5.970678329467773,-1.878920078277588,0.9000000000000006
1.1691416501998901,2.970494270324707,-2.5250134468078613,0.9100000000000006
0.9364449977874756,1.0403938293457031,-3.900787591934204,0.9200000000000006
0.7366273403167725,1.0469045639038086,-4.739742279052734,0.9300000000000006
0.761172354221344,1.9007463455200195,-4.562047958374023,0.9400000000000006
0.6376521587371826,2.4333810806274414,-3.7777960300445557,0.9500000000000006
0.28501296043395996,2.5500974655151367,-3.3544394969940186,0.9600000000000006
0.4377537965774536,2.520594596862793,-3.0505495071411133,0.9700000000000006
0.9852167367935181,2.876030921936035,-2.491743564605713,0.9800000000000006
1.3445621728897095,3.6894588470458984,-2.11240816116333,0.9900000000000007
1.0815730094909668,4.516313552856445,-1.6394643783569336,1.0000000000000007
0.20895618200302124,4.705876350402832,-1.652951717376709,1.0100000000000007
-0.5475580096244812,4.27940559387207,-2.0515222549438477,1.0200000000000007
-1.2819262742996216,3.677983283996582,-2.7433745861053467,1.0300000000000007
-1.7859036922454834,3.233255386352539,-3.5813422203063965,1.0400000000000007
-1.864952802658081,3.3108625411987305,-3.74931001663208,1.0500000000000007
-1.8067395687103271,2.7632951736450195,-4.981118202209473,1.0600000000000007
-1.3550384044647217,2.1700210571289062,-5.078853130340576,1.0700000000000007
-1.0696263313293457,1.4853429794311523,-5.022786617279053,1.0800000000000007
-0.5251913070678711,0.5265188217163086,-4.691461563110352,1.0900000000000007
-0.056844890117645264,-0.1250457763671875,-4.628324031829834,1.1000000000000008
0.3118751049041748,-0.6733894348144531,-4.481118202209473,1.1100000000000008
0.30695903301239014,-0.8916263580322266,-4.113001346588135,1.1200000000000008
0.12919533252716064,-0.8715033531188965,-4.174574851989746,1.1300000000000008
-0.06255868077278137,-0.6273579597473145,-4.516982555389404,1.1400000000000008
-0.3287011682987213,-0.630943775177002,-4.883627891540527,1.1500000000000008
-0.48360690474510193,-1.1722569465637207,-5.31480598449707,1.1600000000000008
-0.5504162311553955,-1.9356131553649902,-5.787004470825195,1.1700000000000008
-0.69559246301651,-3.0336151123046875,-5.898702621459961,1.1800000000000008
-0.9178572297096252,-4.143953800201416,-5.838580131530762,1.1900000000000008
-0.9592766165733337,-4.664653301239014,-5.7252516746521,1.2000000000000008
-0.7027494311332703,-5.308479309082031,-4.862758159637451,1.2100000000000009
-0.6840060949325562,-5.612499713897705,-4.080193519592285,1.2200000000000009
-0.6156231164932251,-5.769334316253662,-3.3403289318084717,1.2300000000000009
-0.39925605058670044,-5.745126724243164,-2.4757094383239746,1.2400000000000009
0.10310542583465576,-5.237626075744629,-1.7957649230957031,1.2500000000000009
0.4687052369117737,-4.505194664001465,-1.3460545539855957,1.260000000000001
1.0130399465560913,-3.366137981414795,-1.1160316467285156,1.270000000000001
1.1161104440689087,-1.5853595733642578,-0.7635288238525391,1.280000000000001
1.035637378692627,0.9951591491699219,-0.5764946937561035,1.290000000000001
1.18555748462677,4.045440196990967,-0.1974010467529297,1.300000000000001
1.8076531887054443,6.792663097381592,-0.025538921356201172,1.310000000000001
2.188128709793091,8.804203033447266,0.6275491714477539,1.320000000000001
2.6053788661956787,10.125530242919922,2.0894112586975098,1.330000000000001
2.4588093757629395,9.299177169799805,2.697190761566162,1.340000000000001
1.7202949523925781,6.883683204650879,2.485264301300049,1.350000000000001
1.1081901788711548,3.162905693054199,2.310394287109375,1.360000000000001
1.3660085201263428,-1.8068618774414062,2.3526153564453125,1.370000000000001
1.6668205261230469,-4.250349044799805,2.3525567054748535,1.380000000000001
1.6427407264709473,-4.2051777839660645,2.2888593673706055,1.390000000000001
1.7605074644088745,1.0667028427124023,-1.235722541809082,1.400000000000001
-0.2249131202697754,4.752376079559326,-2.6033530235290527,1.410000000000001
-4.093841552734375,6.009155750274658,-6.558403968811035,1.420000000000001
-5.263126850128174,6.413968563079834,-9.121973991394043,1.430000000000001
-4.0467963218688965,7.995736122131348,-7.815361976623535,1.440000000000001
-1.6180014610290527,8.746858596801758,-3.793668508529663,1.450000000000001
0.5446466207504272,5.92921781539917,0.6253275871276855,1.460000000000001
-0.16165000200271606,-0.651275634765625,1.2202796936035156,1.470000000000001
-1.3165075778961182,-3.6155834197998047,-2.047642469406128,1.480000000000001
-1.5116839408874512,-4.759748935699463,-4.331896781921387,1.490000000000001
-0.6745067834854126,-4.441652774810791,-4.312227249145508,1.500000000000001
2.055757999420166,-1.5905404090881348,-4.094440937042236,1.5100000000000011
5.551868915557861,2.498103141784668,-6.121106147766113,1.5200000000000011
7.187399387359619,5.493887901306152,-8.579954147338867,1.5300000000000011
5.729551315307617,6.453411102294922,-9.1425142288208,1.5400000000000011
2.1634867191314697,4.414196014404297,-6.074734210968018,1.5500000000000012
0.03955649584531784,1.413273811340332,-2.931795835494995,1.5600000000000012
-1.4186497926712036,-1.435840129852295,-1.4173307418823242,1.5700000000000012
-2.375121593475342,-2.9815874099731445,-1.4025659561157227,1.5800000000000012
-2.6960227489471436,-3.317410469055176,-2.5372354984283447,1.5900000000000012
-2.4256997108459473,-2.1199655532836914,-3.8488271236419678,1.6000000000000012
-1.3229584693908691,-0.04933738708496094,-4.823234558105469,1.6100000000000012
-0.2133127897977829,1.3785076141357422,-4.920276641845703,1.6200000000000012
0.8061428070068359,2.1980628967285156,-4.721020221710205,1.6300000000000012
1.6048167943954468,1.8287343978881836,-4.6684956550598145,1.6400000000000012
2.19901967048645,0.03756427764892578,-3.475552797317505,1.6500000000000012
1.7698322534561157,-1.3249578475952148,-2.695441246032715,1.6600000000000013
0.6129821538925171,-2.1991968154907227,-4.164031505584717,1.6700000000000013
0.027599453926086426,-2.454526901245117,-4.493208885192871,1.6800000000000013
-0.25171327590942383,-2.15055513381958,-3.47967267036438,1.6900000000000013
-0.4809834957122803,-1.5410957336425781,-2.502751350402832,1.7000000000000013
-0.4310265779495239,-1.071110725402832,-2.1442363262176514,1.7100000000000013
-0.47357046604156494,-0.8638391494750977,-2.39367413520813,1.7200000000000013
-0.22811545431613922,-0.984710693359375,-2.0345826148986816,1.7300000000000013
0.14557605981826782,-0.9931602478027344,-1.3589736223220825,1.7400000000000013
0.4891439974308014,-1.1688518524169922,-0.9573649168014526,1.7500000000000013
1.0282917022705078,-1.6986408233642578,-0.9849085807800293,1.7600000000000013
1.7290066480636597,-1.7902750968933105,-1.349092721939087,1.7700000000000014
1.9626853466033936,-0.7994709014892578,-1.2382131814956665,1.7800000000000014
1.990425944328308,0.7390823364257812,-1.0132629871368408,1.7900000000000014
1.8946506977081299,1.2693538665771484,-1.1776247024536133,1.8000000000000014
2.3337435722351074,1.5016651153564453,-1.900079607963562,1.8100000000000014
3.032256603240967,2.300654411315918,-2.3605854511260986,1.8200000000000014
3.6228866577148438,3.311232566833496,-2.5750985145568848,1.8300000000000014
4.367524147033691,3.6497602462768555,-2.5443053245544434,1.8400000000000014
4.419818878173828,3.223043441772461,-1.8741497993469238,1.8500000000000014
4.136012077331543,2.534520149230957,-1.5312694311141968,1.8600000000000014
3.685737133026123,2.6346492767333984,-1.3563731908798218,1.8700000000000014
2.9203078746795654,4.335568428039551,-0.6544542908668518,1.8800000000000014
2.9897005558013916,6.389304161071777,-0.16925787925720215,1.8900000000000015
3.3304121494293213,6.808785438537598,-1.1286218166351318,1.9000000000000015
3.1084113121032715,4.6270551681518555,-2.532118797302246,1.9100000000000015
2.499269723892212,2.7245683670043945,-2.4708197116851807,1.9200000000000015
1.651222586631775,1.9224481582641602,-2.6178555488586426,1.9300000000000015
0.870357096195221,2.371173858642578,-3.1804842948913574,1.9400000000000015
0.14239215850830078,2.85903263092041,-4.07114315032959,1.9500000000000015
-0.3221745491027832,2.7142934799194336,-4.2631964683532715,1.9600000000000015
-0.42616546154022217,1.8561439514160156,-4.1832380294799805,1.9700000000000015
0.1011345386505127,1.3390893936157227,-3.969874143600464,1.9800000000000015
0.723690390586853,1.698822021484375,-2.659615993499756,1.9900000000000015
0.6568782925605774,2.8351945877075195,-1.2635985612869263,2.0000000000000013
0.10520082712173462,4.054277420043945,-1.0670413970947266,2.010000000000001
-0.29153013229370117,5.066307067871094,-1.0309844017028809,2.020000000000001
-0.8898504972457886,5.833098411560059,-1.0799534320831299,2.0300000000000007
-1.7916431427001953,5.901126861572266,-1.7434980869293213,2.0400000000000005
-2.488358974456787,5.345340728759766,-3.0218746662139893,2.0500000000000003
-2.796391487121582,4.668259620666504,-4.543167591094971,2.06
-2.300715684890747,3.6109275817871094,-5.313523769378662,2.07
-1.441136360168457,2.181394577026367,-5.630797386169434,2.0799999999999996
-0.4667245149612427,0.4614706039428711,-4.970841407775879,2.0899999999999994
0.22929853200912476,-0.5297369956970215,-4.309411525726318,2.099999999999999
0.7722760438919067,-1.3850398063659668,-4.15299129486084,2.109999999999999
1.0929176807403564,-2.1606087684631348,-3.6538476943969727,2.1199999999999988
1.1233385801315308,-2.5243301391601562,-3.2094011306762695,2.1299999999999986
0.6814930438995361,-2.39266300201416,-3.202146291732788,2.1399999999999983
0.06818236410617828,-2.2219200134277344,-3.311819314956665,2.149999999999998
-0.36532333493232727,-2.1769657135009766,-3.8817925453186035,2.159999999999998
-1.0200026035308838,-2.649960517883301,-4.429704666137695,2.1699999999999977
-1.7723057270050049,-3.245060443878174,-5.252439022064209,2.1799999999999975
-2.098259449005127,-4.17597770690918,-5.684693336486816,2.1899999999999973
-2.0162582397460938,-5.243138313293457,-5.5435662269592285,2.199999999999997
-1.793327808380127,-6.336816787719727,-4.912380218505859,2.209999999999997
-1.3189529180526733,-7.1269049644470215,-4.343393325805664,2.2199999999999966
-0.7332742214202881,-7.676244258880615,-3.3874082565307617,2.2299999999999964
-0.045119911432266235,-7.405093669891357,-2.79315447807312,2.239999999999996
0.5221226215362549,-6.191679954528809,-2.674201488494873,2.249999999999996
1.1383620500564575,-4.616604804992676,-2.6050145626068115,2.259999999999996
1.5757312774658203,-2.163339138031006,-2.0034661293029785,2.2699999999999956
1.667482852935791,0.4432072639465332,-1.0127148628234863,2.2799999999999954
1.8806648254394531,3.679269313812256,0.4971456527709961,2.289999999999995
2.3513269424438477,6.864681243896484,1.55224609375,2.299999999999995
2.7802140712738037,9.92857837677002,2.7614593505859375,2.3099999999999947
2.285536527633667,11.42568302154541,4.239541530609131,2.3199999999999945
0.9791772365570068,8.840289115905762,3.452317714691162,2.3299999999999943
0.0501064658164978,5.985185623168945,2.034903049468994,2.339999999999994
-0.38150107860565186,2.5611000061035156,0.6450634002685547,2.349999999999994
0.5115607976913452,-1.0179457664489746,0.16449260711669922,2.3599999999999937
1.5020959377288818,-4.157344818115234,0.654782772064209,2.3699999999999934
1.8570836782455444,-5.864274501800537,0.24152088165283203,2.3799999999999932
1.413320541381836,-3.469050884246826,-0.7535772323608398,2.389999999999993
0.8762041330337524,0.8928322792053223,-1.1813158988952637,2.399999999999993
-0.652459979057312,5.355329513549805,-2.097895383834839,2.4099999999999926
-3.854029655456543,6.44732666015625,-5.878548622131348,2.4199999999999924
-4.9551167488098145,5.080684661865234,-8.33562183380127,2.429999999999992
-4.320825576782227,6.6480255126953125,-8.083885192871094,2.439999999999992
-2.0087475776672363,9.91025161743164,-5.589634895324707,2.4499999999999917
0.08378979563713074,9.355239868164062,-1.6236588954925537,2.4599999999999915
0.20069023966789246,4.066701889038086,0.6549735069274902,2.4699999999999913
-1.2017390727996826,0.1479167938232422,-1.2230777740478516,2.479999999999991
-1.7048015594482422,-1.4375133514404297,-2.783846855163574,2.489999999999991
-0.8704881072044373,-3.1574926376342773,-2.6521217823028564,2.4999999999999907
1.6727879047393799,-3.711778163909912,-3.7834954261779785,2.5099999999999905
3.7328274250030518,-1.767721176147461,-6.0583696365356445,2.5199999999999902
4.594550132751465,1.5342540740966797,-8.07620620727539,2.52999999999999
4.685131549835205,4.223531723022461,-7.625484466552734,2.53999999999999
4.199265003204346,4.940319061279297,-5.781012058258057,2.5499999999999896
2.5164573192596436,3.4909181594848633,-3.698598861694336,2.5599999999999894
0.5468735098838806,0.6760330200195312,-2.808713912963867,2.569999999999989
-0.4750467538833618,-1.3814220428466797,-3.0227904319763184,2.579999999999989
-1.2056595087051392,-2.845268726348877,-3.4794561862945557,2.5899999999999888
-1.5523470640182495,-3.2902207374572754,-3.8588199615478516,2.5999999999999885
-1.6054422855377197,-2.609750747680664,-4.276731014251709,2.6099999999999883
-1.2284111976623535,-1.1835427284240723,-4.266678333282471,2.619999999999988
-0.20656242966651917,0.34601306915283203,-3.872649908065796,2.629999999999988
0.9250809550285339,0.7326793670654297,-3.491274833679199,2.6399999999999877
1.8389785289764404,0.5096864700317383,-3.6806259155273438,2.6499999999999875
2.075991153717041,0.013502120971679688,-3.372002363204956,2.6599999999999873
1.4898717403411865,-0.836665153503418,-3.770625591278076,2.669999999999987
0.9192221760749817,-1.833970069885254,-4.148221015930176,2.679999999999987
0.47023171186447144,-2.421782970428467,-3.0787365436553955,2.6899999999999866
0.3635168671607971,-2.5545172691345215,-2.299072504043579,2.6999999999999864
0.30073148012161255,-2.184274673461914,-1.9562695026397705,2.709999999999986
0.2977808713912964,-1.5808563232421875,-2.0214085578918457,2.719999999999986
0.46594059467315674,-1.0768098831176758,-2.1075711250305176,2.7299999999999858
0.711408257484436,-0.7850046157836914,-2.1493539810180664,2.7399999999999856
0.7230634689331055,-0.7595243453979492,-1.9114620685577393,2.7499999999999853
0.7314513325691223,-0.7971401214599609,-1.4066448211669922,2.759999999999985
0.5628417134284973,-0.4379701614379883,-0.6706051826477051,2.769999999999985
0.41610389947891235,0.012045860290527344,-0.21681714057922363,2.7799999999999847
0.30267930030822754,0.35565948486328125,-0.45342957973480225,2.7899999999999845
0.4987561106681824,0.48122119903564453,-0.8775398135185242,2.7999999999999843
1.0473934412002563,0.6071281433105469,-1.2261154651641846,2.809999999999984
1.7088485956192017,1.312941551208496,-1.2098621129989624,2.819999999999984
2.5946614742279053,2.4811172485351562,-1.3824018239974976,2.8299999999999836
3.0878076553344727,3.519145965576172,-1.1297003030776978,2.8399999999999834
3.621297597885132,3.737730026245117,-1.081674337387085,2.849999999999983
3.8198342323303223,3.155580520629883,-1.3867524862289429,2.859999999999983
3.758924722671509,2.533660888671875,-1.5968897342681885,2.869999999999983
3.3204495906829834,3.5422115325927734,-1.1373952627182007,2.8799999999999826
2.939516544342041,5.710522651672363,-0.31679874658584595,2.8899999999999824
2.958350419998169,7.009930610656738,-0.6038662195205688,2.899999999999982
3.0233936309814453,6.025086402893066,-1.8114064931869507,2.909999999999982
2.658966064453125,4.1863603591918945,-2.6764426231384277,2.9199999999999817
2.0245797634124756,3.0566444396972656,-3.464852809906006,2.9299999999999815
1.670961856842041,3.048004150390625,-3.8123040199279785,2.9399999999999813
1.4815518856048584,3.1519432067871094,-4.17701530456543,2.949999999999981
1.2799713611602783,3.275629997253418,-4.443469047546387,2.959999999999981
0.6937650442123413,2.9457855224609375,-4.317739009857178,2.9699999999999807
-0.2994779348373413,2.2230682373046875,-3.3736584186553955,2.9799999999999804
-1.204083800315857,1.7661762237548828,-2.2746331691741943,2.9899999999999802
-1.5073893070220947,1.6333675384521484,-1.3898130655288696,2.99999999999998
-1.2132418155670166,1.93798828125,-0.6042640209197998,3.00999999999998
-0.6938610076904297,2.7526283264160156,-0.6909477710723877,3.0199999999999796
-0.45129966735839844,3.6966609954833984,-1.4128575325012207,3.0299999999999794
-0.25387120246887207,4.231901168823242,-2.123959541320801,3.039999999999979
-0.22693103551864624,3.7657384872436523,-2.9396309852600098,3.049999999999979
-0.31937897205352783,3.133638381958008,-3.7939321994781494,3.0599999999999787
-0.3917153477668762,2.3583621978759766,-4.533906936645508,3.0699999999999785
-0.44658902287483215,1.6208858489990234,-5.009692192077637,3.0799999999999783
-0.2016448974609375,1.0206069946289062,-5.029201507568359,3.089999999999978
0.2708088457584381,0.48346614837646484,-4.397531986236572,3.099999999999978
0.530794620513916,-0.09190559387207031,-3.753298282623291,3.1099999999999777
0.7672909498214722,-0.6543488502502441,-3.650249481201172,3.1199999999999775
0.6641528606414795,-1.3823928833007812,-3.562958240509033,3.1299999999999772
0.2748982310295105,-1.7631497383117676,-3.4428200721740723,3.139999999999977
-0.034542907029390335,-2.018777370452881,-3.5390448570251465,3.149999999999977
-0.3832639157772064,-2.2294278144836426,-3.4308393001556396,3.1599999999999766
-0.6455091238021851,-2.661151885986328,-3.8076419830322266,3.1699999999999764
-0.9053544402122498,-3.120950222015381,-4.092493057250977,3.179999999999976
-1.3120689392089844,-3.7261786460876465,-4.487616539001465,3.189999999999976
-1.5999208688735962,-4.01437520980835,-5.140417575836182,3.1999999999999758
-1.5986957550048828,-4.182131290435791,-5.572293281555176,3.2099999999999755
-1.3468629121780396,-4.287113666534424,-5.445839881896973,3.2199999999999753
-0.8923652172088623,-4.378824710845947,-4.905881881713867,3.229999999999975
-0.47442692518234253,-4.468332290649414,-4.2881364822387695,3.239999999999975
-0.2934408187866211,-4.469303131103516,-3.326395273208618,3.2499999999999747
-0.21291497349739075,-4.530115127563477,-2.2140703201293945,3.2599999999999745
0.017636626958847046,-4.53159236907959,-1.0264334678649902,3.2699999999999743
0.37001731991767883,-4.183309555053711,-0.0554957389831543,3.279999999999974
0.68616783618927,-3.355006217956543,0.0027217864990234375,3.289999999999974
0.48344504833221436,-1.887782096862793,-0.44245386123657227,3.2999999999999736
0.10970130562782288,0.5838308334350586,-0.7141551971435547,3.3099999999999734
-0.05565410852432251,3.2821149826049805,-0.09077119827270508,3.319999999999973
0.19469985365867615,5.753628730773926,0.24504661560058594,3.329999999999973
1.0449631214141846,7.844918251037598,0.03561544418334961,3.3399999999999728
2.516287326812744,9.712018013000488,1.8287744522094727,3.3499999999999726
3.8278770446777344,9.701071739196777,4.6172637939453125,3.3599999999999723
3.81423020362854,7.577802658081055,5.261683940887451,3.369999999999972
3.091653347015381,3.84993839263916,4.318943977355957,3.379999999999972
2.7263472080230713,-0.677363395690918,3.2997069358825684,3.3899999999999717
2.9881293773651123,-4.468738555908203,2.3065762519836426,3.3999999999999715
3.4798014163970947,-4.277958869934082,0.4327373504638672,3.4099999999999713
2.453017473220825,-1.356398582458496,-2.100050210952759,3.419999999999971
0.6584229469299316,2.709585189819336,-3.92718243598938,3.429999999999971
-2.237182140350342,6.049078941345215,-6.667651653289795,3.4399999999999706
-5.011626243591309,7.639227867126465,-9.322334289550781,3.4499999999999704
-5.6236701011657715,8.771713256835938,-8.815211296081543,3.45999999999997
-4.11248779296875,9.422823905944824,-4.758309841156006,3.46999999999997
-2.4014248847961426,7.044990539550781,-0.5733556747436523,3.47999999999997
-2.526479482650757,0.7195978164672852,2.068087577819824,3.4899999999999696
-3.0997328758239746,-3.1559362411499023,0.9294085502624512,3.4999999999999694
-2.5528361797332764,-4.150102615356445,-1.3905267715454102,3.509999999999969
-1.3648459911346436,-4.625739574432373,-2.7958290576934814,3.519999999999969
1.5586373805999756,-2.768864154815674,-4.94679069519043,3.5299999999999687
4.302210807800293,0.3958921432495117,-8.212564468383789,3.5399999999999685
4.156975269317627,0.3013916015625,-8.067025184631348,3.5499999999999683
5.061999797821045,6.37677001953125,-10.603818893432617,3.559999999999968
3.066958427429199,5.52001953125,-6.145861625671387,3.569999999999968
0.8464211225509644,2.2655324935913086,-0.8172729015350342,3.5799999999999677
-0.5091007351875305,-1.0968995094299316,0.8237161636352539,3.5899999999999674
-1.5266960859298706,-2.7549948692321777,-0.10061216354370117,3.5999999999999672
-2.29048490524292,-3.55214262008667,-2.0718486309051514,3.609999999999967
-2.371558427810669,-3.4214468002319336,-3.518468141555786,3.619999999999967
-2.40012788772583,-3.48944091796875,-3.3620522022247314,3.6299999999999666
-0.5630795955657959,-1.0814661979675293,-4.648006439208984,3.6399999999999664
0.8263019323348999,0.3787841796875,-3.733488082885742,3.649999999999966
1.7301745414733887,0.8428983688354492,-3.1842234134674072,3.659999999999966
2.2273435592651367,0.2631187438964844,-2.098527431488037,3.6699999999999657
2.0793216228485107,-0.8109502792358398,-1.6176053285598755,3.6799999999999655
1.1698853969573975,-1.5757508277893066,-2.918358325958252,3.6899999999999653
0.4861493706703186,-2.205721855163574,-4.241703987121582,3.699999999999965
-0.0839960128068924,-2.2169532775878906,-3.2050347328186035,3.709999999999965
-0.1973404437303543,-2.1018595695495605,-2.4916422367095947,3.7199999999999647
-0.28311991691589355,-1.887967586517334,-1.5926460027694702,3.7299999999999645
-0.3403695225715637,-1.6537203788757324,-1.3721792697906494,3.7399999999999642
0.031431056559085846,-1.2534360885620117,-1.4554157257080078,3.749999999999964
0.3607444763183594,-0.7525444030761719,-1.4415837526321411,3.759999999999964
0.7095040082931519,-0.26403045654296875,-1.0194144248962402,3.7699999999999636
1.1207993030548096,-0.43513011932373047,-0.5241082906723022,3.7799999999999634
1.3364055156707764,-0.9687004089355469,-0.5801956653594971,3.789999999999963
1.0452558994293213,-0.2210216522216797,-0.7219789624214172,3.799999999999963
1.1224337816238403,-0.23786544799804688,-0.5877067446708679,3.8099999999999627
1.5053387880325317,1.6670265197753906,-0.40675634145736694,3.8199999999999625
2.1195592880249023,1.9930896759033203,-0.708238959312439,3.8299999999999623
2.6043448448181152,2.733078956604004,-1.4882655143737793,3.839999999999962
3.3486735820770264,3.5708370208740234,-2.1352667808532715,3.849999999999962
4.345542907714844,3.5569944381713867,-1.713176965713501,3.8599999999999617
4.590595722198486,2.761631965637207,-1.2654728889465332,3.8699999999999615
3.839216470718384,1.8489389419555664,-0.7883312702178955,3.8799999999999613
3.2109007835388184,1.544175148010254,-0.29344165325164795,3.889999999999961
2.756572723388672,2.300230026245117,0.1136929988861084,3.899999999999961
2.542860746383667,4.134757041931152,0.35955846309661865,3.9099999999999606
2.527621269226074,5.767377853393555,-0.2087693214416504,3.9199999999999604
2.2087044715881348,5.318185806274414,-1.679377794265747,3.92999999999996
1.7374649047851562,3.191385269165039,-2.7684993743896484,3.93999999999996
1.3153204917907715,1.6286144256591797,-3.678549289703369,3.9499999999999598
1.1588162183761597,1.5372200012207031,-4.256728172302246,3.9599999999999596
0.5748059749603271,2.22857666015625,-4.87382173538208,3.9699999999999593
-0.20196223258972168,2.760549545288086,-4.913468360900879,3.979999999999959
-1.021612524986267,2.729543685913086,-3.5640525817871094,3.989999999999959
-1.2835915088653564,2.564774513244629,-1.6425511837005615,3.9999999999999587
-0.11218905448913574,2.765470504760742,-0.8507055044174194,4.009999999999959
0.615636944770813,3.2397260665893555,-1.29405677318573,4.019999999999959
0.06619209051132202,3.9522323608398438,-1.9400298595428467,4.0299999999999585
-0.9067575931549072,4.255573272705078,-1.759251356124878,4.039999999999958
-1.681939721107483,4.198825836181641,-1.2873682975769043,4.049999999999958
-2.226184606552124,3.8187036514282227,-1.3671886920928955,4.059999999999958
-2.482320785522461,3.192814826965332,-2.143415927886963,4.069999999999958
-2.542036771774292,2.8430442810058594,-3.3223369121551514,4.079999999999957
-1.9787636995315552,2.370515823364258,-4.231931686401367,4.089999999999957
-1.0469655990600586,1.6890134811401367,-4.638622283935547,4.099999999999957
-0.1946639120578766,0.9278621673583984,-4.654636859893799,4.109999999999957
0.5943552255630493,-0.05587959289550781,-4.3877458572387695,4.119999999999957
1.0490846633911133,-0.9537191390991211,-4.34075403213501,4.129999999999956
1.1757251024246216,-1.515977382659912,-4.324315547943115,4.139999999999956
1.1710450649261475,-1.7774758338928223,-4.094952583312988,4.149999999999956
0.7501960396766663,-1.716822624206543,-3.5500075817108154,4.159999999999956
0.08619637787342072,-1.4253654479980469,-3.143927812576294,4.1699999999999555
-0.5101376175880432,-1.429142951965332,-2.978023052215576,4.179999999999955
-1.2698975801467896,-1.7069311141967773,-3.4276695251464844,4.189999999999955
-1.7491779327392578,-2.1000189781188965,-3.9985532760620117,4.199999999999955
-2.0721609592437744,-2.888042449951172,-4.454657554626465,4.209999999999955
-2.0729808807373047,-3.7123570442199707,-4.878751754760742,4.2199999999999545
-1.7678667306900024,-4.359246730804443,-5.289074420928955,4.229999999999954
-1.462019920349121,-4.964249610900879,-5.112555027008057,4.239999999999954
-1.1956803798675537,-5.450193405151367,-4.306831359863281,4.249999999999954
-0.9340997338294983,-5.767706394195557,-2.8944756984710693,4.259999999999954
-0.3896840512752533,-5.856595039367676,-1.4965705871582031,4.269999999999953
0.20500382781028748,-5.408299446105957,-1.2159919738769531,4.279999999999953
0.6676503419876099,-4.511850833892822,-1.4926438331604004,4.289999999999953
1.03101646900177,-3.289018154144287,-1.661926507949829,4.299999999999953
1.3546459674835205,-1.5925569534301758,-1.4041085243225098,4.3099999999999525
1.213594913482666,-0.017740249633789062,-0.5223507881164551,4.319999999999952
0.8783549070358276,1.6006317138671875,0.7963285446166992,4.329999999999952
1.0022354125976562,3.0228147506713867,1.937455654144287,4.339999999999952
1.6306440830230713,4.368624687194824,2.545149803161621,4.349999999999952
2.3249988555908203,5.949180603027344,2.216486930847168,4.3599999999999515
2.416689872741699,8.281901359558105,1.497736930847168,4.369999999999951
1.5849964618682861,9.64794921875,1.2684721946716309,4.379999999999951
0.1814725399017334,9.098098754882812,1.6410331726074219,4.389999999999951
-0.03196990489959717,4.981411933898926,2.53897762298584,4.399999999999951
0.5040150284767151,-0.5930495262145996,2.8158936500549316,4.40999999999995
1.2612574100494385,-5.272377014160156,1.9872136116027832,4.41999999999995
2.040907621383667,-6.966464042663574,0.6576447486877441,4.42999999999995
1.4812363386154175,-4.195331573486328,-1.1143403053283691,4.43999999999995
0.3038579225540161,0.5204334259033203,-2.3809525966644287,4.4499999999999496
-1.8225502967834473,3.2282114028930664,-3.1612982749938965,4.459999999999949
-4.274745464324951,3.1260175704956055,-4.891121864318848,4.469999999999949
-4.84406852722168,3.528388023376465,-6.534482002258301,4.479999999999949
-4.235714435577393,8.19685173034668,-7.293298721313477,4.489999999999949
-2.9156808853149414,12.142836570739746,-5.375346660614014,4.4999999999999485
-0.23355364799499512,11.50935173034668,-0.40430736541748047,4.509999999999948
-0.02531808614730835,5.786372184753418,2.455453872680664,4.519999999999948
-0.009891390800476074,5.816287040710449,2.4039950370788574,4.529999999999948
-1.7258832454681396,-3.4191346168518066,-1.209859848022461,4.539999999999948
-1.0630602836608887,-6.172704696655273,-3.8485965728759766,4.549999999999947
0.17372888326644897,-6.556093215942383,-4.903841018676758,4.559999999999947
2.486788272857666,-3.9331793785095215,-6.41418981552124,4.569999999999947
4.259921073913574,0.07395553588867188,-7.150759220123291,4.579999999999947
5.079260349273682,3.4192657470703125,-7.064210414886475,4.589999999999947
3.9716312885284424,4.991467475891113,-6.375516891479492,4.599999999999946
1.1696178913116455,3.8484487533569336,-3.656160593032837,4.609999999999946
-0.7573355436325073,1.8657712936401367,-1.7972919940948486,4.619999999999946
-1.943922996520996,-0.7152986526489258,-0.9479999542236328,4.629999999999946
-1.9822978973388672,-2.6491293907165527,-1.7054462432861328,4.6399999999999455
-1.7117000818252563,-3.2407727241516113,-2.8851089477539062,4.649999999999945
-1.3531018495559692,-2.68759822845459,-3.6237118244171143,4.659999999999945
-0.7734017372131348,-1.2450928688049316,-3.784801959991455,4.669999999999945
-0.342317670583725,-0.09496593475341797,-4.107447147369385,4.679999999999945
0.6909040808677673,0.44793701171875,-4.07103157043457,4.689999999999944
1.4783015251159668,0.2967691421508789,-3.4123315811157227,4.699999999999944
1.6415526866912842,-0.1940145492553711,-3.1104183197021484,4.709999999999944
1.3932241201400757,-0.7719221115112305,-3.141913890838623,4.719999999999944
0.879287600517273,-1.2478113174438477,-2.7093777656555176,4.729999999999944
0.22533194720745087,-1.475102424621582,-2.370354652404785,4.739999999999943
-0.2175958752632141,-1.6041154861450195,-2.268329620361328,4.749999999999943
-0.40604063868522644,-1.2354459762573242,-2.0115556716918945,4.759999999999943
-0.2509455680847168,-0.6678981781005859,-1.8580788373947144,4.769999999999943
0.12386465072631836,-0.4377927780151367,-1.683545470237732,4.7799999999999425
0.5031757354736328,-0.6485662460327148,-1.4189081192016602,4.789999999999942
0.7856251001358032,-1.1424560546875,-1.1825474500656128,4.799999999999942
0.9344073534011841,-1.6871814727783203,-0.9695690274238586,4.809999999999942
0.9390105605125427,-1.6287870407104492,-0.27827322483062744,4.819999999999942
0.8843075037002563,-0.8472356796264648,0.29432404041290283,4.8299999999999415
0.7969378232955933,0.05409717559814453,0.2659287452697754,4.839999999999941
0.42698559165000916,0.3285675048828125,-0.22960329055786133,4.849999999999941
0.38786959648132324,0.42969608306884766,-0.4496530294418335,4.859999999999941
1.25042724609375,0.6131525039672852,-0.5750582814216614,4.869999999999941
2.710155963897705,1.233062744140625,-0.8391291499137878,4.87999999999994
3.817202568054199,2.2986679077148438,-1.407472848892212,4.88999999999994
4.239080905914307,2.9564437866210938,-1.4097661972045898,4.89999999999994
4.171012878417969,2.3859024047851562,-1.1828845739364624,4.90999999999994
3.6566858291625977,1.9794998168945312,-1.1825878620147705,4.9199999999999395
3.0671987533569336,2.723971366882324,-0.9801757335662842,4.929999999999939
2.814413547515869,4.766075134277344,0.10414111614227295,4.939999999999939
2.8162269592285156,5.869649887084961,0.297246515750885,4.949999999999939
2.741894245147705,4.724841117858887,-1.034435510635376,4.959999999999939
2.121990203857422,2.673583984375,-1.8115465641021729,4.9699999999999385
2.083533763885498,2.0804481506347656,-2.387279987335205,4.979999999999938
2.405519723892212,2.4730606079101562,-3.535914897918701,4.989999999999938
2.414184093475342,2.9798221588134766,-4.452733993530273,4.999999999999938
2.2570972442626953,2.9040536880493164,-5.569000720977783,5.009999999999938
1.1667076349258423,2.853104591369629,-5.57820987701416,5.019999999999937
-1.1379481554031372,3.6176633834838867,-3.1071014404296875,5.029999999999937
-1.8444677591323853,3.9894447326660156,-0.5260210037231445,5.039999999999937
-1.4190571308135986,4.10456657409668,1.2583816051483154,5.049999999999937
-1.130147933959961,4.458820343017578,1.180476188659668,5.0599999999999365
-1.4522032737731934,4.7355451583862305,0.16181612014770508,5.069999999999936
-1.5084033012390137,4.5727128982543945,-0.8405735492706299,5.079999999999936
-1.209430456161499,3.9615554809570312,-2.269536018371582,5.089999999999936
-0.9524796605110168,3.144998550415039,-3.428833484649658,5.099999999999936
-0.7616065144538879,2.3754730224609375,-4.851217269897461,5.1099999999999355
-0.417086660861969,1.8722877502441406,-5.404885292053223,5.119999999999935
-0.1840207874774933,1.1373004913330078,-5.116909027099609,5.129999999999935
0.06903846561908722,0.34152889251708984,-4.0102410316467285,5.139999999999935
0.15859255194664001,-0.6828956604003906,-3.001711845397949,5.149999999999935
-0.003449920564889908,-1.3083271980285645,-2.860452890396118,5.159999999999934
-0.22028562426567078,-1.9109058380126953,-2.5737147331237793,5.169999999999934
-0.6001278758049011,-2.35795259475708,-2.4748599529266357,5.179999999999934
-0.9298104643821716,-2.6128201484680176,-2.585791826248169,5.189999999999934
-1.1024441719055176,-2.720043182373047,-2.8045613765716553,5.199999999999934
-0.9665359854698181,-3.0673294067382812,-3.253091812133789,5.209999999999933
-0.7546593546867371,-3.2432899475097656,-4.204894065856934,5.219999999999933
-0.5774351954460144,-3.5365076065063477,-5.103752136230469,5.229999999999933
-0.6398667693138123,-4.008584499359131,-5.655185222625732,5.239999999999933
-0.866115927696228,-4.490080833435059,-5.84152364730835,5.2499999999999325
-1.1762475967407227,-4.895315170288086,-5.51190185546875,5.259999999999932
-1.1832587718963623,-5.363889694213867,-4.633481502532959,5.269999999999932
-1.2307559251785278,-5.723839282989502,-3.7232131958007812,5.279999999999932
-1.1331677436828613,-6.041904449462891,-2.3652074337005615,5.289999999999932
-0.8938214778900146,-5.865924835205078,-1.0225343704223633,5.299999999999931
-0.6422626376152039,-5.1788129806518555,-0.7121376991271973,5.309999999999931
-0.4141850173473358,-4.2660722732543945,-0.8171510696411133,5.319999999999931
-0.023462563753128052,-2.6726131439208984,-1.354992389678955,5.329999999999931
0.6313096284866333,-0.8096513748168945,-1.5259277820587158,5.339999999999931
1.503563642501831,1.7359371185302734,-1.123441219329834,5.34999999999993
1.336493968963623,4.787725448608398,0.07043170928955078,5.35999999999993
1.2236846685409546,7.266819953918457,1.708420753479004,5.36999999999993
2.265056610107422,8.81217098236084,3.0439462661743164,5.37999999999993
3.5911343097686768,9.826239585876465,3.281464099884033,5.3899999999999295
2.478243827819824,10.013893127441406,3.652276039123535,5.399999999999929
0.3530186116695404,7.977214813232422,4.378905296325684,5.409999999999929
-0.5339135527610779,3.5023813247680664,3.920362949371338,5.419999999999929
-0.0724608302116394,-0.8626828193664551,1.9470200538635254,5.429999999999929
0.380254864692688,-2.898137092590332,1.4396491050720215,5.4399999999999284
1.3132390975952148,-1.8727331161499023,0.666353702545166,5.449999999999928
0.9423731565475464,0.1110086441040039,-0.4561285972595215,5.459999999999928
-0.044063299894332886,2.112532615661621,-1.3942372798919678,5.469999999999928
-1.9157335758209229,2.9828367233276367,-3.4834299087524414,5.479999999999928
-3.7394251823425293,3.460115432739258,-5.85968017578125,5.489999999999927
-4.319649696350098,4.881777763366699,-6.796114921569824,5.499999999999927
-3.1436243057250977,5.77274227142334,-4.726654529571533,5.509999999999927
-1.414154052734375,4.9285736083984375,-1.1720879077911377,5.519999999999927
0.018691182136535645,1.8433513641357422,1.3995566368103027,5.5299999999999265
-0.20863357186317444,-1.1799097061157227,-0.4820561408996582,5.539999999999926
-0.3726026713848114,-2.4256343841552734,-2.543670177459717,5.549999999999926
0.015298619866371155,-2.929135322570801,-3.0759894847869873,5.559999999999926
1.286332607269287,-2.223682403564453,-3.9427542686462402,5.569999999999926
2.909921407699585,0.02594757080078125,-5.746818542480469,5.5799999999999255
4.255184173583984,3.4722023010253906,-7.750083923339844,5.589999999999925
3.8191921710968018,5.282434463500977,-8.273909568786621,5.599999999999925
1.6770212650299072,4.207339286804199,-6.313178062438965,5.609999999999925
-0.6662678718566895,1.4503049850463867,-3.0885701179504395,5.619999999999925
-2.5332493782043457,-1.5211491584777832,-0.30962538719177246,5.629999999999924
-3.2751593589782715,-3.0580596923828125,0.1015472412109375,5.639999999999924
-3.266850471496582,-3.471053123474121,-1.1109867095947266,5.649999999999924
-2.454800605773926,-2.642186164855957,-2.613881826400757,5.659999999999924
-1.260494589805603,-1.126230239868164,-4.175870895385742,5.6699999999999235
-0.21293240785598755,0.35243988037109375,-5.0209550857543945,5.679999999999923
0.8933001756668091,1.102294921875,-5.465753078460693,5.689999999999923
1.7738512754440308,0.5366096496582031,-5.054625988006592,5.699999999999923
2.4135146141052246,-0.9619359970092773,-3.714308500289917,5.709999999999923
1.9781025648117065,-2.0741639137268066,-3.268718957901001,5.7199999999999225
1.1060841083526611,-2.731961250305176,-3.893303394317627,5.729999999999922
0.2164038121700287,-2.4363832473754883,-3.1974847316741943,5.739999999999922
-0.14752915501594543,-1.6449813842773438,-1.8993510007858276,5.749999999999922
-0.394885778427124,-0.966374397277832,-1.4298210144042969,5.759999999999922
-0.17300592362880707,-0.7664270401000977,-1.2787890434265137,5.769999999999921
0.04576156288385391,-0.8510980606079102,-1.937373399734497,5.779999999999921
0.22162272036075592,-0.964385986328125,-1.8921103477478027,5.789999999999921
0.5974894762039185,-0.9308843612670898,-1.3051385879516602,5.799999999999921
1.1699488162994385,-0.8348608016967773,-0.8696482181549072,5.809999999999921
1.6841259002685547,-0.6193037033081055,-0.4523797035217285,5.81999999999992
1.9295926094055176,-0.47899341583251953,-0.2518174648284912,5.82999999999992
1.6814775466918945,-0.4407768249511719,-0.14880704879760742,5.83999999999992
1.1328818798065186,-0.26473522186279297,-0.19223809242248535,5.84999999999992
0.6815241575241089,-0.04573345184326172,-0.19304370880126953,5.8599999999999195
0.6308983564376831,0.597630500793457,-0.361294150352478,5.869999999999919
1.3880871534347534,0.9878463745117188,-0.43770715594291687,5.879999999999919
2.5844626426696777,1.4718313217163086,-1.593019962310791,5.889999999999919
2.9859652519226074,2.688861846923828,-2.1249632835388184,5.899999999999919
3.228043794631958,3.472982406616211,-1.6327941417694092,5.909999999999918
3.3047733306884766,3.4760007858276367,-1.5968046188354492,5.919999999999918
3.1614816188812256,2.265883445739746,-1.2597262859344482,5.929999999999918
2.525104284286499,1.7599220275878906,-1.196407437324524,5.939999999999918
1.8443286418914795,2.63812255859375,-0.5243935585021973,5.949999999999918
1.7928190231323242,4.318720817565918,0.5477982759475708,5.959999999999917
2.421236991882324,5.671017646789551,0.4787500500679016,5.969999999999917
2.903703212738037,5.217219352722168,-0.7530319094657898,5.979999999999917
2.7556426525115967,3.2618207931518555,-1.4863874912261963,5.989999999999917
2.3800482749938965,1.7906684875488281,-1.8484165668487549,5.9999999999999165
1.7250052690505981,1.358001708984375,-2.584458112716675,6.009999999999916
0.9683065414428711,1.8989677429199219,-2.982860803604126,6.019999999999916
0.4526848793029785,2.340301513671875,-3.2355451583862305,6.029999999999916
0.24380844831466675,2.4402694702148438,-3.5795552730560303,6.039999999999916
-0.14292454719543457,1.9091796875,-3.670971155166626,6.0499999999999154
-0.570244312286377,1.7962150573730469,-3.0841751098632812,6.059999999999915
-0.7133361101150513,1.7340288162231445,-1.8746839761734009,6.069999999999915
-0.538831353187561,1.7308130264282227,-0.4693835973739624,6.079999999999915
-0.5647280812263489,2.0881872177124023,0.01906442642211914,6.089999999999915
-0.8624012470245361,2.6860790252685547,-0.07742547988891602,6.099999999999914
-1.587334156036377,3.05336856842041,-0.3502204418182373,6.109999999999914
-1.9898890256881714,3.1155624389648438,-0.9622988700866699,6.119999999999914
-2.1629035472869873,2.934083938598633,-1.9452245235443115,6.129999999999914
-2.0017659664154053,2.6327524185180664,-3.1306040287017822,6.1399999999999135
-1.1702593564987183,2.267709732055664,-3.9006528854370117,6.149999999999913
-0.33844631910324097,1.7794771194458008,-4.195333957672119,6.159999999999913
0.44437599182128906,0.9241485595703125,-3.9034855365753174,6.169999999999913
0.7825102806091309,0.013189315795898438,-3.285269260406494,6.179999999999913
1.1118727922439575,-0.9036135673522949,-3.0827488899230957,6.1899999999999125
1.0804184675216675,-1.6317505836486816,-3.1754441261291504,6.199999999999912
0.7923514246940613,-2.016176700592041,-2.9978599548339844,6.209999999999912
0.17093130946159363,-2.125833511352539,-2.742978811264038,6.219999999999912
-0.5561660528182983,-1.9435534477233887,-2.455404043197632,6.229999999999912
-0.7900230288505554,-1.8655352592468262,-2.446169137954712,6.239999999999911
-0.9982126951217651,-1.9705824851989746,-2.6332147121429443,6.249999999999911
-1.1718356609344482,-2.350982189178467,-3.11130428314209,6.259999999999911
-1.3364851474761963,-2.878194808959961,-3.9091877937316895,6.269999999999911
-1.4358835220336914,-3.3313045501708984,-4.818471431732178,6.2799999999999105
-1.5547387599945068,-4.167996406555176,-5.19101619720459,6.28999999999991
-1.5002081394195557,-4.696236610412598,-4.819624900817871,6.29999999999991
-1.4777967929840088,-5.2285847663879395,-3.769639015197754,6.30999999999991
-1.213529109954834,-5.792489051818848,-2.5717718601226807,6.31999999999991
-0.8131489753723145,-5.864543914794922,-1.4357585906982422,6.3299999999999095
-0.420237272977829,-5.462133407592773,-0.6507315635681152,6.339999999999909
-0.021239042282104492,-4.648435115814209,-0.276339054107666,6.349999999999909
0.4719318151473999,-3.5499839782714844,-0.4324765205383301,6.359999999999909
1.170302391052246,-1.6460494995117188,-1.0405139923095703,6.369999999999909
1.9200701713562012,0.6334285736083984,-1.5092716217041016,6.379999999999908
1.8662619590759277,3.0415468215942383,-1.1172494888305664,6.389999999999908
1.103513479232788,5.285816192626953,-0.07413530349731445,6.399999999999908
0.6305049657821655,6.901313781738281,2.296998977661133,6.409999999999908
0.9392154216766357,7.365097999572754,4.035152912139893,6.419999999999908
0.9455753564834595,7.402013778686523,4.688735008239746,6.429999999999907
0.02613571286201477,6.376462936401367,3.3709301948547363,6.439999999999907
-0.7993302345275879,3.8528823852539062,2.004574775695801,6.449999999999907
-0.059014588594436646,0.4925537109375,1.7690119743347168,6.459999999999907
0.8416086435317993,-2.1964879035949707,1.722653865814209,6.4699999999999065
1.5086288452148438,-2.1109442710876465,1.2110300064086914,6.479999999999906
1.6097171306610107,-0.38912391662597656,0.014485836029052734,6.489999999999906
1.0155819654464722,1.9946517944335938,-0.2676544189453125,6.499999999999906
-0.3655473589897156,3.9188432693481445,-0.5661497116088867,6.509999999999906
-2.38344144821167,4.42268180847168,-2.6503188610076904,6.519999999999905
-2.3934309482574463,4.398967742919922,-2.6077983379364014,6.529999999999905
-4.417836666107178,4.631979942321777,-6.379947662353516,6.539999999999905
-3.6517443656921387,4.43824577331543,-4.339044094085693,6.549999999999905
-2.246756076812744,2.653535842895508,-1.0265696048736572,6.559999999999905
-1.4516162872314453,0.4710397720336914,0.752051830291748,6.569999999999904
-1.13489830493927,-0.8329391479492188,-0.7473609447479248,6.579999999999904
0.24507036805152893,-2.119758129119873,-2.3210971355438232,6.589999999999904
1.3878628015518188,-2.2596426010131836,-3.7309083938598633,6.599999999999904
2.310091972351074,-1.298048496246338,-5.704303741455078,6.6099999999999035
3.0574965476989746,0.7548065185546875,-7.834819793701172,6.619999999999903
3.167487859725952,2.331270217895508,-8.091949462890625,6.629999999999903
2.2601776123046875,2.5343923568725586,-5.925808429718018,6.639999999999903
0.7920928001403809,1.4848947525024414,-3.421473503112793,6.649999999999903
-0.7128862142562866,0.5670270919799805,-1.7994167804718018,6.659999999999902
-1.8963748216629028,-0.2819404602050781,-0.26400041580200195,6.669999999999902
-1.91132390499115,-0.7142190933227539,0.07933616638183594,6.679999999999902
-1.21309494972229,-0.8585357666015625,-1.0954930782318115,6.689999999999902
-0.5206438899040222,-0.7004013061523438,-2.783872604370117,6.699999999999902
-0.0025040805339813232,-0.5118942260742188,-3.864072322845459,6.709999999999901
0.116207554936409,-0.5043478012084961,-4.385663032531738,6.719999999999901
0.571427047252655,-0.8444862365722656,-4.324633598327637,6.729999999999901
0.982873260974884,-1.2326231002807617,-3.6276237964630127,6.739999999999901
1.0752047300338745,-1.3881607055664062,-3.2256526947021484,6.7499999999999005
1.0226225852966309,-1.307560920715332,-2.540797472000122,6.7599999999999
0.8366894721984863,-1.3332061767578125,-2.296147346496582,6.7699999999999
0.6569669842720032,-1.1792182922363281,-1.7838406562805176,6.7799999999999
0.5886064171791077,-1.2358694076538086,-1.6771414279937744,6.7899999999999
0.3584980070590973,-1.4531431198120117,-1.5511181354522705,6.7999999999998995
0.15308433771133423,-1.68550443649292,-1.7007942199707031,6.809999999999899
0.2547324597835541,-1.6361265182495117,-1.7978346347808838,6.819999999999899
0.6471349596977234,-1.3214750289916992,-1.4700393676757812,6.829999999999899
1.0299053192138672,-1.1075735092163086,-0.9155694842338562,6.839999999999899
1.251341462135315,-0.7960624694824219,-0.3984452486038208,6.849999999999898
1.1072847843170166,-0.4259805679321289,-0.017333984375,6.859999999999898
0.6828796863555908,-0.19859981536865234,0.28270769119262695,6.869999999999898
0.3283678889274597,-0.04869842529296875,0.44914352893829346,6.879999999999898
0.577856719493866,-0.7031402587890625,-0.5509013533592224,6.8899999999998975
1.2958660125732422,-1.0338611602783203,-1.7756891250610352,6.899999999999897
1.9687503576278687,0.15199756622314453,-2.1082193851470947,6.909999999999897
2.1674511432647705,2.4030675888061523,-1.567726969718933,6.919999999999897
2.1848716735839844,3.6897125244140625,-1.12917959690094,6.929999999999897
2.7283215522766113,3.570012092590332,-0.7235939502716064,6.9399999999998965
3.689028263092041,2.040431022644043,-1.6497834920883179,6.949999999999896
3.7270119190216064,1.4210948944091797,-2.2188339233398438,6.959999999999896
3.7546074390411377,1.4230241775512695,-2.2179601192474365,6.969999999999896
2.6430604457855225,3.566596031188965,0.24699634313583374,6.979999999999896
2.4952232837677,5.389852523803711,0.8890491127967834,6.989999999999895
2.5421948432922363,5.333775520324707,-0.2611517906188965,6.999999999999895
2.1683480739593506,3.6935014724731445,-1.3995239734649658,7.009999999999895
1.9397554397583008,2.7517595291137695,-1.5548913478851318,7.019999999999895
1.9172332286834717,2.760354995727539,-1.6492149829864502,7.0299999999998946
1.3725790977478027,1.6376466751098633,-3.0586719512939453,7.039999999999894
0.6432043313980103,1.7753734588623047,-3.5402626991271973,7.049999999999894
0.007455587387084961,2.1294593811035156,-3.5798559188842773,7.059999999999894
-0.5993641018867493,1.709360122680664,-3.6760833263397217,7.069999999999894
-1.194281816482544,1.3341712951660156,-3.581631660461426,7.0799999999998935
-1.8463623523712158,1.383448600769043,-2.939746141433716,7.089999999999893
-2.423158645629883,1.7138795852661133,-0.9073903560638428,7.099999999999893
-2.4912073612213135,1.8369922637939453,0.8935811519622803,7.109999999999893
-2.1912336349487305,1.701136589050293,1.0707905292510986,7.119999999999893
-1.4888993501663208,1.3792839050292969,-0.015976428985595703,7.129999999999892
-1.2862988710403442,1.3034076690673828,-1.081761121749878,7.139999999999892
-1.4906301498413086,1.5923223495483398,-2.251601219177246,7.149999999999892
-1.5333021879196167,2.0558738708496094,-3.0845541954040527,7.159999999999892
-1.448078989982605,2.0954036712646484,-3.9880311489105225,7.169999999999892
-1.2208863496780396,1.9083023071289062,-4.240466117858887,7.179999999999891
-1.1450833082199097,1.5759477615356445,-3.678537607192993,7.189999999999891
-1.1880292892456055,1.2545709609985352,-3.2788710594177246,7.199999999999891
-1.116058349609375,1.0841436386108398,-2.426746129989624,7.209999999999891
-1.059421420097351,0.822382926940918,-1.969947338104248,7.2199999999998905
-0.9579782485961914,0.383880615234375,-2.723007917404175,7.22999999999989
-0.5432449579238892,-0.2361898422241211,-3.937377452850342,7.23999999999989
-0.6674401164054871,-0.8336820602416992,-4.194896221160889,7.24999999999989
-1.1045165061950684,-1.1564531326293945,-4.0897722244262695,7.25999999999989
-1.3647181987762451,-1.0377697944641113,-3.581608772277832,7.269999999999889
-1.187150001525879,-0.45861196517944336,-2.7219996452331543,7.279999999999889
-1.3369568586349487,-1.1405091285705566,-2.1427013874053955,7.289999999999889
-0.7491997480392456,-1.6637697219848633,-1.6908574104309082,7.299999999999889
-1.8229230642318726,-2.899099349975586,-2.724992036819458,7.309999999999889
-1.1671690940856934,-3.023796558380127,-3.1348824501037598,7.319999999999888
-1.4153730869293213,-3.783700942993164,-3.1005702018737793,7.329999999999888
-0.42243361473083496,-4.1200385093688965,-1.444035530090332,7.339999999999888
-1.4300942420959473,-4.4586381912231445,-1.816779375076294,7.349999999999888
-0.22606229782104492,-5.365090370178223,-1.8405001163482666,7.3599999999998875
-0.40750497579574585,-5.212944507598877,-2.7111427783966064,7.369999999999887
-1.8460171222686768,-4.921180248260498,-3.9841127395629883,7.379999999999887
-0.47514018416404724,-3.1681370735168457,-4.172565460205078,7.389999999999887
0.3690679967403412,0.4156360626220703,-2.9078502655029297,7.399999999999887
-0.6196833848953247,3.560122489929199,-0.5868701934814453,7.4099999999998865
0.658494234085083,6.371547698974609,1.3024630546569824,7.419999999999886
-0.5832072496414185,7.1012372970581055,0.8072934150695801,7.429999999999886
-0.12053228914737701,5.411540985107422,0.25227975845336914,7.439999999999886
0.6913691759109497,4.373100280761719,2.4530978202819824,7.449999999999886
-0.15281163156032562,2.706493377685547,2.7218728065490723,7.459999999999885
-2.0111303329467773,1.3941001892089844,1.0563340187072754,7.469999999999885
-1.5290933847427368,1.058110237121582,-0.5430271625518799,7.479999999999885
-0.8674332499504089,0.44893932342529297,-1.6998698711395264,7.489999999999885
0.025801539421081543,-0.48670196533203125,-2.1977293491363525,7.4999999999998845
0.37699881196022034,-1.223884105682373,-2.4669229984283447,7.509999999999884
-0.1662827432155609,-0.8525590896606445,-2.237278938293457,7.519999999999884
-0.9587455987930298,0.7685213088989258,-2.802844762802124,7.529999999999884
-1.6898467540740967,3.003599166870117,-3.851227045059204,7.539999999999884
-2.2304883003234863,6.035970687866211,-3.5935261249542236,7.5499999999998835
-1.3904255628585815,8.50036334991455,-2.6580581665039062,7.559999999999883
0.07329356670379639,9.076985359191895,-0.7288203239440918,7.569999999999883
1.621468424797058,5.006768226623535,1.864832878112793,7.579999999999883
2.3944485187530518,-0.23038673400878906,-0.3312714099884033,7.589999999999883
0.7990450859069824,-3.371814250946045,-5.200341701507568,7.599999999999882
-1.016986608505249,-4.72704553604126,-8.287956237792969,7.609999999999882
-1.6990251541137695,-3.7934765815734863,-8.251840591430664,7.619999999999882
-1.2807934284210205,-1.6099276542663574,-6.230834007263184,7.629999999999882
-0.2531014680862427,1.074911117553711,-3.352060317993164,7.6399999999998816
0.9345583319664001,3.2168893814086914,-1.362992525100708,7.649999999999881
0.3083755671977997,4.576753616333008,-0.776350736618042,7.659999999999881
-0.42152124643325806,3.2728796005249023,-3.0636844635009766,7.669999999999881
-0.42430809140205383,1.659712791442871,-3.458003282546997,7.679999999999881
-0.9908624887466431,0.4841756820678711,-3.691166877746582,7.6899999999998805
-0.940778911113739,-0.1128530502319336,-3.568906545639038,7.69999999999988
-1.1112850904464722,0.06574344635009766,-3.35245418548584,7.70999999999988
-1.1812145709991455,-0.5776157379150391,-2.9884212017059326,7.71999999999988
0.5147427320480347,-2.352569580078125,-3.2147727012634277,7.72999999999988
1.8308894634246826,-0.32593441009521484,-3.975736618041992,7.739999999999879
0.4424648582935333,-0.680048942565918,-1.5738732814788818,7.749999999999879
0.6412137746810913,-0.061692237854003906,-3.893643856048584,7.759999999999879
0.6142760515213013,-0.174896240234375,-3.0952608585357666,7.769999999999879
-0.024045556783676147,0.8131694793701172,-2.604966163635254,7.779999999999879
0.2544974684715271,1.3445606231689453,-1.8030023574829102,7.789999999999878
0.17695479094982147,1.497161865234375,-1.2244573831558228,7.799999999999878
0.2718687355518341,1.5671405792236328,-0.7525272369384766,7.809999999999878
0.42704540491104126,1.108199119567871,-1.1290000677108765,7.819999999999878
0.4327860176563263,1.0856266021728516,-1.0572704076766968,7.8299999999998775
0.851538360118866,0.42607784271240234,-1.6612783670425415,7.839999999999877
0.7404634356498718,0.2920665740966797,-1.5479313135147095,7.849999999999877
0.5786824822425842,0.014337539672851562,-1.5230212211608887,7.859999999999877
0.24090805649757385,-0.5875759124755859,-1.7272920608520508,7.869999999999877
0.59381502866745,-0.3771944046020508,-2.4237542152404785,7.879999999999876
0.7895064949989319,0.011037826538085938,-2.5543389320373535,7.889999999999876
0.5482847690582275,0.5184783935546875,-2.2580671310424805,7.899999999999876
0.748416543006897,0.6830711364746094,-2.2128844261169434,7.909999999999876
0.6513665914535522,0.4947509765625,-2.086486577987671,7.919999999999876
0.9561084508895874,-0.8943023681640625,-1.9307622909545898,7.929999999999875
0.6255577206611633,-1.7227187156677246,-2.7840867042541504,7.939999999999875
-0.4517548680305481,-0.12030887603759766,-1.6737662553787231,7.949999999999875
-0.5490465760231018,0.8401374816894531,-1.190960168838501,7.959999999999875
-0.44194838404655457,2.1173362731933594,-0.9450932741165161,7.9699999999998745
0.16186967492103577,2.325982093811035,-1.9413502216339111,7.979999999999874
0.17982032895088196,2.3158483505249023,-1.899745225906372,7.989999999999874
-0.11626541614532471,1.072275161743164,-1.4228265285491943,7.999999999999874
