AccX,AccY,AccZ,SampleRate
-1.387914776802063,5.874748229980469,-3.9146087169647217,0.01
-1.0833344459533691,8.902999877929688,-3.8777105808258057,0.02
-0.6483964920043945,10.877279281616211,-5.491405487060547,0.03
-1.2062745094299316,10.505067825317383,-8.699247360229492,0.04
-3.908181667327881,8.507725715637207,-12.528406143188477,0.05
-5.839871406555176,6.262266635894775,-12.950376510620117,0.060000000000000005
-6.450017929077148,3.983574390411377,-12.194480895996094,0.07
-5.29288387298584,1.367197036743164,-11.149150848388672,0.08
-3.9231417179107666,-0.44547176361083984,-10.224641799926758,0.09
-3.140852451324463,-1.640820026397705,-9.176603317260742,0.09999999999999999
-3.0294570922851562,-2.4550657272338867,-7.299063682556152,0.10999999999999999
-3.243046998977661,-1.6658902168273926,-4.943263053894043,0.11999999999999998
-3.204058885574341,-1.740241527557373,-4.885377883911133,0.12999999999999998
-3.158998489379883,2.1169419288635254,-7.443840026855469,0.13999999999999999
-3.089202404022217,2.747109889984131,-7.99581241607666,0.15
-3.0969042778015137,3.581191062927246,-8.068367958068848,0.16
-2.85752272605896,4.098042964935303,-7.000609397888184,0.17
-2.0259058475494385,4.196578502655029,-4.276784896850586,0.18000000000000002
-1.5806429386138916,3.941160202026367,-2.961981773376465,0.19000000000000003
-2.2678074836730957,3.4881815910339355,-4.020726680755615,0.20000000000000004
-2.992422103881836,3.0032243728637695,-5.672250270843506,0.21000000000000005
-3.4010837078094482,1.976773738861084,-6.875650405883789,0.22000000000000006
-2.772021532058716,0.9097213745117188,-6.764866352081299,0.23000000000000007
-1.325426697731018,-0.15259552001953125,-5.968175888061523,0.24000000000000007
-0.08133697509765625,-0.7647891044616699,-5.061270236968994,0.25000000000000006
0.5335941314697266,-0.8054003715515137,-4.724109172821045,0.26000000000000006
-0.04706096649169922,-0.35486364364624023,-4.643151760101318,0.2700000000000001
-1.2241477966308594,0.49953365325927734,-4.67883825302124,0.2800000000000001
-1.6938626766204834,1.1757726669311523,-4.706776142120361,0.2900000000000001
-1.7791545391082764,1.697854995727539,-4.700839519500732,0.3000000000000001
-1.8248674869537354,2.0611419677734375,-5.079424858093262,0.3100000000000001
-1.6833834648132324,2.04781436920166,-4.969885349273682,0.3200000000000001
-1.4601421356201172,1.8715229034423828,-4.1663970947265625,0.3300000000000001
-1.2138385772705078,1.4681835174560547,-2.9977211952209473,0.34000000000000014
-1.3470778465270996,1.071685791015625,-2.1866297721862793,0.35000000000000014
-1.5902401208877563,0.7243509292602539,-2.090080976486206,0.36000000000000015
-1.658290147781372,0.5718050003051758,-2.190110683441162,0.37000000000000016
-1.4343583583831787,0.1083822250366211,-2.4396274089813232,0.38000000000000017
-1.4045871496200562,-0.3001365661621094,-2.6930627822875977,0.3900000000000002
-1.4170496463775635,-0.6043987274169922,-2.8818440437316895,0.4000000000000002
-1.3038098812103271,-0.47227001190185547,-2.7499024868011475,0.4100000000000002
-1.0724915266036987,-0.018136978149414062,-2.665266990661621,0.4200000000000002
-1.0032837390899658,0.6512985229492188,-2.320117950439453,0.4300000000000002
-0.508001446723938,1.549464225769043,-1.873810052871704,0.4400000000000002
-0.05892634391784668,2.3534536361694336,-1.3850491046905518,0.45000000000000023
0.09477543830871582,2.7784128189086914,-1.2187434434890747,0.46000000000000024
0.3668081760406494,2.5271520614624023,-2.063236951828003,0.47000000000000025
0.7797656059265137,1.7804889678955078,-3.141566276550293,0.48000000000000026
1.2563037872314453,0.8749971389770508,-3.8974268436431885,0.49000000000000027
1.7629566192626953,0.40822505950927734,-3.5900497436523438,0.5000000000000002
2.039602518081665,0.35976600646972656,-2.6587772369384766,0.5100000000000002
1.9141440391540527,0.34321117401123047,-1.867495059967041,0.5200000000000002
1.3411998748779297,0.3980121612548828,-1.5628550052642822,0.5300000000000002
0.7078332901000977,0.6335773468017578,-2.0517661571502686,0.5400000000000003
0.07953047752380371,1.1839332580566406,-3.305147409439087,0.5500000000000003
-1.190571665763855,2.3309736251831055,-4.198526382446289,0.5600000000000003
-2.1020662784576416,3.5266494750976562,-4.503921985626221,0.5700000000000003
-2.422117233276367,4.437521934509277,-4.862374782562256,0.5800000000000003
-2.130849838256836,4.345760345458984,-5.593427658081055,0.5900000000000003
-1.9634106159210205,3.793792724609375,-5.848204612731934,0.6000000000000003
-2.4219970703125,3.900233268737793,-5.508358955383301,0.6100000000000003
-3.089359998703003,4.993021011352539,-4.588289260864258,0.6200000000000003
-3.529482364654541,5.93177604675293,-3.67326021194458,0.6300000000000003
-4.02702522277832,6.508566856384277,-3.115809440612793,0.6400000000000003
-4.428289413452148,6.902239799499512,-3.3466758728027344,0.6500000000000004
-4.322424411773682,7.026132583618164,-4.284730434417725,0.6600000000000004
-4.056362628936768,7.270310401916504,-5.118607521057129,0.6700000000000004
-4.0866241455078125,7.932468414306641,-5.229274749755859,0.6800000000000004
-4.216901779174805,7.702999114990234,-5.094887733459473,0.6900000000000004
-4.801403045654297,7.3222832679748535,-4.626782417297363,0.7000000000000004
-5.853299140930176,6.578855037689209,-3.961534023284912,0.7100000000000004
-6.67209529876709,5.048952579498291,-4.138734817504883,0.7200000000000004
-6.791813850402832,3.242623805999756,-4.681690692901611,0.7300000000000004
-5.817216873168945,1.5991950035095215,-4.75733757019043,0.7400000000000004
-4.904293060302734,0.8706512451171875,-4.809910297393799,0.7500000000000004
-4.019754886627197,0.4570951461791992,-5.438554286956787,0.7600000000000005
-3.0344555377960205,0.16325759887695312,-5.875617027282715,0.7700000000000005
-2.411755084991455,0.3768768310546875,-5.765169143676758,0.7800000000000005
-1.8564022779464722,0.8150677680969238,-5.946470737457275,0.7900000000000005
-1.0355939865112305,1.2174701690673828,-6.1773152351379395,0.8000000000000005
-0.6939413547515869,1.8758845329284668,-6.413229942321777,0.8100000000000005
-0.7599358558654785,2.338033676147461,-7.094488620758057,0.8200000000000005
-1.1362941265106201,2.8303146362304688,-7.610971450805664,0.8300000000000005
-1.5747387409210205,3.104292869567871,-8.105249404907227,0.8400000000000005
-1.8452367782592773,3.0706605911254883,-8.238893508911133,0.8500000000000005
-2.242917537689209,2.7878708839416504,-8.472888946533203,0.8600000000000005
-2.5010409355163574,2.2437973022460938,-8.027908325195312,0.8700000000000006
-2.792741298675537,1.6816067695617676,-7.423264980316162,0.8800000000000006
-2.963902473449707,1.3543543815612793,-7.08910608291626,0.8900000000000006
-3.351316452026367,0.9130158424377441,-6.681982517242432,0.9000000000000006
-3.9308762550354004,0.3776521682739258,-6.778668403625488,0.9100000000000006
-4.656867980957031,-0.22135019302368164,-6.880202770233154,0.9200000000000006
-5.209959983825684,-0.852675199508667,-6.862484931945801,0.9300000000000006
-5.694127559661865,-1.6198816299438477,-6.491979598999023,0.9400000000000006
-5.98496150970459,-2.4584121704101562,-5.543619632720947,0.9500000000000006
-5.871638298034668,-3.045511484146118,-3.0386409759521484,0.9600000000000006
-5.400306701660156,-3.1840457916259766,0.056410789489746094,0.9700000000000006
-4.443518161773682,-3.016122817993164,2.9823198318481445,0.9800000000000006
-3.612715244293213,-2.4390406608581543,3.7808284759521484,0.9900000000000007
-2.812622547149658,-0.5898847579956055,2.7741780281066895,1.0000000000000007
-1.4601263999938965,1.8331255912780762,1.4726557731628418,1.0100000000000007
-0.08280336856842041,4.933431148529053,2.1502761840820312,1.0200000000000007
1.2724826335906982,8.333504676818848,2.0723509788513184,1.0300000000000007
2.710508108139038,11.202730178833008,2.45225191116333,1.0400000000000007
3.692409038543701,11.734091758728027,3.1142516136169434,1.0500000000000007
3.918640375137329,10.621411323547363,1.6453309059143066,1.0600000000000007
2.4951651096343994,8.423959732055664,-1.4456539154052734,1.0700000000000007
0.5698192119598389,5.4648518562316895,-3.9272518157958984,1.0800000000000007
-0.36836957931518555,2.2796483039855957,-5.093624114990234,1.0900000000000007
-0.7899017333984375,-0.9334092140197754,-5.964258670806885,1.1000000000000008
-1.165548324584961,-1.9842219352722168,-5.111964702606201,1.1100000000000008
-1.5127805471420288,-0.399991512298584,-4.381680011749268,1.1200000000000008
-1.7810255289077759,3.0747766494750977,-4.667967796325684,1.1300000000000008
-1.632986307144165,6.5519208908081055,-3.8481576442718506,1.1400000000000008
-1.5248095989227295,9.675992965698242,-4.990653991699219,1.1500000000000008
-2.790510416030884,11.376729965209961,-7.88477897644043,1.1600000000000008
-4.5486884117126465,11.148263931274414,-9.670717239379883,1.1700000000000008
-6.579371452331543,9.20025634765625,-10.805459022521973,1.1800000000000008
-7.409250259399414,6.732668876647949,-10.699877738952637,1.1900000000000008
-6.006666660308838,3.519632339477539,-10.001973152160645,1.2000000000000008
-4.414671897888184,0.8922023773193359,-9.325553894042969,1.2100000000000009
-3.1156210899353027,-0.6978087425231934,-8.504203796386719,1.2200000000000009
-2.768580198287964,-1.1038508415222168,-7.801264762878418,1.2300000000000009
-3.012131690979004,-1.0251460075378418,-7.189650058746338,1.2400000000000009
-3.2040765285491943,-0.6104202270507812,-7.244974613189697,1.2500000000000009
-3.155722141265869,-0.2471027374267578,-7.234116554260254,1.260000000000001
-2.8743672370910645,0.2402935028076172,-7.153312683105469,1.270000000000001
-2.4398066997528076,0.9777898788452148,-7.17075777053833,1.280000000000001
-2.2072529792785645,1.6765775680541992,-5.6202473640441895,1.290000000000001
-1.9901726245880127,2.3468122482299805,-3.526323080062866,1.300000000000001
-2.259869337081909,2.871713161468506,-2.975498914718628,1.310000000000001
-2.7109458446502686,2.8897156715393066,-2.965463399887085,1.320000000000001
-2.839538335800171,2.2591562271118164,-4.057177543640137,1.330000000000001
-2.5077707767486572,1.2623605728149414,-4.919339179992676,1.340000000000001
-2.4098284244537354,0.7181186676025391,-5.092740058898926,1.350000000000001
-2.1492440700531006,0.05465412139892578,-5.179877281188965,1.360000000000001
-1.610126256942749,-0.31458473205566406,-5.429961204528809,1.370000000000001
-1.443301796913147,-0.2838859558105469,-6.054441928863525,1.380000000000001
-1.582627296447754,0.21758556365966797,-6.454677104949951,1.390000000000001
-1.9845938682556152,0.5120220184326172,-6.001675605773926,1.400000000000001
-1.819796085357666,0.6324405670166016,-5.306161403656006,1.410000000000001
-1.602773904800415,0.9559602737426758,-4.2193474769592285,1.420000000000001
-1.5292768478393555,1.1916465759277344,-3.407830238342285,1.430000000000001
-1.3905338048934937,1.2628488540649414,-2.6282238960266113,1.440000000000001
-1.2480195760726929,1.060898780822754,-2.1347789764404297,1.450000000000001
-1.1425056457519531,0.9557723999023438,-2.219954490661621,1.460000000000001
-1.0979790687561035,1.0520639419555664,-2.4738893508911133,1.470000000000001
-1.203106164932251,1.2172956466674805,-2.6792378425598145,1.480000000000001
-0.9419746398925781,1.1919631958007812,-2.58870530128479,1.490000000000001
-0.9550329446792603,1.2040491104125977,-2.530392646789551,1.500000000000001
-1.2908521890640259,1.2511615753173828,-2.3566582202911377,1.5100000000000011
-1.478264570236206,0.9005222320556641,-2.2484114170074463,1.5200000000000011
-1.5636074542999268,0.3569316864013672,-2.307651996612549,1.5300000000000011
-1.6264894008636475,2.8133392333984375E-4,-2.2060513496398926,1.5400000000000011
-1.6463665962219238,-0.09710121154785156,-1.738736629486084,1.5500000000000012
-1.4193644523620605,0.04647350311279297,-1.0841959714889526,1.5600000000000012
-0.8852372169494629,0.45253849029541016,-0.7487154006958008,1.5700000000000012
-0.29469215869903564,1.036921501159668,-0.6002622842788696,1.5800000000000012
-0.02014303207397461,1.4017314910888672,-0.8512969017028809,1.5900000000000012
0.3469831943511963,1.5694828033447266,-1.4690749645233154,1.6000000000000012
0.7647731304168701,1.405538558959961,-2.2067413330078125,1.6100000000000012
1.095031976699829,1.0834970474243164,-2.7072675228118896,1.6200000000000012
1.4936132431030273,0.763737678527832,-2.9865918159484863,1.6300000000000012
1.7127580642700195,0.5267829895019531,-2.6692326068878174,1.6400000000000012
1.6720688343048096,0.34476184844970703,-1.8910036087036133,1.6500000000000012
1.13179612159729,0.42701244354248047,-1.2506556510925293,1.6600000000000013
0.525404691696167,0.6217279434204102,-1.450183391571045,1.6700000000000013
0.23691701889038086,1.0805015563964844,-2.6500587463378906,1.6800000000000013
-0.2427515983581543,1.9279985427856445,-3.5773892402648926,1.6900000000000013
-1.047361969947815,3.239625930786133,-4.101603984832764,1.7000000000000013
-1.3255091905593872,3.8069534301757812,-4.417893886566162,1.7100000000000013
-1.1429553031921387,3.7795724868774414,-4.882065773010254,1.7200000000000013
-1.0878242254257202,3.395009994506836,-5.32145881652832,1.7300000000000013
-1.3777415752410889,3.243557929992676,-5.473296165466309,1.7400000000000013
-1.9260468482971191,3.900724411010742,-4.843409538269043,1.7500000000000013
-2.6014108657836914,4.703834533691406,-3.975054979324341,1.7600000000000013
-2.9250221252441406,5.218151092529297,-3.243760108947754,1.7700000000000014
-3.502957820892334,5.879682540893555,-2.657505512237549,1.7800000000000014
-3.9195303916931152,6.664412498474121,-3.0248899459838867,1.7900000000000014
-3.7569680213928223,7.095033645629883,-3.865828514099121,1.8000000000000014
-3.7079520225524902,7.5191802978515625,-4.506376266479492,1.8100000000000014
-3.8622121810913086,7.426340103149414,-4.926874160766602,1.8200000000000014
-4.4581298828125,7.189297199249268,-5.053693771362305,1.8300000000000014
-5.107425212860107,6.254732131958008,-5.171482086181641,1.8400000000000014
-6.186990737915039,4.7336506843566895,-5.243619918823242,1.8500000000000014
-6.235477447509766,3.069213390350342,-4.693332195281982,1.8600000000000014
-5.577206611633301,1.6341748237609863,-4.253633499145508,1.8700000000000014
-4.426708221435547,0.8421754837036133,-4.357100963592529,1.8800000000000014
-3.3308091163635254,0.06498193740844727,-4.35745906829834,1.8900000000000015
-2.6919057369232178,-0.23380613327026367,-3.9219956398010254,1.9000000000000015
-2.2622029781341553,-0.1812891960144043,-4.0667266845703125,1.9100000000000015
-1.9698809385299683,0.14432287216186523,-4.438385963439941,1.9200000000000015
-1.774907112121582,0.8715405464172363,-4.8482561111450195,1.9300000000000015
-1.6441466808319092,1.405808925628662,-5.620822429656982,1.9400000000000015
-1.385880708694458,1.8135499954223633,-7.003640174865723,1.9500000000000015
-1.193502426147461,2.0536551475524902,-6.9878740310668945,1.9600000000000015
-1.187387228012085,2.3676910400390625,-7.20859432220459,1.9700000000000015
-1.223238229751587,2.3543334007263184,-7.79034423828125,1.9800000000000015
-1.263375997543335,1.930922031402588,-7.840724945068359,1.9900000000000015
-1.3425822257995605,1.5311832427978516,-8.45785903930664,2.0000000000000013
-1.5280252695083618,1.2880821228027344,-8.336136817932129,2.010000000000001
-2.062070369720459,1.1278553009033203,-7.796132564544678,2.020000000000001
-2.624569892883301,1.104477882385254,-6.940962314605713,2.0300000000000007
-3.045043706893921,0.8818273544311523,-6.19132137298584,2.0400000000000005
-3.5059680938720703,0.41002750396728516,-6.373387813568115,2.0500000000000003
-4.329968452453613,-0.37815093994140625,-6.438137054443359,2.06
-5.130082130432129,-1.2307615280151367,-6.504983425140381,2.07
-5.80599308013916,-2.123481512069702,-5.910037994384766,2.0799999999999996
-6.232795715332031,-2.8619284629821777,-4.402864933013916,2.0899999999999994
-6.1746625900268555,-2.887784481048584,-4.401205539703369,2.099999999999999
-5.067874908447266,-3.833641529083252,1.1993308067321777,2.109999999999999
-5.022429466247559,-3.908278465270996,1.238846778869629,2.1199999999999988
-2.9770212173461914,-2.7723493576049805,3.709115505218506,2.1299999999999986
-2.574044704437256,-0.9776797294616699,3.4203643798828125,2.1399999999999983
-2.135911226272583,1.4357223510742188,2.0809741020202637,2.149999999999998
-1.704769253730774,4.627696990966797,1.1108007431030273,2.159999999999998
-0.5478891134262085,7.697780132293701,0.8429388999938965,2.1699999999999977
1.3462638854980469,10.918008804321289,1.5760459899902344,2.1799999999999975
3.0115585327148438,11.763273239135742,2.221736431121826,2.1899999999999973
4.527878284454346,11.047962188720703,1.8966784477233887,2.199999999999997
4.657689571380615,8.76928997039795,-0.6884069442749023,2.209999999999997
3.0697526931762695,6.09092903137207,-2.845646858215332,2.2199999999999966
1.7980897426605225,2.9872708320617676,-3.688776731491089,2.2299999999999964
0.6572849750518799,0.08835124969482422,-4.314093112945557,2.239999999999996
-0.018635988235473633,-1.5770883560180664,-4.046207427978516,2.249999999999996
-0.5555000305175781,-2.2113075256347656,-2.5920181274414062,2.259999999999996
-0.5727659463882446,-0.14686155319213867,-1.7221221923828125,2.2699999999999956
-0.2815988063812256,3.2908201217651367,-2.0484766960144043,2.2799999999999954
-0.3565415143966675,6.372218132019043,-2.6593801975250244,2.289999999999995
-1.146069049835205,8.56644344329834,-6.111112594604492,2.299999999999995
-3.120227813720703,10.05042552947998,-9.47774600982666,2.3099999999999947
-4.878805160522461,10.600071907043457,-11.197758674621582,2.3199999999999945
-6.597469806671143,9.565616607666016,-11.223179817199707,2.3299999999999943
-7.166562080383301,6.790719985961914,-10.676284790039062,2.339999999999994
-5.403517723083496,3.0736207962036133,-9.835826873779297,2.349999999999994
-3.887704610824585,0.3328690528869629,-9.07168960571289,2.3599999999999937
-3.1945977210998535,-1.4029016494750977,-8.074467658996582,2.3699999999999934
-2.88472056388855,-2.5664877891540527,-7.036977291107178,2.3799999999999932
-3.0370595455169678,-2.7594289779663086,-6.790371894836426,2.389999999999993
-2.9714579582214355,-2.417994499206543,-7.186936378479004,2.399999999999993
-2.7321667671203613,-1.8119444847106934,-7.421681880950928,2.4099999999999926
-2.5779643058776855,-1.1794123649597168,-7.345859527587891,2.4199999999999924
-2.4537243843078613,-0.5068850517272949,-7.2733378410339355,2.429999999999992
-2.5315041542053223,0.6168112754821777,-6.9398393630981445,2.439999999999992
-2.7756097316741943,1.6597509384155273,-5.292019844055176,2.4499999999999917
-2.7245845794677734,2.363247871398926,-3.151001214981079,2.4599999999999915
-2.775322437286377,2.6486549377441406,-2.7972400188446045,2.4699999999999913
-2.7181715965270996,2.584705352783203,-2.7129852771759033,2.479999999999991
-2.1154842376708984,1.3797903060913086,-4.454629898071289,2.489999999999991
-1.5375442504882812,0.5646705627441406,-4.636127948760986,2.4999999999999907
-0.9016770124435425,-0.19137096405029297,-4.513034343719482,2.5099999999999905
-0.3690587878227234,-0.6976113319396973,-4.4844136238098145,2.5199999999999902
-0.36266815662384033,-0.4208183288574219,-4.243205547332764,2.52999999999999
-0.5571058392524719,0.1959238052368164,-3.661222457885742,2.53999999999999
-0.7769673466682434,1.0088424682617188,-3.1183488368988037,2.5499999999999896
-0.8533272743225098,1.5825424194335938,-2.6668171882629395,2.5599999999999894
-0.6116915941238403,1.8744516372680664,-2.4417219161987305,2.569999999999989
-0.20640146732330322,1.9317512512207031,-2.5713257789611816,2.579999999999989
-0.10287272930145264,1.819732666015625,-3.4134953022003174,2.5899999999999888
0.1837003231048584,1.3586559295654297,-4.431006908416748,2.5999999999999885
0.48817014694213867,0.8042736053466797,-4.678251266479492,2.6099999999999883
0.8328551054000854,0.20965862274169922,-4.433579921722412,2.619999999999988
1.113049030303955,-0.16063499450683594,-4.031848907470703,2.629999999999988
0.863418459892273,-0.2726631164550781,-3.608060121536255,2.6399999999999877
0.3063551187515259,-0.22445011138916016,-3.0277390480041504,2.6499999999999875
-0.42207300662994385,0.3593130111694336,-2.2077372074127197,2.6599999999999873
-0.787648618221283,1.0126190185546875,-1.5134334564208984,2.669999999999987
-0.8678076863288879,1.430251121520996,-1.05997896194458,2.679999999999987
-0.8056786060333252,1.7359638214111328,-0.8810892105102539,2.6899999999999866
-0.8509679436683655,1.9559669494628906,-0.9088479280471802,2.6999999999999864
-1.0737907886505127,1.6549510955810547,-1.0338013172149658,2.709999999999986
-1.3537644147872925,0.659419059753418,-1.420302391052246,2.719999999999986
-1.5006251335144043,0.1038064956665039,-1.5817363262176514,2.7299999999999858
-1.4337550401687622,-0.11263275146484375,-1.0289543867111206,2.7399999999999856
-1.0956602096557617,-0.20398616790771484,-0.446200966835022,2.7499999999999853
-0.4654022455215454,-0.2901172637939453,-0.5530568361282349,2.759999999999985
0.5760313272476196,-0.2844362258911133,-1.4276498556137085,2.769999999999985
1.60640287399292,-0.1160116195678711,-2.8660848140716553,2.7799999999999847
2.102663993835449,0.1624307632446289,-3.74099063873291,2.7899999999999845
2.758727550506592,0.6006097793579102,-3.9845893383026123,2.7999999999999843
3.0263590812683105,1.5863838195800781,-3.764275312423706,2.809999999999984
2.3919334411621094,3.0671463012695312,-3.7006030082702637,2.819999999999984
1.0525225400924683,4.8871259689331055,-4.2003302574157715,2.8299999999999836
0.43014776706695557,6.396978378295898,-4.050563812255859,2.8399999999999834
0.7404195070266724,6.440888404846191,-3.8992624282836914,2.849999999999983
1.117275357246399,5.191797256469727,-4.7071051597595215,2.859999999999983
0.8791850805282593,3.841787338256836,-5.601963043212891,2.869999999999983
0.1401536464691162,2.854032516479492,-5.637002944946289,2.8799999999999826
-0.8811394572257996,2.5796871185302734,-5.226132392883301,2.8899999999999824
-0.951805055141449,2.688129425048828,-5.496537208557129,2.899999999999982
-2.691671133041382,3.4627742767333984,-3.178534984588623,2.909999999999982
-3.3980400562286377,4.774855613708496,-1.7499630451202393,2.9199999999999817
-3.942253589630127,6.0969696044921875,-0.6146299839019775,2.9299999999999815
-4.614799499511719,6.4900665283203125,-1.2683234214782715,2.9399999999999813
-5.302187919616699,6.545534133911133,-2.765122652053833,2.949999999999981
-6.109096527099609,6.353183746337891,-3.856321334838867,2.959999999999981
-6.181822776794434,5.676048278808594,-4.181387424468994,2.9699999999999807
-6.173170566558838,4.233349800109863,-4.597164154052734,2.9799999999999804
-5.677890300750732,2.4545211791992188,-5.20921516418457,2.9899999999999802
-4.93790864944458,1.464353084564209,-5.955402374267578,2.99999999999998
-3.7906699180603027,0.6688361167907715,-6.691517353057861,3.00999999999998
-2.7309319972991943,0.2568526268005371,-6.572525978088379,3.0199999999999796
-1.9190752506256104,0.1082143783569336,-5.8365068435668945,3.0299999999999794
-1.0206763744354248,-0.03311443328857422,-5.203934669494629,3.039999999999979
-0.21701502799987793,0.11615419387817383,-4.63762092590332,3.049999999999979
0.05948138236999512,0.5703186988830566,-4.626405239105225,3.0599999999999787
0.07878303527832031,1.0517454147338867,-5.109560012817383,3.0699999999999785
-0.021973371505737305,1.380124568939209,-5.5369367599487305,3.0799999999999783
-0.2324848175048828,1.6953272819519043,-6.5408220291137695,3.089999999999978
-0.5809946060180664,1.931410312652588,-6.71754789352417,3.099999999999978
-1.1263360977172852,1.9226164817810059,-6.908716201782227,3.1099999999999777
-1.632592797279358,1.779557704925537,-7.080275535583496,3.1199999999999775
-2.247863531112671,1.5995368957519531,-7.019070148468018,3.1299999999999772
-2.8692283630371094,1.5428290367126465,-6.640716552734375,3.139999999999977
-3.1568636894226074,1.3655099868774414,-6.336235523223877,3.149999999999977
-3.302856206893921,1.240293025970459,-6.045111179351807,3.1599999999999766
-3.338233709335327,1.0436792373657227,-5.75993013381958,3.1699999999999764
-3.702280044555664,0.5662956237792969,-5.788712024688721,3.179999999999976
-4.17219352722168,-0.09019899368286133,-5.9597954750061035,3.189999999999976
-4.53762674331665,-1.0179452896118164,-5.787533760070801,3.1999999999999758
-4.529925346374512,-1.84639573097229,-5.643166542053223,3.2099999999999755
-4.522419452667236,-2.783275842666626,-4.8743815422058105,3.2199999999999753
-4.1181640625,-3.714937210083008,-3.1133198738098145,3.229999999999975
-3.797271728515625,-4.171917915344238,-1.702296257019043,3.239999999999975
-3.643860101699829,-4.087278842926025,-0.3438386917114258,3.2499999999999747
-3.2373833656311035,-3.4771475791931152,0.6441354751586914,3.2599999999999745
-2.6282639503479004,-2.5575003623962402,1.2705316543579102,3.2699999999999743
-1.856428861618042,-0.7542238235473633,1.7614707946777344,3.279999999999974
-1.0568156242370605,1.3064727783203125,1.8325982093811035,3.289999999999974
-0.05052065849304199,4.052088260650635,1.5242033004760742,3.2999999999999736
1.302869200706482,7.561480522155762,1.8133649826049805,3.3099999999999734
3.2619528770446777,10.523069381713867,3.0219473838806152,3.319999999999973
4.7468342781066895,10.673885345458984,4.032045841217041,3.329999999999973
5.70686149597168,8.872793197631836,2.560770034790039,3.3399999999999728
5.074945449829102,6.03875732421875,-0.4957871437072754,3.3499999999999726
3.330559730529785,2.8632640838623047,-2.664682388305664,3.3599999999999723
2.032888889312744,0.14822816848754883,-4.039726257324219,3.369999999999972
0.3712759017944336,-0.9153189659118652,-4.931830883026123,3.379999999999972
-0.795122504234314,0.40509605407714844,-5.321990966796875,3.3899999999999717
-1.45718252658844,3.5847768783569336,-5.675532341003418,3.3999999999999715
-1.6545449495315552,6.487166404724121,-4.916269302368164,3.4099999999999713
-1.6851005554199219,9.351658821105957,-4.970309734344482,3.419999999999971
-2.41778564453125,11.5748291015625,-6.217688083648682,3.429999999999971
-4.514389991760254,11.504325866699219,-8.980293273925781,3.4399999999999706
-6.099618434906006,9.667481422424316,-10.353796005249023,3.4499999999999704
-6.421256065368652,6.055109977722168,-10.22831916809082,3.45999999999997
-5.30311393737793,2.7163028717041016,-9.644481658935547,3.46999999999997
-4.076422214508057,0.10028266906738281,-9.205718040466309,3.47999999999997
-3.1650190353393555,-1.7131643295288086,-8.484006881713867,3.4899999999999696
-2.5021045207977295,-3.0293350219726562,-7.391780853271484,3.4999999999999694
-2.0774688720703125,-3.5621957778930664,-7.038362979888916,3.509999999999969
-2.092167377471924,-3.3790640830993652,-6.482550621032715,3.519999999999969
-1.9812266826629639,-3.4275436401367188,-6.4530839920043945,3.5299999999999687
-2.4595842361450195,-1.1980805397033691,-6.014715194702148,3.5399999999999685
-2.5790464878082275,-0.021601200103759766,-6.270392894744873,3.5499999999999683
-2.6151270866394043,1.172938346862793,-6.382157802581787,3.559999999999968
-2.4362363815307617,2.1045074462890625,-5.819091796875,3.569999999999968
-1.7189280986785889,2.8120479583740234,-3.393394947052002,3.5799999999999677
-1.552859902381897,3.4037294387817383,-1.353222131729126,3.5899999999999674
-1.8478221893310547,2.8740549087524414,-2.49592661857605,3.5999999999999672
-1.8285741806030273,2.7855052947998047,-2.3542187213897705,3.609999999999967
-1.414095163345337,0.28788185119628906,-4.164218425750732,3.619999999999967
-0.8662720918655396,-0.6808619499206543,-4.276223659515381,3.6299999999999666
-0.16897130012512207,-1.2655982971191406,-4.203729152679443,3.6399999999999664
0.29175496101379395,-1.3027448654174805,-4.023530006408691,3.649999999999966
0.06460940837860107,-0.6223249435424805,-3.628971815109253,3.659999999999966
-0.3741811513900757,0.28885459899902344,-3.5831797122955322,3.6699999999999657
-0.5003179311752319,1.2443246841430664,-3.601600170135498,3.6799999999999655
-0.2943873405456543,1.741556167602539,-3.849019765853882,3.6899999999999653
-0.1887834072113037,1.9299135208129883,-4.158676624298096,3.699999999999965
0.00265657901763916,1.715428352355957,-4.124300956726074,3.709999999999965
0.0017535686492919922,1.3232898712158203,-3.6633734703063965,3.7199999999999647
-0.07849180698394775,0.9998435974121094,-3.048306941986084,3.7299999999999645
-0.051848530769348145,0.554600715637207,-2.581019878387451,3.7399999999999642
-0.09337460994720459,0.40468883514404297,-2.425144672393799,3.749999999999964
-0.4008294343948364,0.4687013626098633,-2.164658546447754,3.759999999999964
-0.35690033435821533,0.4389228820800781,-2.095498561859131,3.7699999999999636
-0.863088071346283,-0.3755378723144531,-1.351585865020752,3.7799999999999634
-0.9970700740814209,-0.9061212539672852,-1.6228930950164795,3.789999999999963
-0.8916876316070557,-0.8689451217651367,-2.0161781311035156,3.799999999999963
-0.6826906800270081,-0.6716337203979492,-1.808922529220581,3.8099999999999627
-0.4496617913246155,-0.29351139068603516,-1.509523630142212,3.8199999999999625
-0.18718492984771729,0.23877906799316406,-1.226343035697937,3.8299999999999623
-0.15612471103668213,0.9267387390136719,-0.9679170846939087,3.839999999999962
-0.09704172611236572,1.5714378356933594,-0.8340864181518555,3.849999999999962
0.2689172029495239,1.8479385375976562,-1.1736664772033691,3.8599999999999617
0.857744574546814,1.5301399230957031,-1.823373556137085,3.8699999999999615
1.6003577709197998,0.8211078643798828,-2.898151159286499,3.8799999999999613
2.2188467979431152,0.1749286651611328,-3.200562000274658,3.889999999999961
2.8228797912597656,-0.3165092468261719,-2.7921056747436523,3.899999999999961
3.2098655700683594,-0.5059127807617188,-2.058178424835205,3.9099999999999606
2.8786721229553223,-0.2765340805053711,-1.256941795349121,3.9199999999999604
2.0530381202697754,0.15553569793701172,-1.0583595037460327,3.92999999999996
1.5139964818954468,0.6983251571655273,-1.6968307495117188,3.93999999999996
1.1768810749053955,1.3746366500854492,-2.801424026489258,3.9499999999999598
0.699651837348938,2.4341344833374023,-3.287774085998535,3.9599999999999596
0.05544936656951904,3.833043098449707,-3.448270797729492,3.9699999999999593
-0.1685347557067871,4.470248222351074,-3.7483692169189453,3.979999999999959
0.03842967748641968,4.057408332824707,-4.367828369140625,3.989999999999959
0.08767610788345337,3.0771331787109375,-5.015035629272461,3.9999999999999587
