AccX,AccY,AccZ,SampleRate
-1.670729637145996,-3.9819679260253906,-6.726985931396484,0.01
-1.4025962352752686,-4.0929741859436035,-6.179026126861572,0.02
-1.3448882102966309,-3.6863222122192383,-5.832924842834473,0.03
-1.1856049299240112,-2.742790699005127,-5.494606018066406,0.04
-1.4085335731506348,-1.286506175994873,-5.522870063781738,0.05
-1.4798260927200317,0.03052043914794922,-6.095389366149902,0.060000000000000005
-1.5455560684204102,0.9978570938110352,-6.156750679016113,0.07
-1.5658185482025146,1.796402931213379,-5.782814979553223,0.08
-1.5207533836364746,2.21817684173584,-4.686113357543945,0.09
-0.9618916511535645,2.506363868713379,-0.47564125061035156,0.09999999999999999
-0.5928159952163696,1.7799434661865234,1.2267348766326904,0.10999999999999999
-0.35058122873306274,0.4708547592163086,-0.3092384338378906,0.11999999999999998
-0.2811974287033081,-0.49049854278564453,-1.337935209274292,0.12999999999999998
-0.2578120231628418,-1.1270761489868164,-1.991605520248413,0.13999999999999999
-0.1606684923171997,-1.3207788467407227,-2.3802337646484375,0.15
0.1034616231918335,-1.1222782135009766,-2.2588396072387695,0.16
0.16724860668182373,-0.459136962890625,-2.1851089000701904,0.17
0.30815744400024414,0.3876199722290039,-2.069406747817993,0.18000000000000002
0.45924603939056396,0.9799261093139648,-1.730759620666504,0.19000000000000003
0.6686174869537354,1.128377914428711,-1.815011739730835,0.20000000000000004
0.9372166395187378,1.093653678894043,-2.030282497406006,0.21000000000000005
0.9879734516143799,0.8166713714599609,-2.180978298187256,0.22000000000000006
0.9223507642745972,0.26280689239501953,-2.3357908725738525,0.23000000000000007
0.5742509365081787,-0.30270957946777344,-2.1210548877716064,0.24000000000000007
0.3183521032333374,-0.4757976531982422,-2.020608425140381,0.25000000000000006
0.14584136009216309,-0.7046852111816406,-1.6617921590805054,0.26000000000000006
0.13944590091705322,-0.9613256454467773,-1.1802682876586914,0.2700000000000001
-0.008279800415039062,-1.103647232055664,-0.5560666918754578,0.2800000000000001
-0.48501622676849365,-0.9032087326049805,0.07960689067840576,0.2900000000000001
-1.033530831336975,-0.2938375473022461,0.7288947105407715,0.3000000000000001
-1.21527099609375,0.24811363220214844,0.8972452878952026,0.3100000000000001
-1.1691935062408447,0.23250579833984375,0.9973399639129639,0.3200000000000001
-1.4190404415130615,1.214552879333496,0.9584507346153259,0.3300000000000001
-1.1793005466461182,1.3595199584960938,1.0472886562347412,0.34000000000000014
-0.5076155066490173,1.1474905014038086,1.2699248790740967,0.35000000000000014
0.6549641489982605,0.8617630004882812,0.9118036031723022,0.36000000000000015
1.8159974813461304,0.648468017578125,-0.04150950908660889,0.37000000000000016
3.0577287673950195,0.5645627975463867,-0.8408896923065186,0.38000000000000017
3.972623825073242,0.6715011596679688,-0.7140419483184814,0.3900000000000002
4.569540023803711,0.9372243881225586,0.25697973370552063,0.4000000000000002
4.702962875366211,1.3207588195800781,1.1747264862060547,0.4100000000000002
4.1124043464660645,1.6857318878173828,1.569101333618164,0.4200000000000002
3.3214738368988037,1.6203851699829102,1.1106762886047363,0.4300000000000002
2.833996534347534,1.4195795059204102,-0.07469971477985382,0.4400000000000002
2.3084864616394043,1.397822380065918,-1.0544569492340088,0.45000000000000023
1.0998563766479492,2.2158918380737305,-1.778862714767456,0.46000000000000024
-0.23101568222045898,3.1129913330078125,-2.5245249271392822,0.47000000000000025
-0.4725358486175537,2.635922431945801,-2.669387102127075,0.48000000000000026
-0.2767268419265747,1.7430744171142578,-3.2886600494384766,0.49000000000000027
-0.4645247459411621,0.8460531234741211,-3.8229005336761475,0.5000000000000002
-1.3469786643981934,0.8351306915283203,-4.207118034362793,0.5100000000000002
-1.85635244846344,2.12857723236084,-4.517256259918213,0.5200000000000002
-1.7148942947387695,2.969715118408203,-4.699864387512207,0.5300000000000002
-1.6420643329620361,4.0945587158203125,-4.143106937408447,0.5400000000000003
-1.4744534492492676,5.553255081176758,-3.6198267936706543,0.5500000000000003
-1.030735969543457,7.456562042236328,-2.739600658416748,0.5600000000000003
-0.7012152671813965,9.148380279541016,-2.1348891258239746,0.5700000000000003
-1.221566081047058,10.26211929321289,-1.8532447814941406,0.5800000000000003
-2.8028781414031982,11.231512069702148,0.3654794692993164,0.5900000000000003
-5.023675441741943,9.776780128479004,-0.13288164138793945,0.6000000000000003
-6.141428470611572,7.027518272399902,-2.2465925216674805,0.6100000000000003
-5.653006553649902,4.1041059494018555,-3.726870536804199,0.6200000000000003
-5.875762462615967,4.2071990966796875,-3.8150691986083984,0.6300000000000003
-4.292654991149902,-0.15815353393554688,-4.137443542480469,0.6400000000000003
-3.2147583961486816,-1.8297462463378906,-3.8663411140441895,0.6500000000000004
-2.080049991607666,-3.16060209274292,-4.089827060699463,0.6600000000000004
-1.2537481784820557,-3.3984475135803223,-4.795119762420654,0.6700000000000004
-0.4984508752822876,-3.1926612854003906,-5.337576389312744,0.6800000000000004
0.0010483264923095703,-2.7405285835266113,-5.433684825897217,0.6900000000000004
0.5540711879730225,-2.3248672485351562,-6.132378101348877,0.7000000000000004
0.5741968154907227,-1.7461886405944824,-6.73906946182251,0.7100000000000004
0.47612452507019043,-1.1509108543395996,-7.015819549560547,0.7200000000000004
0.2566804885864258,-0.8220763206481934,-6.763300895690918,0.7300000000000004
-0.09054112434387207,-0.6146674156188965,-6.504040241241455,0.7400000000000004
-0.47157537937164307,-0.4248480796813965,-5.889369964599609,0.7500000000000004
-0.9945541620254517,-0.4812908172607422,-5.701103210449219,0.7600000000000005
-1.286062479019165,-0.6517806053161621,-5.216221332550049,0.7700000000000005
-1.829659342765808,-1.0584616661071777,-5.067117691040039,0.7800000000000005
-2.5180506706237793,-1.5142669677734375,-5.088191509246826,0.7900000000000005
-3.169436454772949,-1.9859833717346191,-4.963619232177734,0.8000000000000005
-3.730349540710449,-2.620990753173828,-4.896985054016113,0.8100000000000005
-4.524219512939453,-3.2991790771484375,-5.059937000274658,0.8200000000000005
-5.208678245544434,-3.8961567878723145,-4.3477983474731445,0.8300000000000005
-5.615427017211914,-4.515981197357178,-2.9340672492980957,0.8400000000000005
-5.464887619018555,-4.817873001098633,-1.305013656616211,0.8500000000000005
-4.861541748046875,-5.012814521789551,0.7957544326782227,0.8600000000000005
-4.863752365112305,-5.142624855041504,0.9347105026245117,0.8700000000000006
-3.3226661682128906,-3.77612566947937,3.5000829696655273,0.8800000000000006
-3.0189905166625977,-1.4348859786987305,3.5547661781311035,0.8900000000000006
-1.8519659042358398,1.925626277923584,1.9536418914794922,0.9000000000000006
-0.07061994075775146,5.811171531677246,4.471932411193848,0.9100000000000006
1.2511811256408691,9.561561584472656,5.9398884773254395,0.9200000000000006
2.202880620956421,11.760680198669434,5.255257606506348,0.9300000000000006
3.1147093772888184,11.362393379211426,5.150033950805664,0.9400000000000006
3.210470199584961,8.839216232299805,3.677283763885498,0.9500000000000006
2.3452517986297607,4.581398010253906,1.3315672874450684,0.9600000000000006
1.6188448667526245,1.618398666381836,-0.5004992485046387,0.9700000000000006
1.111629605293274,-0.9871706962585449,-2.5514707565307617,0.9800000000000006
0.4939286708831787,-0.6523656845092773,-3.0143790245056152,0.9900000000000007
-0.0725637674331665,2.364744186401367,-3.275531053543091,1.0000000000000007
-0.8495359420776367,6.133977890014648,-3.5816171169281006,1.0100000000000007
-1.0393855571746826,9.742955207824707,-3.381779670715332,1.0200000000000007
-1.1592090129852295,12.097688674926758,-5.104556083679199,1.0300000000000007
-2.8503775596618652,11.10240650177002,-8.522314071655273,1.0400000000000007
-4.779663562774658,7.112024307250977,-11.027326583862305,1.0500000000000007
-4.571584701538086,2.9751853942871094,-10.120595932006836,1.0600000000000007
-3.7129876613616943,-0.30762481689453125,-9.382930755615234,1.0700000000000007
-2.6989312171936035,-2.559424877166748,-8.745565414428711,1.0800000000000007
-2.029461145401001,-3.4755806922912598,-7.912441253662109,1.0900000000000007
-1.6655943393707275,-4.069099426269531,-6.709918022155762,1.1000000000000008
-1.523819923400879,-4.3227739334106445,-5.815805435180664,1.1100000000000008
-1.4042316675186157,-3.9889583587646484,-5.353104591369629,1.1200000000000008
-1.3827502727508545,-2.7515978813171387,-5.078000068664551,1.1300000000000008
-1.54416823387146,-1.1031451225280762,-5.146430015563965,1.1400000000000008
-1.604400873184204,0.008242607116699219,-5.342742919921875,1.1500000000000008
-1.7597997188568115,1.2327327728271484,-5.482083797454834,1.1600000000000008
-1.6823152303695679,1.9157800674438477,-5.366730690002441,1.1700000000000008
-1.2672600746154785,2.487934112548828,-1.79294753074646,1.1800000000000008
-0.6606283783912659,2.609827995300293,1.8408141136169434,1.1900000000000008
-0.5246630311012268,1.631148338317871,0.37247252464294434,1.2000000000000008
-0.5367711186408997,0.20501422882080078,-1.6006529331207275,1.2100000000000009
-0.6651127934455872,-1.1277551651000977,-2.686845064163208,1.2200000000000009
-0.4575677514076233,-2.303502082824707,-2.7289235591888428,1.2300000000000009
-0.047665536403656006,-2.981353759765625,-2.3346266746520996,1.2400000000000009
0.10382461547851562,-2.574824333190918,-2.3437492847442627,1.2500000000000009
0.04452788829803467,-1.4135665893554688,-2.0891995429992676,1.260000000000001
0.10112130641937256,-0.42059803009033203,-1.9786754846572876,1.270000000000001
0.22722482681274414,0.3846158981323242,-1.9853004217147827,1.280000000000001
0.4858052730560303,1.0692157745361328,-1.7033438682556152,1.290000000000001
0.6641213893890381,1.356368064880371,-1.018136739730835,1.300000000000001
0.7520477175712585,1.1463689804077148,-0.7344908118247986,1.310000000000001
0.7958176732063293,0.5506343841552734,-0.8045256733894348,1.320000000000001
0.8558776378631592,0.0120086669921875,-0.924436092376709,1.330000000000001
0.9591243267059326,-0.43325233459472656,-1.2172411680221558,1.340000000000001
1.0164542198181152,-0.6463260650634766,-1.4474420547485352,1.350000000000001
0.7903692126274109,-0.8768939971923828,-1.445167064666748,1.360000000000001
0.3677448034286499,-0.9822616577148438,-1.1049079895019531,1.370000000000001
-0.005387365818023682,-1.1163759231567383,-0.1927970051765442,1.380000000000001
-0.2847931683063507,-1.208552360534668,0.6336580514907837,1.390000000000001
-0.7293290495872498,-0.8068084716796875,1.2529270648956299,1.400000000000001
-0.9453272819519043,-0.1412506103515625,1.1390153169631958,1.410000000000001
-0.738496720790863,0.4584951400756836,0.7930624485015869,1.420000000000001
-0.32801181077957153,0.7593746185302734,0.3508061170578003,1.430000000000001
0.2366839051246643,0.4896221160888672,-0.49120211601257324,1.440000000000001
0.6580902338027954,0.27733707427978516,-1.1149383783340454,1.450000000000001
0.7850838899612427,0.40525245666503906,-0.7161882519721985,1.460000000000001
1.2314205169677734,0.7794923782348633,0.14922896027565002,1.470000000000001
2.1628079414367676,0.9635658264160156,0.3076046407222748,1.480000000000001
2.8344979286193848,0.9712867736816406,-0.02134169638156891,1.490000000000001
3.375372886657715,0.7831525802612305,-0.37099897861480713,1.500000000000001
3.843191146850586,0.5571165084838867,-0.21100305020809174,1.5100000000000011
3.9342191219329834,0.4512605667114258,0.6824266910552979,1.5200000000000011
3.3698933124542236,0.45368385314941406,0.7722961902618408,1.5300000000000011
2.7685015201568604,1.1079816818237305,-0.6917195916175842,1.5400000000000011
1.923643946647644,2.3832244873046875,-1.749746322631836,1.5500000000000012
1.2722163200378418,3.8897476196289062,-1.784475564956665,1.5600000000000012
1.0714757442474365,4.411348342895508,-1.3425372838974,1.5700000000000012
1.3760846853256226,3.470674514770508,-2.01417875289917,1.5800000000000012
1.3457207679748535,2.2552928924560547,-3.329915761947632,1.5900000000000012
0.2764245271682739,2.0249481201171875,-4.083244323730469,1.6000000000000012
-1.4092981815338135,2.3849258422851562,-4.082999229431152,1.6100000000000012
-2.6809380054473877,3.1944875717163086,-4.015297889709473,1.6200000000000012
-2.805947780609131,3.272007942199707,-4.354801177978516,1.6300000000000012
-2.2986321449279785,4.761319160461426,-3.517134189605713,1.6400000000000012
-2.0088469982147217,6.378862380981445,-2.8555073738098145,1.6500000000000012
-1.7347794771194458,8.157499313354492,-1.982598900794983,1.6600000000000013
-2.0416388511657715,9.836588859558105,-0.3837239742279053,1.6700000000000013
-2.156252384185791,9.951611518859863,-0.63511061668396,1.6800000000000013
-5.363644123077393,9.950956344604492,1.9407622814178467,1.6900000000000013
-6.554344177246094,7.086782455444336,0.2969329357147217,1.7000000000000013
-5.923551559448242,4.093782424926758,-1.5198259353637695,1.7100000000000013
-6.088293075561523,4.187252044677734,-1.6385316848754883,1.7200000000000013
-3.7912042140960693,-0.012073516845703125,-3.7228446006774902,1.7300000000000013
-2.732407331466675,-1.5620222091674805,-3.9736409187316895,1.7400000000000013
-1.7972139120101929,-2.3376121520996094,-4.220266342163086,1.7500000000000013
-0.8299450874328613,-2.4893908500671387,-5.163610458374023,1.7600000000000013
-0.20695042610168457,-2.491434097290039,-5.63692045211792,1.7700000000000014
0.4880342483520508,-2.5686774253845215,-5.786925315856934,1.7800000000000014
0.9024410247802734,-2.3432750701904297,-6.186315059661865,1.7900000000000014
0.8555331230163574,-2.222721576690674,-6.344098091125488,1.8000000000000014
0.9290766716003418,-1.419111728668213,-6.489145278930664,1.8100000000000014
0.5983548164367676,-0.9718971252441406,-6.720843315124512,1.8200000000000014
-0.15286564826965332,-0.5169167518615723,-6.325016498565674,1.8300000000000014
-0.8268259763717651,-0.4013361930847168,-5.656955718994141,1.8400000000000014
-1.5328984260559082,-0.2967209815979004,-5.258153438568115,1.8500000000000014
-2.06797194480896,-0.46841907501220703,-5.341943740844727,1.8600000000000014
-2.6505086421966553,-0.7778921127319336,-5.373858451843262,1.8700000000000014
-3.229975461959839,-1.239515781402588,-5.274718284606934,1.8800000000000014
-3.8964180946350098,-1.9219279289245605,-5.069303512573242,1.8900000000000015
-4.592035293579102,-2.7371678352355957,-4.959717750549316,1.9000000000000015
-4.482680320739746,-2.730830192565918,-4.99098014831543,1.9100000000000015
-5.384363174438477,-4.842795372009277,-3.6332848072052,1.9200000000000015
-5.323482513427734,-5.485978126525879,-2.324313163757324,1.9300000000000015
-4.695024490356445,-5.834699630737305,-0.3897724151611328,1.9400000000000015
-3.9886369705200195,-5.809864521026611,1.6446824073791504,1.9500000000000015
-3.6597015857696533,-5.370369911193848,3.07021427154541,1.9600000000000015
-3.8480868339538574,-4.349357604980469,3.4882192611694336,1.9700000000000015
-3.7109737396240234,-2.261157512664795,3.6623120307922363,1.9800000000000015
-3.1407856941223145,0.6595320701599121,3.8267264366149902,1.9900000000000015
-1.751722812652588,4.283760070800781,3.0273585319519043,2.0000000000000013
1.6970611810684204,8.537609100341797,5.094877243041992,2.010000000000001
4.329613208770752,11.714943885803223,6.577763080596924,2.020000000000001
5.542971611022949,11.953198432922363,6.521000862121582,2.0300000000000007
5.867241859436035,9.173551559448242,3.884274959564209,2.0400000000000005
4.667177200317383,5.535069465637207,0.6725344657897949,2.0500000000000003
2.6551623344421387,2.8440542221069336,-0.9806480407714844,2.06
1.02914297580719,3.140862464904785,-1.4578649997711182,2.07
-0.24391579627990723,5.664005279541016,-3.5164968967437744,2.0799999999999996
-1.4812945127487183,8.280478477478027,-4.83482551574707,2.0899999999999994
-2.5723135471343994,10.149702072143555,-6.644754409790039,2.099999999999999
-3.892591953277588,10.218297004699707,-7.819208145141602,2.109999999999999
-6.209568977355957,7.870078086853027,-9.437314987182617,2.1199999999999988
-6.590874195098877,4.022788047790527,-9.405506134033203,2.1299999999999986
-5.639432430267334,0.4069814682006836,-8.839906692504883,2.1399999999999983
-4.412848472595215,-1.9620184898376465,-8.342238426208496,2.149999999999998
-4.440796852111816,-1.9672188758850098,-8.322208404541016,2.159999999999998
-2.4807071685791016,-4.353187084197998,-6.430811882019043,2.1699999999999977
-1.9415779113769531,-4.629355430603027,-5.2258477210998535,2.1799999999999975
-1.6490569114685059,-4.30268669128418,-4.688307762145996,2.1899999999999973
-1.6309529542922974,-3.212836742401123,-4.469972133636475,2.199999999999997
-1.696030616760254,-1.8714027404785156,-4.290309429168701,2.209999999999997
-1.861685037612915,-0.43094444274902344,-5.027257919311523,2.2199999999999966
-1.8745837211608887,0.6205024719238281,-5.737161636352539,2.2299999999999964
-1.713100552558899,1.5135726928710938,-5.765380859375,2.239999999999996
-1.5932197570800781,2.314406394958496,-5.568403720855713,2.249999999999996
-0.6093487739562988,2.667888641357422,-2.5383644104003906,2.259999999999996
0.6710382699966431,2.5245161056518555,0.2432401180267334,2.2699999999999956
0.5863393545150757,1.9086532592773438,-0.39339208602905273,2.2799999999999954
0.07447779178619385,0.736119270324707,-0.99534010887146,2.289999999999995
-0.18250036239624023,-0.4317817687988281,-1.4606997966766357,2.299999999999995
0.03250378370285034,-1.6304659843444824,-1.7014050483703613,2.3099999999999947
0.5607719421386719,-2.5828394889831543,-2.0613670349121094,2.3199999999999945
0.7721050381660461,-2.655618190765381,-1.8481900691986084,2.3299999999999943
0.3044343590736389,-1.7702984809875488,-1.5001167058944702,2.339999999999994
-0.021342873573303223,-0.7630767822265625,-1.677348017692566,2.349999999999994
0.013704180717468262,0.24300384521484375,-1.8084955215454102,2.3599999999999937
0.24776697158813477,0.9392919540405273,-1.4088596105575562,2.3699999999999934
0.3415341377258301,1.2258710861206055,-1.1608033180236816,2.3799999999999932
0.48735713958740234,0.9384222030639648,-1.2567607164382935,2.389999999999993
0.7619647979736328,0.3849830627441406,-1.4522993564605713,2.399999999999993
0.7871531248092651,0.37655162811279297,-1.402158498764038,2.4099999999999926
0.9282503128051758,-0.41612911224365234,-1.5311704874038696,2.4199999999999924
0.9642682671546936,-0.4224977493286133,-1.5036267042160034,2.429999999999992
0.8754397630691528,-0.9694414138793945,-1.0038528442382812,2.439999999999992
0.9210677146911621,-0.9755449295043945,-0.982149600982666,2.4499999999999917
0.01261669397354126,-0.8629922866821289,0.18747025728225708,2.4599999999999915
0.06804782152175903,-0.8714504241943359,0.23204410076141357,2.4699999999999913
-0.6370739936828613,0.1602029800415039,0.8094978928565979,2.479999999999991
-0.6098222136497498,0.6667079925537109,0.6228014826774597,2.489999999999991
-0.38228270411491394,0.6771793365478516,0.19269073009490967,2.4999999999999907
-0.14773708581924438,0.528590202331543,0.0841684341430664,2.5099999999999905
-0.059578120708465576,0.6739473342895508,0.6232266426086426,2.5199999999999902
0.03340396285057068,0.8906373977661133,1.1952275037765503,2.52999999999999
0.4724274277687073,1.142568588256836,1.0181658267974854,2.53999999999999
1.3186808824539185,1.1398515701293945,0.4411908984184265,2.5499999999999896
2.198835849761963,0.7864751815795898,-0.43905624747276306,2.5599999999999894
2.227307081222534,0.7856950759887695,-0.3725242018699646,2.569999999999989
3.597992420196533,0.4329652786254883,-1.0669163465499878,2.579999999999989
3.9130666255950928,0.8173809051513672,-1.2768301963806152,2.5899999999999888
3.8106939792633057,1.8865127563476562,-1.9196398258209229,2.5999999999999885
3.067774534225464,3.8586530685424805,-2.489501714706421,2.6099999999999883
2.121350049972534,5.3910722732543945,-2.7309060096740723,2.619999999999988
2.1215431690216064,5.392454147338867,-2.8260152339935303,2.629999999999988
2.217580556869507,5.106131553649902,-2.547102451324463,2.6399999999999877
2.5454111099243164,4.133598327636719,-3.2608914375305176,2.6499999999999875
2.3549230098724365,3.13523006439209,-3.8358540534973145,2.6599999999999873
1.2895476818084717,2.1925668716430664,-3.586416244506836,2.669999999999987
-0.20105886459350586,1.916264533996582,-2.6223387718200684,2.679999999999987
-1.115045189857483,2.0105514526367188,-2.237826347351074,2.6899999999999866
-1.6257641315460205,2.5130138397216797,-2.6372036933898926,2.6999999999999864
-1.9038140773773193,3.3908767700195312,-2.822844982147217,2.709999999999986
-2.1885275840759277,5.000949859619141,-2.3130569458007812,2.719999999999986
-2.9453396797180176,6.476548194885254,-1.3372126817703247,2.7299999999999858
-4.51075553894043,7.0069990158081055,-0.42383456230163574,2.7399999999999856
-5.9002790451049805,6.521240234375,-0.29530954360961914,2.7499999999999853
-7.803105354309082,4.9732561111450195,-1.6541825532913208,2.759999999999985
-8.367606163024902,3.398379325866699,-2.880873680114746,2.769999999999985
-6.844561576843262,1.2813901901245117,-3.302239418029785,2.7799999999999847
-5.371119022369385,0.25030994415283203,-3.8002192974090576,2.7899999999999845
-3.6189801692962646,-0.47331809997558594,-3.544555187225342,2.7999999999999843
-2.347393751144409,-0.8870067596435547,-3.0851283073425293,2.809999999999984
-1.1324868202209473,-1.3202142715454102,-3.044682025909424,2.819999999999984
-0.5589427947998047,-0.8762702941894531,-3.085606098175049,2.8299999999999836
-0.09892022609710693,-0.2321176528930664,-3.299600124359131,2.8399999999999834
0.5945150852203369,-0.16692543029785156,-3.8020334243774414,2.849999999999983
1.0062416791915894,-0.45671701431274414,-5.574756622314453,2.859999999999983
1.1596235036849976,-0.7757577896118164,-6.20982027053833,2.869999999999983
1.2052080631256104,-0.8889756202697754,-6.984196662902832,2.8799999999999826
0.9126360416412354,-1.022693157196045,-6.976899147033691,2.8899999999999824
0.22566556930541992,-0.9296770095825195,-5.7989182472229,2.899999999999982
-0.5165776014328003,-0.8211064338684082,-5.260060787200928,2.909999999999982
-1.063470721244812,-0.7157230377197266,-5.089945316314697,2.9199999999999817
-1.406883955001831,-0.5904989242553711,-4.76823616027832,2.9299999999999815
-1.981244683265686,-0.7527618408203125,-4.433990001678467,2.9399999999999813
-2.4753684997558594,-1.127436637878418,-4.436030387878418,2.949999999999981
-3.2102975845336914,-1.7130627632141113,-4.178049564361572,2.959999999999981
-3.1183764934539795,-1.6543903350830078,-4.2603535652160645,2.9699999999999807
-4.487856388092041,-3.445631742477417,-3.6541621685028076,2.9799999999999804
-4.54232120513916,-4.5188727378845215,-2.97383451461792,2.9899999999999802
-4.105297088623047,-5.722048759460449,-1.8846988677978516,2.99999999999998
-3.479264497756958,-6.4597930908203125,-0.5611753463745117,3.00999999999998
-2.880476474761963,-6.758228302001953,1.1165904998779297,3.0199999999999796
-2.621492385864258,-6.5929274559021,1.9567680358886719,3.0299999999999794
-2.4698500633239746,-5.826428413391113,2.32271671295166,3.039999999999979
-2.2619221210479736,-4.284234046936035,2.1509995460510254,3.049999999999979
-1.775198221206665,-1.595008373260498,1.6183843612670898,3.0599999999999787
-1.2261223793029785,1.7569389343261719,1.6016221046447754,3.0699999999999785
-0.31072765588760376,5.937441349029541,1.9234967231750488,3.0799999999999783
0.9644674062728882,9.624626159667969,2.4691543579101562,3.089999999999978
2.448460340499878,11.95993423461914,4.410776138305664,3.099999999999978
3.8945159912109375,11.57890510559082,5.9821648597717285,3.1099999999999777
3.972111225128174,8.282536506652832,3.591357707977295,3.1199999999999775
2.8686869144439697,4.677539825439453,1.3170232772827148,3.1299999999999772
2.1700053215026855,0.7445487976074219,-0.12551355361938477,3.139999999999977
1.9516198635101318,-2.6676459312438965,-1.161501169204712,3.149999999999977
2.0434536933898926,-5.257449626922607,-2.313204288482666,3.1599999999999766
1.6046510934829712,-4.853458881378174,-2.9850425720214844,3.1699999999999764
0.5106247663497925,-1.349247932434082,-4.798437118530273,3.179999999999976
-0.5717175006866455,2.0590572357177734,-4.847424507141113,3.189999999999976
-1.7446014881134033,5.556296348571777,-5.367232322692871,3.1999999999999758
-2.881587266921997,10.487689971923828,-6.103154182434082,3.2099999999999755
-4.654213905334473,14.125301361083984,-5.925980091094971,3.2199999999999753
-6.809597015380859,12.514276504516602,-6.372945308685303,3.229999999999975
-8.193767547607422,8.477574348449707,-7.273752212524414,3.239999999999975
-6.55493688583374,3.876053810119629,-7.226601600646973,3.2499999999999747
-4.422937393188477,0.14451885223388672,-6.410783290863037,3.2599999999999745
-2.8298654556274414,-1.5638761520385742,-6.147335529327393,3.2699999999999743
-2.068086862564087,-2.3396358489990234,-5.98822546005249,3.279999999999974
-1.749337077140808,-2.816420078277588,-5.763960838317871,3.289999999999974
-1.6849130392074585,-3.047778606414795,-5.614865303039551,3.2999999999999736
-1.538567304611206,-3.06614351272583,-5.4352216720581055,3.3099999999999734
-1.1795291900634766,-2.909726619720459,-5.647252082824707,3.319999999999973
-0.8800019025802612,-2.208056926727295,-5.345596790313721,3.329999999999973
-0.7799161672592163,-1.173532485961914,-5.4294939041137695,3.3399999999999728
-0.623427152633667,-0.26473236083984375,-4.228957653045654,3.3499999999999726
0.596381425857544,0.8485336303710938,0.28927111625671387,3.3599999999999723
0.5256202220916748,1.4827804565429688,0.7870724201202393,3.369999999999972
0.09238278865814209,1.1562862396240234,-1.4109216928482056,3.379999999999972
-0.286390483379364,0.34858036041259766,-2.604757308959961,3.3899999999999717
-0.36907148361206055,-0.6718626022338867,-2.2507317066192627,3.3999999999999715
-0.3503447473049164,-1.6166706085205078,-1.5053613185882568,3.4099999999999713
-0.7917510867118835,-1.938568115234375,-1.1068578958511353,3.419999999999971
-1.032724142074585,-1.6725826263427734,-1.6029096841812134,3.429999999999971
-0.9680159687995911,-1.098663330078125,-2.488598346710205,3.4399999999999706
-0.6810861229896545,-0.46383094787597656,-2.7220287322998047,3.4499999999999704
-0.28343766927719116,0.22380828857421875,-2.544340133666992,3.45999999999997
0.023167014122009277,0.7720756530761719,-2.0664267539978027,3.46999999999997
0.27128666639328003,1.0387086868286133,-1.3944371938705444,3.47999999999997
0.476540744304657,0.8380918502807617,-0.7796090841293335,3.4899999999999696
0.7093697190284729,0.4232301712036133,-0.555582582950592,3.4999999999999694
0.896149218082428,-0.1035470962524414,-0.7770823240280151,3.509999999999969
0.8221377730369568,-0.4457826614379883,-1.032687783241272,3.519999999999969
0.6342527866363525,-0.7064743041992188,-1.0857514142990112,3.5299999999999687
0.2782006859779358,-0.6771078109741211,-0.6044158935546875,3.5399999999999685
-0.022467494010925293,-0.26676273345947266,0.2894785404205322,3.5499999999999683
-0.39153486490249634,0.17721939086914062,1.092348337173462,3.559999999999968
-0.46806636452674866,0.06084156036376953,1.2133188247680664,3.569999999999968
-0.25537168979644775,-0.35474205017089844,0.48772573471069336,3.5799999999999677
0.14964443445205688,-0.44139862060546875,-0.18121013045310974,3.5899999999999674
0.7768665552139282,-0.13596343994140625,0.18480631709098816,3.5999999999999672
1.3030328750610352,0.4830617904663086,0.9106175899505615,3.609999999999967
1.7869739532470703,1.4412269592285156,1.3660376071929932,3.619999999999967
2.302732229232788,1.792485237121582,0.8598549365997314,3.6299999999999666
3.0443975925445557,1.5846061706542969,0.004435211420059204,3.6399999999999664
3.8880488872528076,1.0807666778564453,-0.8465889096260071,3.649999999999966
4.684215068817139,0.5487518310546875,-0.7493519186973572,3.659999999999966
4.733294486999512,0.5486459732055664,-0.7578309774398804,3.6699999999999657
5.330611705780029,0.3022603988647461,1.130920171737671,3.6799999999999655
4.478867530822754,0.5925235748291016,1.6777055263519287,3.6899999999999653
3.4361677169799805,1.2300939559936523,0.7721228003501892,3.699999999999965
2.4754576683044434,2.025461196899414,-0.7317376732826233,3.709999999999965
1.7118667364120483,2.9188547134399414,-1.622880458831787,3.7199999999999647
1.0628528594970703,3.65725040435791,-1.9087640047073364,3.7299999999999645
0.705200731754303,3.514279365539551,-2.277236223220825,3.7399999999999642
0.6419428586959839,2.2670392990112305,-2.560969352722168,3.749999999999964
0.10506145656108856,0.9623985290527344,-2.733649253845215,3.759999999999964
-0.6028254628181458,0.3864879608154297,-2.7714600563049316,3.7699999999999636
-1.6544898748397827,0.8797779083251953,-2.9828715324401855,3.7799999999999634
-1.8551025390625,2.097315788269043,-3.354611396789551,3.789999999999963
-1.5317572355270386,3.2105369567871094,-3.8484416007995605,3.799999999999963
-1.4636818170547485,4.910407066345215,-3.434678316116333,3.8099999999999627
-1.4059288501739502,6.855032920837402,-2.8570516109466553,3.8199999999999625
-1.1675173044204712,8.318140029907227,-2.225323438644409,3.8299999999999623
-1.145120620727539,9.67586612701416,-1.562459111213684,3.839999999999962
-1.9423433542251587,10.882325172424316,-0.27454257011413574,3.849999999999962
-3.940217971801758,10.576682090759277,0.9617843627929688,3.8599999999999617
-5.115936279296875,7.681521415710449,0.37424373626708984,3.8699999999999615
-5.146536350250244,4.839312553405762,-1.074197769165039,3.8799999999999613
-4.890169620513916,2.5883607864379883,-2.472426414489746,3.889999999999961
-3.960785388946533,0.35802268981933594,-2.8408865928649902,3.899999999999961
-3.2280094623565674,-0.9495487213134766,-3.185944080352783,3.9099999999999606
-2.2879467010498047,-1.8729534149169922,-3.247063636779785,3.9199999999999604
-1.494433879852295,-2.48128080368042,-3.407055377960205,3.92999999999996
-0.943671703338623,-2.3986148834228516,-3.975496292114258,3.93999999999996
-0.17072582244873047,-2.468203067779541,-5.685410022735596,3.9499999999999598
0.30792689323425293,-2.3383755683898926,-6.352557182312012,3.9599999999999596
0.57065749168396,-2.354940414428711,-6.663397789001465,3.9699999999999593
0.5491664409637451,-2.3588857650756836,-7.571813583374023,3.979999999999959
0.3111121654510498,-2.3545689582824707,-7.881464958190918,3.989999999999959
0.41025495529174805,-2.227081775665283,-7.490705490112305,3.9999999999999587
