AccX,AccY,AccZ,SampleRate
4.566605567932129,6.126871109008789,-7.870410442352295,0.01
5.336923599243164,6.044235706329346,-7.557982444763184,0.02
5.906676292419434,5.970195293426514,-6.477083683013916,0.03
5.951043128967285,5.875588417053223,-5.965447425842285,0.04
5.940858840942383,5.903408527374268,-5.992824077606201,0.05
3.5883164405822754,4.937845706939697,-6.124551773071289,0.060000000000000005
2.5866141319274902,4.134006023406982,-6.954566478729248,0.07
2.0220367908477783,3.644373893737793,-8.20301628112793,0.08
1.513592004776001,3.6666131019592285,-9.37094497680664,0.09
1.2712411880493164,3.632387638092041,-9.711405754089355,0.09999999999999999
1.4525063037872314,3.356029987335205,-9.19078540802002,0.10999999999999999
1.6436386108398438,3.156002998352051,-8.81507682800293,0.11999999999999998
1.6309702396392822,3.3746795654296875,-8.94432258605957,0.12999999999999998
1.611392855644226,4.64396858215332,-9.781939506530762,0.13999999999999999
1.4524472951889038,4.915609359741211,-9.985600471496582,0.15
1.863169550895691,8.179237365722656,-10.012688636779785,0.16
1.8129329681396484,8.388115882873535,-10.135247230529785,0.17
3.0540356636047363,10.865283966064453,-8.681328773498535,0.18000000000000002
3.7515530586242676,12.576309204101562,-7.7356743812561035,0.19000000000000003
4.843406677246094,15.096416473388672,-5.506824493408203,0.20000000000000004
5.348565101623535,16.60991668701172,-5.106119155883789,0.21000000000000005
4.545393943786621,16.753320693969727,-5.521607398986816,0.22000000000000006
2.692512273788452,14.79970932006836,-6.526361465454102,0.23000000000000007
1.8193432092666626,12.290543556213379,-7.650827884674072,0.24000000000000007
0.704434871673584,8.889730453491211,-8.488260269165039,0.25000000000000006
-0.04496508836746216,5.603348731994629,-9.244340896606445,0.26000000000000006
0.021502435207366943,3.860051155090332,-9.120649337768555,0.2700000000000001
0.5832141041755676,2.8352677822113037,-9.091205596923828,0.2800000000000001
1.0265836715698242,2.2956860065460205,-9.106328964233398,0.2900000000000001
1.9998492002487183,1.7143831253051758,-9.066603660583496,0.3000000000000001
2.126521348953247,1.8359439373016357,-10.033461570739746,0.3100000000000001
1.8148412704467773,2.483902931213379,-10.381959915161133,0.3200000000000001
1.8863580226898193,2.8579483032226562,-10.243918418884277,0.3300000000000001
2.346679210662842,2.7655975818634033,-10.662492752075195,0.34000000000000014
3.0969016551971436,2.4072439670562744,-11.101884841918945,0.35000000000000014
3.5876941680908203,1.9046432971954346,-11.02499771118164,0.36000000000000015
3.6284594535827637,1.2382583618164062,-11.465714454650879,0.37000000000000016
3.512866497039795,0.7345108985900879,-11.555204391479492,0.38000000000000017
3.0448739528656006,0.5455920696258545,-11.277349472045898,0.3900000000000002
2.3061587810516357,0.3998146057128906,-10.64620590209961,0.4000000000000002
1.336764931678772,0.3957052230834961,-8.964953422546387,0.4100000000000002
0.8544635772705078,0.018877506256103516,-8.124079704284668,0.4200000000000002
0.5592150688171387,-0.6642076969146729,-6.835568428039551,0.4300000000000002
-0.41325831413269043,-1.2476342916488647,-5.0683207511901855,0.4400000000000002
-1.7895305156707764,-1.0533132553100586,-3.5006532669067383,0.45000000000000023
-2.8308823108673096,-0.39328765869140625,-1.788480281829834,0.46000000000000024
-2.84087872505188,0.8750274181365967,-0.4671926498413086,0.47000000000000025
-1.3022916316986084,3.1878445148468018,1.4268207550048828,0.48000000000000026
1.51969313621521,9.52871322631836,6.251110076904297,0.49000000000000027
4.728719711303711,16.054553985595703,9.68950080871582,0.5000000000000002
7.538299560546875,20.64460563659668,9.921327590942383,0.5100000000000002
9.376916885375977,20.523975372314453,5.585842132568359,0.5200000000000002
11.878039360046387,17.36212921142578,1.7211856842041016,0.5300000000000002
13.514522552490234,12.591594696044922,-1.8601398468017578,0.5400000000000003
13.809797286987305,7.067336082458496,-5.46700382232666,0.5500000000000003
13.901639938354492,2.757211685180664,-6.787491798400879,0.5600000000000003
13.14400577545166,0.8780765533447266,-6.939751625061035,0.5700000000000003
9.481037139892578,3.4237632751464844,-8.103605270385742,0.5800000000000003
6.906063079833984,6.872425079345703,-8.670136451721191,0.5900000000000003
5.668676376342773,8.57779598236084,-10.454368591308594,0.6000000000000003
4.641705513000488,9.076939582824707,-12.70213508605957,0.6100000000000003
3.8475165367126465,8.977502822875977,-12.828760147094727,0.6200000000000003
2.5068600177764893,9.476496696472168,-11.483078002929688,0.6300000000000003
0.9793050289154053,9.12502384185791,-11.21473503112793,0.6400000000000003
-0.010206460952758789,7.764930725097656,-11.050280570983887,0.6500000000000004
-0.824519157409668,6.778341770172119,-10.596173286437988,0.6600000000000004
-2.254610538482666,4.4619598388671875,-5.392691135406494,0.6700000000000004
-2.2130205631256104,4.582653522491455,-4.058637619018555,0.6800000000000004
-0.20263051986694336,5.305694103240967,-6.611355304718018,0.6900000000000004
1.165226697921753,5.579411029815674,-8.99660873413086,0.7000000000000004
2.016678810119629,5.559348106384277,-10.112078666687012,0.7100000000000004
2.1329660415649414,5.418309211730957,-10.277276992797852,0.7200000000000004
2.1591172218322754,5.039677143096924,-10.330669403076172,0.7300000000000004
1.7918235063552856,4.701438903808594,-9.862748146057129,0.7400000000000004
1.812326192855835,4.030330181121826,-8.381872177124023,0.7500000000000004
2.968740940093994,2.6321773529052734,-5.847434997558594,0.7600000000000005
3.1036500930786133,2.4142613410949707,-5.477709770202637,0.7700000000000005
2.47166109085083,2.4394688606262207,-7.205495357513428,0.7800000000000005
2.091256856918335,2.3975162506103516,-8.294371604919434,0.7900000000000005
2.7315430641174316,2.159331798553467,-8.402616500854492,0.8000000000000005
4.179720878601074,1.5923056602478027,-7.568525791168213,0.8100000000000005
5.206480026245117,1.2907862663269043,-6.642818450927734,0.8200000000000005
5.858586311340332,1.415567398071289,-5.94982385635376,0.8300000000000005
5.768939971923828,1.7391061782836914,-5.806607246398926,0.8400000000000005
5.435754776000977,2.3090052604675293,-6.063543319702148,0.8500000000000005
5.1068806648254395,2.812044620513916,-6.613357067108154,0.8600000000000005
4.886297225952148,3.328390598297119,-7.265666961669922,0.8700000000000006
4.7407026290893555,3.8508715629577637,-7.949450492858887,0.8800000000000006
4.540339946746826,4.109415054321289,-8.628693580627441,0.8900000000000006
4.298275947570801,4.153331279754639,-9.013484001159668,0.9000000000000006
4.696491241455078,4.194551944732666,-8.47160530090332,0.9100000000000006
5.489790916442871,3.8714866638183594,-7.977287769317627,0.9200000000000006
6.277987480163574,3.5215020179748535,-7.24790620803833,0.9300000000000006
6.6073222160339355,3.250854969024658,-6.4355149269104,0.9400000000000006
5.501457214355469,3.5503010749816895,-5.959663391113281,0.9500000000000006
4.703902244567871,3.795095443725586,-5.73004150390625,0.9600000000000006
4.347638130187988,4.1316962242126465,-5.702261924743652,0.9700000000000006
4.2865800857543945,4.435858726501465,-5.8252458572387695,0.9800000000000006
4.266369342803955,4.797031879425049,-6.062004089355469,0.9900000000000007
4.303625106811523,5.166733741760254,-6.364149570465088,1.0000000000000007
4.501438140869141,5.609028339385986,-5.852967262268066,1.0100000000000007
4.816421985626221,5.9993486404418945,-5.367549419403076,1.0200000000000007
5.096353530883789,6.141874313354492,-5.585122585296631,1.0300000000000007
5.647138595581055,5.8492431640625,-7.118744850158691,1.0400000000000007
6.466493606567383,5.173015594482422,-8.213671684265137,1.0500000000000007
7.196000576019287,4.709014892578125,-8.029304504394531,1.0600000000000007
8.035398483276367,4.549441814422607,-6.5883307456970215,1.0700000000000007
8.472172737121582,4.61971378326416,-5.941141605377197,1.0800000000000007
8.318866729736328,5.209804058074951,-6.37753963470459,1.0900000000000007
7.355152130126953,6.185152053833008,-7.517902374267578,1.1000000000000008
5.304357528686523,7.381993770599365,-8.176156997680664,1.1100000000000008
3.576333999633789,7.146115303039551,-8.277341842651367,1.1200000000000008
3.376121997833252,5.3015289306640625,-8.934473991394043,1.1300000000000008
3.684968948364258,3.4445981979370117,-9.687174797058105,1.1400000000000008
3.462467908859253,2.648530960083008,-9.642892837524414,1.1500000000000008
2.92250394821167,2.801198959350586,-9.370847702026367,1.1600000000000008
2.274606227874756,3.5685744285583496,-8.830522537231445,1.1700000000000008
1.969081163406372,5.1610260009765625,-8.398199081420898,1.1800000000000008
2.096994400024414,6.560075283050537,-8.363778114318848,1.1900000000000008
2.1032440662384033,8.138452529907227,-8.099078178405762,1.2000000000000008
2.3699419498443604,9.587139129638672,-7.752055644989014,1.2100000000000009
2.868412733078003,11.15406322479248,-6.772958278656006,1.2200000000000009
2.605987310409546,12.64730167388916,-5.469020843505859,1.2300000000000009
1.6253714561462402,13.713728904724121,-4.708513259887695,1.2400000000000009
-0.2143716812133789,13.004652976989746,-4.7101945877075195,1.2500000000000009
-1.6962733268737793,11.537519454956055,-5.271543502807617,1.260000000000001
-2.303899049758911,9.423036575317383,-6.4034342765808105,1.270000000000001
-1.7013936042785645,6.924433708190918,-7.168982028961182,1.280000000000001
-0.5165736675262451,5.111878871917725,-6.921590328216553,1.290000000000001
0.677201509475708,3.44161319732666,-6.960142135620117,1.300000000000001
1.3723818063735962,2.125443458557129,-8.372119903564453,1.310000000000001
2.079754590988159,1.7071356773376465,-9.258953094482422,1.320000000000001
2.81748104095459,1.7714436054229736,-8.85827922821045,1.330000000000001
3.1861724853515625,1.6876049041748047,-8.959043502807617,1.340000000000001
4.1228251457214355,1.2107608318328857,-9.919990539550781,1.350000000000001
4.39912223815918,1.1420128345489502,-10.865342140197754,1.360000000000001
4.369378566741943,1.1899011135101318,-10.892897605895996,1.370000000000001
4.875697135925293,1.1686646938323975,-11.525195121765137,1.380000000000001
4.930018424987793,0.9201040267944336,-10.640117645263672,1.390000000000001
4.914738655090332,0.6009707450866699,-9.947707176208496,1.400000000000001
4.6610307693481445,0.25943589210510254,-9.286046981811523,1.410000000000001
4.204290390014648,0.2091381549835205,-8.904292106628418,1.420000000000001
3.5216901302337646,0.3146390914916992,-8.313580513000488,1.430000000000001
3.0767033100128174,0.23697876930236816,-7.505430221557617,1.440000000000001
2.5990099906921387,-0.22957539558410645,-7.017580509185791,1.450000000000001
1.691476583480835,-0.7023005485534668,-6.311398983001709,1.460000000000001
0.7921228408813477,-1.1470606327056885,-5.244601249694824,1.470000000000001
-0.3993198871612549,-1.3583009243011475,-3.2931504249572754,1.480000000000001
-1.6980938911437988,-1.139481782913208,-1.2436299324035645,1.490000000000001
-1.9245109558105469,-0.29329729080200195,0.38876819610595703,1.500000000000001
-0.7491075992584229,1.5517778396606445,1.2789173126220703,1.5100000000000011
0.9317946434020996,4.66481876373291,1.7165813446044922,1.5200000000000011
3.1162242889404297,10.239521026611328,4.906141757965088,1.5300000000000011
6.015347003936768,16.910524368286133,9.237897872924805,1.5400000000000011
8.163269996643066,21.249256134033203,8.597979545593262,1.5500000000000012
9.692132949829102,20.334117889404297,3.3925418853759766,1.5600000000000012
11.496318817138672,16.417240142822266,-0.5926151275634766,1.5700000000000012
12.1055908203125,10.585164070129395,-2.809401512145996,1.5800000000000012
11.189838409423828,5.485994815826416,-3.768906831741333,1.5900000000000012
9.601207733154297,1.4956841468811035,-4.547191619873047,1.6000000000000012
8.197233200073242,-0.10101461410522461,-4.775280952453613,1.6100000000000012
7.010318756103516,1.2552475929260254,-5.229413032531738,1.6200000000000012
6.386983871459961,3.6694984436035156,-5.886045455932617,1.6300000000000012
6.34207820892334,3.682816982269287,-5.915035724639893,1.6400000000000012
4.994832992553711,7.7508344650268555,-12.264781951904297,1.6500000000000012
3.6862411499023438,8.928386688232422,-13.329370498657227,1.6600000000000013
2.3392138481140137,9.63729476928711,-12.689367294311523,1.6700000000000013
0.3715481758117676,9.349544525146484,-12.249488830566406,1.6800000000000013
-0.8994152545928955,7.720039367675781,-12.009410858154297,1.6900000000000013
-1.2213692665100098,6.173660755157471,-11.067817687988281,1.7000000000000013
-0.629666805267334,4.131605625152588,-9.612918853759766,1.7100000000000013
0.13038063049316406,1.3704442977905273,-4.353882312774658,1.7200000000000013
1.660298228263855,1.2651581764221191,-4.070560455322266,1.7300000000000013
1.5247238874435425,2.7104406356811523,-7.575605869293213,1.7400000000000013
1.7131602764129639,3.6543760299682617,-9.980278015136719,1.7500000000000013
2.076343059539795,3.8804335594177246,-10.760682106018066,1.7600000000000013
2.417342185974121,3.999530792236328,-10.669181823730469,1.7700000000000014
2.6263198852539062,4.275388717651367,-10.014892578125,1.7800000000000014
3.4973111152648926,4.297421455383301,-6.48679780960083,1.7900000000000014
4.801594257354736,3.4763426780700684,-2.6943106651306152,1.8000000000000014
4.274597644805908,2.766641139984131,-3.712075710296631,1.8100000000000014
3.2176625728607178,2.396730899810791,-6.815658092498779,1.8200000000000014
2.927861213684082,1.9584879875183105,-8.373863220214844,1.8300000000000014
3.2648112773895264,1.8935766220092773,-8.425193786621094,1.8400000000000014
4.387149810791016,1.605884075164795,-8.057456016540527,1.8500000000000014
5.041540145874023,1.455763339996338,-7.266193866729736,1.8600000000000014
5.453371047973633,1.5067200660705566,-6.787760257720947,1.8700000000000014
5.378171443939209,1.827864170074463,-6.895618915557861,1.8800000000000014
4.770620346069336,2.2462220191955566,-6.660549640655518,1.8900000000000015
4.332561016082764,2.5271949768066406,-6.905220985412598,1.9000000000000015
4.502185821533203,2.6141695976257324,-6.9623517990112305,1.9100000000000015
4.887205600738525,2.5495190620422363,-6.829997539520264,1.9200000000000015
5.0546369552612305,2.482358932495117,-6.855945587158203,1.9300000000000015
4.965683460235596,2.416720390319824,-6.914096832275391,1.9400000000000015
4.772820472717285,2.4823646545410156,-7.086638927459717,1.9500000000000015
5.074643135070801,2.464341163635254,-7.175243854522705,1.9600000000000015
5.38873291015625,2.555117130279541,-6.805605888366699,1.9700000000000015
5.039758205413818,2.9913439750671387,-6.0602641105651855,1.9800000000000015
4.7644524574279785,3.350630760192871,-5.137322902679443,1.9900000000000015
4.606240272521973,3.5849685668945312,-4.494569301605225,2.0000000000000013
4.152847766876221,3.904327869415283,-4.563717365264893,2.010000000000001
3.990417718887329,3.865006923675537,-5.017385482788086,2.020000000000001
3.998248338699341,3.719148635864258,-5.52662467956543,2.0300000000000007
4.021126747131348,3.7707743644714355,-5.67663049697876,2.0400000000000005
4.129444122314453,3.977501392364502,-5.374174118041992,2.0500000000000003
4.442908763885498,4.314560413360596,-5.029764175415039,2.06
4.961493492126465,4.53061056137085,-5.603527069091797,2.07
5.441985130310059,4.38289737701416,-7.345461368560791,2.0799999999999996
6.082459449768066,4.138856887817383,-8.94649887084961,2.0899999999999994
6.764452934265137,4.000790596008301,-8.469439506530762,2.099999999999999
7.668940544128418,4.073041915893555,-6.101095199584961,2.109999999999999
8.454031944274902,4.4184250831604,-4.029380798339844,2.1199999999999988
8.433141708374023,4.672420978546143,-4.002585411071777,2.1299999999999986
6.721447944641113,5.048684120178223,-5.563553810119629,2.1399999999999983
4.421697616577148,5.755918502807617,-7.435455322265625,2.149999999999998
3.0703585147857666,6.427830219268799,-7.42911958694458,2.159999999999998
2.488748788833618,6.477229595184326,-7.002328872680664,2.1699999999999977
2.5710854530334473,5.669646739959717,-7.433138847351074,2.1799999999999975
3.162682294845581,4.393444538116455,-8.246793746948242,2.1899999999999973
3.3000905513763428,3.2270236015319824,-8.452495574951172,2.199999999999997
2.800687074661255,2.4115214347839355,-8.237569808959961,2.209999999999997
2.202329397201538,2.0523157119750977,-8.095109939575195,2.2199999999999966
1.3480651378631592,2.5084290504455566,-8.216876983642578,2.2299999999999964
0.8331854343414307,4.013073444366455,-8.231303215026855,2.239999999999996
1.3400425910949707,5.667463779449463,-7.95813512802124,2.249999999999996
1.9847513437271118,6.991878032684326,-7.564104080200195,2.259999999999996
2.8391785621643066,8.284872055053711,-6.702475547790527,2.2699999999999956
2.9787259101867676,9.448810577392578,-6.144065856933594,2.2799999999999954
2.514697551727295,11.348010063171387,-4.773606777191162,2.289999999999995
1.2709627151489258,12.836872100830078,-3.8639144897460938,2.299999999999995
0.34606504440307617,12.418943405151367,-4.405825614929199,2.3099999999999947
0.18989062309265137,10.441109657287598,-5.110721111297607,2.3199999999999945
0.3538879156112671,7.878612518310547,-6.402035236358643,2.3299999999999943
0.7819210886955261,5.740264892578125,-7.002039432525635,2.339999999999994
1.0754022598266602,3.959040641784668,-7.419633388519287,2.349999999999994
1.1123325824737549,2.3650918006896973,-7.9651408195495605,2.3599999999999937
1.2872430086135864,1.595536231994629,-8.916007995605469,2.3699999999999934
1.472883939743042,1.2687020301818848,-9.170905113220215,2.3799999999999932
2.711674213409424,1.033167839050293,-8.9115629196167,2.389999999999993
3.2679457664489746,1.076324462890625,-8.500405311584473,2.399999999999993
3.517514705657959,0.9755415916442871,-8.937186241149902,2.4099999999999926
3.596109628677368,0.8569674491882324,-10.113216400146484,2.4199999999999924
3.7003512382507324,0.7433571815490723,-10.737691879272461,2.429999999999992
3.891589641571045,0.7449030876159668,-10.198081016540527,2.439999999999992
3.6891062259674072,0.5276226997375488,-9.802093505859375,2.4499999999999917
3.558706760406494,0.33621931076049805,-9.304269790649414,2.4599999999999915
3.4896583557128906,0.19536447525024414,-9.036805152893066,2.4699999999999913
3.219900131225586,-0.032593727111816406,-8.841796875,2.479999999999991
2.837287425994873,-0.009345054626464844,-8.383305549621582,2.489999999999991
2.240088939666748,-0.12879562377929688,-7.346410751342773,2.4999999999999907
1.4998655319213867,-0.5530185699462891,-7.045880317687988,2.5099999999999905
1.0027515888214111,-1.0091190338134766,-6.846372127532959,2.5199999999999902
0.14479970932006836,-1.5025300979614258,-6.007663249969482,2.52999999999999
-0.5648655891418457,-1.732313871383667,-4.3998799324035645,2.53999999999999
-1.927950382232666,-1.4790589809417725,-2.0875515937805176,2.5499999999999896
-2.229377031326294,-0.47405195236206055,0.3647584915161133,2.5599999999999894
-0.48282814025878906,0.946070671081543,1.9023733139038086,2.569999999999989
1.208421230316162,3.7464823722839355,2.750906467437744,2.579999999999989
2.79826283454895,9.556924819946289,5.264719486236572,2.5899999999999888
5.72901725769043,16.528274536132812,8.395040512084961,2.5999999999999885
7.753796100616455,20.55043601989746,8.803751945495605,2.6099999999999883
9.861112594604492,19.568470001220703,3.448406219482422,2.619999999999988
12.078396797180176,14.542304039001465,-0.9760799407958984,2.629999999999988
12.18104076385498,9.103313446044922,-2.8123836517333984,2.6399999999999877
11.02197265625,3.6795105934143066,-4.043401718139648,2.6499999999999875
9.748141288757324,-0.19726085662841797,-5.291879653930664,2.6599999999999873
8.296307563781738,-3.102710723876953,-6.841518402099609,2.669999999999987
6.27997350692749,-2.8510632514953613,-6.444360256195068,2.679999999999987
5.49981689453125,-0.14842557907104492,-7.140403747558594,2.6899999999999866
5.224836349487305,2.161560535430908,-9.140254020690918,2.6999999999999864
4.804255485534668,5.519266605377197,-12.257384300231934,2.709999999999986
3.8062493801116943,7.872436046600342,-12.459003448486328,2.719999999999986
3.9055817127227783,7.811227321624756,-12.373396873474121,2.7299999999999858
0.8999898433685303,10.215147018432617,-11.327795028686523,2.7399999999999856
-0.7795314788818359,9.89389419555664,-10.820690155029297,2.7499999999999853
-2.0392634868621826,9.060211181640625,-10.243146896362305,2.759999999999985
-2.9029078483581543,7.758091926574707,-9.431831359863281,2.769999999999985
-4.111248970031738,4.76244592666626,-0.3043818473815918,2.7799999999999847
-2.1121346950531006,2.825593948364258,-1.3509631156921387,2.7899999999999845
-0.2221992015838623,2.776679039001465,-7.360098838806152,2.7999999999999843
1.2829771041870117,3.0396852493286133,-11.079086303710938,2.809999999999984
1.861558437347412,3.1393041610717773,-11.691036224365234,2.819999999999984
2.3609378337860107,3.03627347946167,-11.368611335754395,2.8299999999999836
2.1166787147521973,2.9445834159851074,-10.392444610595703,2.8399999999999834
2.232715129852295,2.4476394653320312,-7.759461402893066,2.849999999999983
2.8912863731384277,1.4885749816894531,-4.8889594078063965,2.859999999999983
2.232799768447876,1.0757098197937012,-5.006461143493652,2.869999999999983
1.362960696220398,1.1988983154296875,-6.937971115112305,2.8799999999999826
0.8918101787567139,1.333728313446045,-8.639960289001465,2.8899999999999824
1.6405181884765625,1.0418710708618164,-8.620357513427734,2.899999999999982
3.053779125213623,0.7502932548522949,-7.496110439300537,2.909999999999982
4.669321537017822,0.4896993637084961,-5.813863754272461,2.9199999999999817
5.399181842803955,0.46468448638916016,-5.197774887084961,2.9299999999999815
5.404930591583252,0.9993138313293457,-4.99155330657959,2.9399999999999813
4.9080376625061035,1.8417773246765137,-5.101786136627197,2.949999999999981
4.6263322830200195,2.281928062438965,-5.542209625244141,2.959999999999981
4.613849639892578,2.533527374267578,-6.290503025054932,2.9699999999999807
4.664151191711426,2.6985063552856445,-6.539955139160156,2.9799999999999804
4.78084135055542,2.721372604370117,-6.778120040893555,2.9899999999999802
4.6031389236450195,2.7135252952575684,-7.37649393081665,2.99999999999998
4.68621301651001,2.6143789291381836,-7.4497809410095215,3.00999999999998
5.168159484863281,2.338268280029297,-6.797124862670898,3.0199999999999796
5.211292266845703,2.3369674682617188,-6.12316370010376,3.0299999999999794
4.455691814422607,2.6283416748046875,-5.550430774688721,3.039999999999979
3.8440845012664795,2.8020033836364746,-5.016566753387451,3.049999999999979
3.400468111038208,2.9880003929138184,-4.476486682891846,3.0599999999999787
3.173737049102783,3.319131851196289,-4.194042205810547,3.0699999999999785
3.3955633640289307,3.6173524856567383,-4.329527854919434,3.0799999999999783
3.639892101287842,3.708536148071289,-4.5992021560668945,3.089999999999978
3.8355929851531982,3.592437744140625,-4.705191612243652,3.099999999999978
4.16012716293335,3.6085329055786133,-4.177689552307129,3.1099999999999777
4.449183464050293,3.7555856704711914,-4.0241923332214355,3.1199999999999775
4.691914081573486,4.0048675537109375,-5.123955249786377,3.1299999999999772
5.3070268630981445,4.10076379776001,-6.613860130310059,3.139999999999977
6.007150650024414,3.982330322265625,-7.628828048706055,3.149999999999977
6.902531147003174,3.6746835708618164,-7.377317428588867,3.1599999999999766
7.7071428298950195,3.524998664855957,-5.401077747344971,3.1699999999999764
8.033053398132324,3.849079132080078,-4.386704921722412,3.179999999999976
7.991670608520508,4.469716548919678,-5.017510890960693,3.189999999999976
6.942628860473633,5.239770412445068,-6.593240737915039,3.1999999999999758
5.0260701179504395,6.145371437072754,-7.463369369506836,3.2099999999999755
3.6783294677734375,5.562270641326904,-7.815040111541748,3.2199999999999753
3.160475730895996,3.8970494270324707,-8.314577102661133,3.229999999999975
3.1892056465148926,2.51883602142334,-8.775588989257812,3.239999999999975
2.896696090698242,1.7578654289245605,-8.833362579345703,3.2499999999999747
2.141669750213623,2.0638318061828613,-8.403327941894531,3.2599999999999745
1.2004419565200806,3.0231714248657227,-7.102764129638672,3.2699999999999743
0.6696367263793945,4.585610389709473,-6.397092819213867,3.279999999999974
0.6713595390319824,6.158753871917725,-6.519352912902832,3.289999999999974
0.9516596794128418,7.338170051574707,-6.543606281280518,3.2999999999999736
1.4014461040496826,8.900609970092773,-6.708432197570801,3.3099999999999734
1.691122055053711,10.689668655395508,-6.418973922729492,3.319999999999973
1.7711986303329468,11.999290466308594,-5.431572914123535,3.329999999999973
1.3435420989990234,13.107606887817383,-4.499212741851807,3.3399999999999728
-0.7323945760726929,13.077205657958984,-4.493538856506348,3.3499999999999726
-2.0224497318267822,10.876981735229492,-5.010976314544678,3.3599999999999723
-2.1420674324035645,8.105566024780273,-5.764052391052246,3.369999999999972
-1.5091047286987305,5.699284553527832,-6.202517986297607,3.379999999999972
-0.9017654657363892,3.826681137084961,-6.816943645477295,3.3899999999999717
-0.22313982248306274,2.1780219078063965,-7.451825141906738,3.3999999999999715
0.664171040058136,1.0364203453063965,-7.831663131713867,3.4099999999999713
1.115308403968811,0.5277190208435059,-8.738483428955078,3.419999999999971
1.2444469928741455,0.5047874450683594,-9.670354843139648,3.429999999999971
2.4263343811035156,0.3199458122253418,-9.125452041625977,3.4399999999999706
3.36154842376709,0.3800015449523926,-8.666293144226074,3.4499999999999704
3.7469329833984375,0.03727436065673828,-9.811546325683594,3.45999999999997
3.974111795425415,-0.3149099349975586,-10.966809272766113,3.46999999999997
4.053318977355957,-0.4405360221862793,-10.57852554321289,3.47999999999997
4.137698650360107,-0.7959756851196289,-10.079492568969727,3.4899999999999696
3.9527783393859863,-1.050746202468872,-9.590408325195312,3.4999999999999694
3.7460649013519287,-0.9194643497467041,-9.191757202148438,3.509999999999969
3.6230807304382324,-0.7203145027160645,-8.779747009277344,3.519999999999969
3.0793070793151855,-0.3978395462036133,-8.162580490112305,3.5299999999999687
2.443711280822754,-0.3044095039367676,-7.264861106872559,3.5399999999999685
1.481094479560852,-0.5337481498718262,-6.640405654907227,3.5499999999999683
0.6819922924041748,-0.796736478805542,-6.228739261627197,3.559999999999968
-0.20456886291503906,-1.1901426315307617,-5.568513870239258,3.569999999999968
-1.254528284072876,-1.5255749225616455,-3.8835134506225586,3.5799999999999677
-2.660189390182495,-1.5459332466125488,-1.2196812629699707,3.5899999999999674
-3.285066604614258,-1.2653260231018066,0.886805534362793,3.5999999999999672
-2.745973587036133,-0.46966123580932617,1.8504524230957031,3.609999999999967
-1.1606438159942627,1.2536158561706543,1.6900238990783691,3.619999999999967
0.6312110424041748,4.942592620849609,1.7300629615783691,3.6299999999999666
3.066922426223755,11.509040832519531,5.536191463470459,3.6399999999999664
5.741303443908691,18.084030151367188,7.556336879730225,3.649999999999966
7.320948600769043,20.007747650146484,6.298746109008789,3.659999999999966
9.746652603149414,18.067577362060547,2.496899127960205,3.6699999999999657
11.52275276184082,11.670228958129883,-1.090855598449707,3.6799999999999655
11.3547945022583,5.747230529785156,-3.4604315757751465,3.6899999999999653
10.419005393981934,1.0213346481323242,-5.114158630371094,3.699999999999965
9.462529182434082,-2.613140344619751,-6.071351528167725,3.709999999999965
9.09512710571289,-4.331218719482422,-6.011627674102783,3.7199999999999647
7.438192367553711,-2.807105302810669,-6.132915019989014,3.7299999999999645
6.128785133361816,0.424375057220459,-7.5366435050964355,3.7399999999999642
4.975189685821533,3.8982043266296387,-10.574243545532227,3.749999999999964
4.15482234954834,6.734961032867432,-11.808450698852539,3.759999999999964
3.158357858657837,9.83112907409668,-11.093974113464355,3.7699999999999636
0.37706780433654785,11.581008911132812,-10.437687873840332,3.7799999999999634
-2.5108680725097656,11.619085311889648,-10.747093200683594,3.789999999999963
-4.53041934967041,10.37246322631836,-10.755615234375,3.799999999999963
-5.269753456115723,8.078554153442383,-9.898677825927734,3.8099999999999627
-2.6979403495788574,3.097930908203125,-2.992910861968994,3.8199999999999625
0.6361980438232422,1.5021147727966309,-5.945453643798828,3.8299999999999623
1.7900667190551758,1.5558795928955078,-9.600179672241211,3.839999999999962
2.196166515350342,1.7220239639282227,-10.99866008758545,3.849999999999962
2.6499030590057373,1.5925092697143555,-10.879196166992188,3.8599999999999617
2.641345262527466,1.474043369293213,-10.263517379760742,3.8699999999999615
1.80696439743042,1.818803310394287,-9.145246505737305,3.8799999999999613
1.827390432357788,1.9281196594238281,-5.7107086181640625,3.889999999999961
2.5368494987487793,1.3428120613098145,-3.3031466007232666,3.899999999999961
2.363170862197876,1.1262359619140625,-3.4703288078308105,3.9099999999999606
1.7268872261047363,1.1348567008972168,-6.2716193199157715,3.9199999999999604
1.5345737934112549,0.8825740814208984,-7.629500865936279,3.92999999999996
1.7866767644882202,1.3409123420715332,-8.213555335998535,3.93999999999996
3.1760413646698,0.8259267807006836,-7.096266269683838,3.9499999999999598
4.427106857299805,0.5191998481750488,-5.324677467346191,3.9599999999999596
5.166908264160156,0.6744856834411621,-4.6758646965026855,3.9699999999999593
4.913381576538086,1.0899381637573242,-4.912312984466553,3.979999999999959
4.586034297943115,1.5034942626953125,-4.953857421875,3.989999999999959
4.2859787940979,1.7900876998901367,-5.228172302246094,3.9999999999999587
