AccX,AccY,AccZ,SampleRate
1.4811930656433105,-10.278827667236328,1.8681747913360596,0.01
1.2436150312423706,-10.142434120178223,1.604819893836975,0.02
0.499803364276886,-9.613471984863281,1.9356374740600586,0.03
-0.466613233089447,-8.809919357299805,2.6527514457702637,0.04
-1.5919944047927856,-7.8804545402526855,3.3942174911499023,0.05
-2.4724526405334473,-6.772470474243164,4.103315830230713,0.060000000000000005
-3.4242568016052246,-5.313679218292236,4.877389907836914,0.07
-4.029109954833984,-3.434880256652832,5.4453840255737305,0.08
-4.430769443511963,-1.2439804077148438,5.581711292266846,0.09
-4.888609409332275,1.077239990234375,5.534824371337891,0.09999999999999999
-5.106601238250732,3.098687171936035,5.579179286956787,0.10999999999999999
-4.606451511383057,4.756697654724121,5.371543884277344,0.11999999999999998
-3.571744680404663,5.714982032775879,4.89603328704834,0.12999999999999998
-2.3423497676849365,6.089391708374023,4.169620037078857,0.13999999999999999
-0.6410322189331055,6.127065658569336,3.2089343070983887,0.15
0.6739165782928467,5.281039237976074,2.586002826690674,0.16
1.7354354858398438,3.887289047241211,2.1308465003967285,0.17
1.7830829620361328,2.042107582092285,1.6806976795196533,0.18000000000000002
1.400202989578247,0.1931629180908203,1.3890178203582764,0.19000000000000003
1.625375509262085,-1.4729318618774414,1.2113547325134277,0.20000000000000004
1.7815194129943848,-2.509232521057129,0.952608048915863,0.21000000000000005
2.113274097442627,-3.0361452102661133,0.646994948387146,0.22000000000000006
2.1286139488220215,-3.422677993774414,0.2709394693374634,0.23000000000000007
2.005946159362793,-3.6237707138061523,0.010854661464691162,0.24000000000000007
1.9672565460205078,-3.9124202728271484,-0.1650523543357849,0.25000000000000006
1.82763671875,-4.025681018829346,-0.2861454486846924,0.26000000000000006
1.6986011266708374,-3.85396146774292,-0.2020862102508545,0.2700000000000001
1.418889045715332,-3.546027660369873,-0.1950845718383789,0.2800000000000001
1.293874979019165,-3.128476619720459,-0.03959488868713379,0.2900000000000001
1.0688856840133667,-2.8814101219177246,-0.07797282934188843,0.3000000000000001
0.5678461790084839,-2.422292709350586,-0.08772140741348267,0.3100000000000001
0.056220054626464844,-2.569308280944824,-0.0988185703754425,0.3200000000000001
-0.3787475824356079,-2.441725254058838,0.11503654718399048,0.3300000000000001
-0.8314434289932251,-1.853257656097412,0.07726562023162842,0.34000000000000014
-1.0246977806091309,-1.1318321228027344,0.06554171442985535,0.35000000000000014
-1.2696764469146729,-0.5403690338134766,0.046854257583618164,0.36000000000000015
-1.777031421661377,-0.2913179397583008,-0.4430311322212219,0.37000000000000016
-2.0908000469207764,-0.19762134552001953,-0.5044769048690796,0.38000000000000017
-2.590987205505371,-0.605778694152832,-1.0715653896331787,0.3900000000000002
-3.3383333683013916,-0.9916257858276367,-1.6495609283447266,0.4000000000000002
-3.2114741802215576,-1.3408517837524414,-1.3271807432174683,0.4100000000000002
-3.062537670135498,-1.9953885078430176,-1.3566019535064697,0.4200000000000002
-3.163414478302002,-2.271113395690918,-1.4172285795211792,0.4300000000000002
-2.840540885925293,-2.921751022338867,-1.4016932249069214,0.4400000000000002
-2.5685811042785645,-3.25103759765625,-1.2255247831344604,0.45000000000000023
-2.276437997817993,-3.364607810974121,-1.1779060363769531,0.46000000000000024
-2.019045352935791,-3.4754819869995117,-1.3903342485427856,0.47000000000000025
-1.965996265411377,-3.337339401245117,-1.4265682697296143,0.48000000000000026
-1.9491238594055176,-2.8332910537719727,-1.402835726737976,0.49000000000000027
-1.862441062927246,-2.5901851654052734,-1.4650450944900513,0.5000000000000002
-1.9491758346557617,-2.0242204666137695,-1.4404563903808594,0.5100000000000002
-1.9884161949157715,-1.4227123260498047,-1.4841229915618896,0.5200000000000002
-1.9965589046478271,-0.976994514465332,-1.6101148128509521,0.5300000000000002
-1.9209816455841064,-0.5793018341064453,-1.7081794738769531,0.5400000000000003
-1.8478801250457764,-0.33960819244384766,-1.8834080696105957,0.5500000000000003
-1.3341038227081299,-0.2936229705810547,-1.4893304109573364,0.5600000000000003
-1.3422613143920898,-0.11597633361816406,-1.5025811195373535,0.5700000000000003
-1.3298155069351196,-0.5958347320556641,-1.6396996974945068,0.5800000000000003
-1.1991169452667236,-0.6779155731201172,-1.5466508865356445,0.5900000000000003
-1.1992197036743164,-0.5229778289794922,-1.4193415641784668,0.6000000000000003
-1.0762760639190674,-0.7074871063232422,-1.5716805458068848,0.6100000000000003
-1.1942849159240723,-0.566319465637207,-1.6158156394958496,0.6200000000000003
-1.2061725854873657,-0.209930419921875,-1.493890643119812,0.6300000000000003
-1.3608136177062988,-0.03313732147216797,-1.5813815593719482,0.6400000000000003
-1.3226721286773682,0.3444051742553711,-1.5880069732666016,0.6500000000000004
-1.1439858675003052,0.48253536224365234,-1.6505560874938965,0.6600000000000004
-1.1929248571395874,0.5203075408935547,-1.7958087921142578,0.6700000000000004
-1.1747658252716064,0.8594427108764648,-1.647491693496704,0.6800000000000004
-1.060128092765808,1.0141220092773438,-1.7724190950393677,0.6900000000000004
-1.0084736347198486,1.5057086944580078,-1.6315298080444336,0.7000000000000004
-0.7200959920883179,1.2913618087768555,-1.831064224243164,0.7100000000000004
-0.7473976612091064,1.2111997604370117,-1.8780285120010376,0.7200000000000004
-0.7020575404167175,1.248185157775879,-1.690759301185608,0.7300000000000004
-0.7041279077529907,1.0124826431274414,-2.1549453735351562,0.7400000000000004
-0.772247314453125,1.0041570663452148,-2.181973457336426,0.7500000000000004
-0.8708118796348572,0.7162361145019531,-2.658630847930908,0.7600000000000005
-1.2162392139434814,1.0049858093261719,-2.7278404235839844,0.7700000000000005
-1.3730354309082031,1.374617576599121,-2.721928119659424,0.7800000000000005
-1.3483068943023682,1.5835590362548828,-2.830167293548584,0.7900000000000005
-1.5692110061645508,2.2106447219848633,-2.884970188140869,0.8000000000000005
-1.442566156387329,2.3634395599365234,-3.1038718223571777,0.8100000000000005
-1.230118751525879,2.652181625366211,-3.1083900928497314,0.8200000000000005
-1.0598114728927612,2.942690849304199,-3.1803503036499023,0.8300000000000005
-0.4605811834335327,2.739933967590332,-3.190180778503418,0.8400000000000005
-0.13936711847782135,2.876558303833008,-3.0251247882843018,0.8500000000000005
0.6383970975875854,2.7209415435791016,-2.876984119415283,0.8600000000000005
0.9636619091033936,2.5986719131469727,-2.5832901000976562,0.8700000000000006
1.252695918083191,2.253870964050293,-2.0246520042419434,0.8800000000000006
1.207282304763794,2.035837173461914,-1.3707499504089355,0.8900000000000006
1.16057550907135,1.8151817321777344,-0.6402798891067505,0.9000000000000006
0.951104998588562,1.907236099243164,0.28521084785461426,0.9100000000000006
0.8054153323173523,1.9813728332519531,1.1459064483642578,0.9200000000000006
0.36195501685142517,2.0517969131469727,2.0073742866516113,0.9300000000000006
0.08328726887702942,2.1302871704101562,2.6791861057281494,0.9400000000000006
-0.0046881139278411865,2.2811927795410156,3.2650651931762695,0.9500000000000006
-0.71541827917099,2.444652557373047,3.75341796875,0.9600000000000006
-1.129193902015686,2.6756534576416016,4.096667766571045,0.9700000000000006
-1.816175937652588,2.9285659790039062,4.75721549987793,0.9800000000000006
-2.985574245452881,2.9522104263305664,5.482275009155273,0.9900000000000007
-3.8522326946258545,2.6704578399658203,5.664237976074219,1.0000000000000007
-4.3624396324157715,1.9694576263427734,5.109566688537598,1.0100000000000007
-4.602122783660889,1.816218376159668,4.830930709838867,1.0200000000000007
-4.262905120849609,2.478287696838379,4.985217571258545,1.0300000000000007
-3.026815891265869,3.163760185241699,5.217660903930664,1.0400000000000007
-0.917617917060852,3.6053409576416016,5.180628299713135,1.0500000000000007
1.0190095901489258,3.9663171768188477,4.8378705978393555,1.0600000000000007
2.723228693008423,4.318799018859863,4.4380106925964355,1.0700000000000007
3.9454755783081055,4.734643936157227,4.093677520751953,1.0800000000000007
4.543855667114258,5.132473945617676,3.769075870513916,1.0900000000000007
4.509137153625488,5.378368377685547,3.076265811920166,1.1000000000000008
4.361944198608398,5.630282402038574,2.4615864753723145,1.1100000000000008
4.058592796325684,5.775724411010742,2.1507933139801025,1.1200000000000008
3.64939284324646,5.695101737976074,2.3131861686706543,1.1300000000000008
3.1323630809783936,5.541572570800781,2.6354823112487793,1.1400000000000008
2.5469229221343994,5.250604629516602,2.7110884189605713,1.1500000000000008
2.1145987510681152,4.984963417053223,2.4344890117645264,1.1600000000000008
1.8945813179016113,4.639444351196289,1.8963603973388672,1.1700000000000008
1.9027094841003418,4.5585126876831055,1.3648380041122437,1.1800000000000008
2.010995864868164,4.344953536987305,0.7705032825469971,1.1900000000000008
2.001936912536621,4.180635452270508,0.17560270428657532,1.2000000000000008
1.9162497520446777,3.8669891357421875,-0.45830434560775757,1.2100000000000009
1.7152819633483887,3.3658790588378906,-0.8632127046585083,1.2200000000000009
1.4315861463546753,2.3881406784057617,-0.8665979504585266,1.2300000000000009
1.132202386856079,1.556117057800293,-0.48702967166900635,1.2400000000000009
0.8513792157173157,0.4226675033569336,-0.2617408037185669,1.2500000000000009
0.79475337266922,0.0116119384765625,0.11792212724685669,1.260000000000001
0.7250099182128906,-0.5650815963745117,0.47442686557769775,1.270000000000001
0.5748922824859619,-0.7645034790039062,0.768915057182312,1.280000000000001
0.40421262383461,-1.007948875427246,1.0325801372528076,1.290000000000001
0.2603362202644348,-1.3862762451171875,1.3011987209320068,1.300000000000001
-0.16573703289031982,-1.6961250305175781,1.3547241687774658,1.310000000000001
-0.723439633846283,-2.0739288330078125,1.382199764251709,1.320000000000001
-0.5850318670272827,-2.1658425331115723,1.2895530462265015,1.330000000000001
-0.7559347748756409,-2.1062469482421875,1.2917847633361816,1.340000000000001
-0.8805062770843506,-2.1273465156555176,1.5874872207641602,1.350000000000001
-1.4125120639801025,-2.2603955268859863,1.8030071258544922,1.360000000000001
-1.512846827507019,-2.479234218597412,2.1456451416015625,1.370000000000001
-1.4379997253417969,-2.7721433639526367,2.2505862712860107,1.380000000000001
-1.7360917329788208,-3.299687385559082,2.2075700759887695,1.390000000000001
-2.3951010704040527,-4.0620527267456055,2.1827876567840576,1.400000000000001
-2.473560333251953,-4.561951160430908,1.8496466875076294,1.410000000000001
-2.02255916595459,-4.811629772186279,1.853997826576233,1.420000000000001
-1.9262398481369019,-4.993095874786377,1.8489134311676025,1.430000000000001
-1.345733642578125,-4.926990985870361,1.84914231300354,1.440000000000001
-0.849598228931427,-4.68517541885376,1.757363200187683,1.450000000000001
0.1495041847229004,-4.250857353210449,1.8615403175354004,1.460000000000001
0.4217386841773987,-4.071182727813721,1.94016432762146,1.470000000000001
0.5297902822494507,-4.02366828918457,2.003793954849243,1.480000000000001
0.9118343591690063,-4.165413856506348,1.9644641876220703,1.490000000000001
1.1349091529846191,-4.048893451690674,1.9950616359710693,1.500000000000001
1.323699712753296,-4.054667949676514,1.8085139989852905,1.5100000000000011
1.1837384700775146,-4.295032978057861,1.6489707231521606,1.5200000000000011
1.2150895595550537,-4.480427265167236,1.5809201002120972,1.5300000000000011
1.1807408332824707,-4.756843090057373,1.5946072340011597,1.5400000000000011
1.2218955755233765,-4.8612871170043945,1.5676686763763428,1.5500000000000012
1.2882734537124634,-4.942404747009277,1.4758203029632568,1.5600000000000012
1.398937463760376,-4.885644912719727,1.3569682836532593,1.5700000000000012
1.407827377319336,-4.897031784057617,1.213038682937622,1.5800000000000012
1.41562020778656,-4.869077682495117,1.0866494178771973,1.5900000000000012
1.4629939794540405,-4.859415054321289,0.9414575099945068,1.6000000000000012
1.5093104839324951,-4.817908763885498,0.8203186988830566,1.6100000000000012
1.5403333902359009,-4.761413097381592,0.696746826171875,1.6200000000000012
1.5826878547668457,-4.773684024810791,0.5730288028717041,1.6300000000000012
1.6557459831237793,-4.701637268066406,0.42755842208862305,1.6400000000000012
1.656855583190918,-4.375657081604004,0.29369163513183594,1.6500000000000012
1.6291821002960205,-4.544321537017822,0.12398838996887207,1.6600000000000013
1.5056742429733276,-4.360401630401611,0.06474947929382324,1.6700000000000013
1.4037154912948608,-4.178197860717773,-0.1400306224822998,1.6800000000000013
1.1772563457489014,-4.016608715057373,-0.2791924476623535,1.6900000000000013
0.9864552617073059,-3.851591110229492,-0.47217631340026855,1.7000000000000013
0.8098994493484497,-3.644718647003174,-0.6037559509277344,1.7100000000000013
0.33834683895111084,-3.4147567749023438,-0.4887537956237793,1.7200000000000013
-0.026679813861846924,-3.0849084854125977,-0.6096184253692627,1.7300000000000013
-0.20148193836212158,-2.6741867065429688,-0.8242852687835693,1.7400000000000013
-0.38489484786987305,-2.1871728897094727,-0.9619505405426025,1.7500000000000013
-0.4763709604740143,-1.6116628646850586,-1.0431129932403564,1.7600000000000013
-0.39197027683258057,-0.9833307266235352,-1.0931146144866943,1.7700000000000014
-0.286945104598999,-0.29957103729248047,-1.1348752975463867,1.7800000000000014
-0.12538301944732666,0.3513460159301758,-1.145873785018921,1.7900000000000014
0.10459736734628677,0.9720067977905273,-1.204378366470337,1.8000000000000014
0.4223945140838623,1.6725177764892578,-1.2764651775360107,1.8100000000000014
0.7107976675033569,2.3834638595581055,-1.3499701023101807,1.8200000000000014
0.9533337950706482,2.9541549682617188,-1.5469017028808594,1.8300000000000014
1.0354504585266113,3.573465347290039,-2.018419027328491,1.8400000000000014
0.9408911466598511,4.147735595703125,-2.684117078781128,1.8500000000000014
0.8858641386032104,4.774609565734863,-3.571712017059326,1.8600000000000014
0.4995887577533722,5.221578598022461,-4.486686706542969,1.8700000000000014
0.08289150893688202,5.469030380249023,-5.641873359680176,1.8800000000000014
0.19738255441188812,5.621593475341797,-6.642948150634766,1.8900000000000015
-0.030171096324920654,5.327336311340332,-7.137955665588379,1.9000000000000015
-0.5231688022613525,4.689289093017578,-7.494261264801025,1.9100000000000015
-0.5382122993469238,3.865682601928711,-7.582948684692383,1.9200000000000015
-1.2017252445220947,2.45778751373291,-7.132699966430664,1.9300000000000015
-1.8187625408172607,1.1170434951782227,-6.953432083129883,1.9400000000000015
-1.7531455755233765,-0.09658432006835938,-6.647024154663086,1.9500000000000015
-1.8934818506240845,-1.1853418350219727,-6.375119209289551,1.9600000000000015
-2.964046001434326,-2.4503960609436035,-6.136374473571777,1.9700000000000015
-3.1030611991882324,-3.451144218444824,-5.7548322677612305,1.9800000000000015
-3.3036282062530518,-4.198671817779541,-3.695974111557007,1.9900000000000015
-3.3377676010131836,-4.632498741149902,-1.646211862564087,2.0000000000000013
-2.8690671920776367,-4.6637654304504395,-0.011583566665649414,2.010000000000001
-2.096867322921753,-4.184556007385254,1.787719964981079,2.020000000000001
-1.093316912651062,-3.3506317138671875,2.5018692016601562,2.0300000000000007
-0.10240542888641357,-2.234259605407715,3.009028196334839,2.0400000000000005
1.0167509317398071,-0.9150543212890625,3.6496200561523438,2.0500000000000003
2.0528111457824707,0.8619899749755859,4.344339370727539,2.06
2.837833881378174,3.31805419921875,5.207676887512207,2.07
3.561325788497925,6.8151655197143555,5.957408905029297,2.0799999999999996
3.9718387126922607,11.693138122558594,6.27033805847168,2.0899999999999994
3.9087278842926025,18.550735473632812,6.450518608093262,2.099999999999999
4.267488956451416,25.106853485107422,5.05647087097168,2.109999999999999
3.595386028289795,29.52103042602539,4.073247909545898,2.1199999999999988
3.379978656768799,30.04629898071289,4.171051979064941,2.1299999999999986
5.361961841583252,25.014476776123047,5.558289051055908,2.1399999999999983
5.233964920043945,17.091888427734375,8.355491638183594,2.149999999999998
2.7580349445343018,10.220476150512695,9.415485382080078,2.159999999999998
1.290622353553772,4.980330467224121,8.023321151733398,2.1699999999999977
0.8447147607803345,0.9189062118530273,5.104175567626953,2.1799999999999975
0.8046451807022095,-2.040668487548828,1.9988025426864624,2.1899999999999973
1.1235932111740112,-4.455112934112549,0.6612899303436279,2.199999999999997
1.7633576393127441,-6.432530403137207,0.8947662115097046,2.209999999999997
2.2510268688201904,-7.681595802307129,0.945730447769165,2.2199999999999966
2.6373682022094727,-8.284457206726074,0.9345577955245972,2.2299999999999964
2.79902982711792,-8.686652183532715,1.2944352626800537,2.239999999999996
2.8671505451202393,-8.833598136901855,1.9335129261016846,2.249999999999996
2.010631561279297,-8.702128410339355,1.911864161491394,2.259999999999996
1.2914414405822754,-8.570283889770508,1.9769201278686523,2.2699999999999956
0.7137486934661865,-8.459802627563477,2.074671983718872,2.2799999999999954
0.18544147908687592,-8.218059539794922,2.2027928829193115,2.289999999999995
-0.33285418152809143,-7.972454071044922,2.3969779014587402,2.299999999999995
-1.226309061050415,-7.5943732261657715,2.769465446472168,2.3099999999999947
-2.2245326042175293,-7.089159965515137,3.3445334434509277,2.3199999999999945
-3.253192186355591,-6.428668975830078,3.972031831741333,2.3299999999999943
-3.973554849624634,-5.348058223724365,4.509249687194824,2.339999999999994
-4.0868730545043945,-3.9581313133239746,5.074496269226074,2.349999999999994
-4.100640773773193,-1.9868464469909668,5.515984058380127,2.3599999999999937
-4.033573150634766,0.12289047241210938,5.986942291259766,2.3699999999999934
-3.9540247917175293,2.0173768997192383,6.255948543548584,2.3799999999999932
-4.006734848022461,3.6018381118774414,6.327178955078125,2.389999999999993
-3.821866989135742,4.643043518066406,6.212538719177246,2.399999999999993
-2.931230068206787,5.391037940979004,5.88333797454834,2.4099999999999926
-1.3164570331573486,5.8850812911987305,5.267788887023926,2.4199999999999924
0.38959670066833496,5.652627944946289,4.595609188079834,2.429999999999992
1.890387773513794,4.7309160232543945,3.8523917198181152,2.439999999999992
2.825985908508301,3.3004608154296875,3.1361687183380127,2.4499999999999917
2.9001243114471436,1.665635108947754,2.5848677158355713,2.4599999999999915
2.74053955078125,0.2809114456176758,2.0174689292907715,2.4699999999999913
2.80830979347229,-0.7991485595703125,1.4296526908874512,2.479999999999991
2.9092905521392822,-1.5176887512207031,0.843058168888092,2.489999999999991
2.842327117919922,-2.1312036514282227,0.08031541109085083,2.4999999999999907
2.738929271697998,-2.6232361793518066,-0.3396083116531372,2.5099999999999905
2.533900737762451,-3.108841896057129,-0.3162819743156433,2.5199999999999902
2.2358250617980957,-3.5284337997436523,-0.28265899419784546,2.52999999999999
2.0538856983184814,-3.791468620300293,-0.10948377847671509,2.53999999999999
1.4526172876358032,-3.8219919204711914,-0.4383705258369446,2.5499999999999896
1.3307756185531616,-3.7974424362182617,0.07770949602127075,2.5599999999999894
0.8520134091377258,-3.481428623199463,0.0387214720249176,2.569999999999989
0.7503810524940491,-3.321648597717285,0.3005818724632263,2.579999999999989
0.012323975563049316,-3.2249794006347656,0.09356474876403809,2.5899999999999888
-0.3625439405441284,-2.883058547973633,0.17951981723308563,2.5999999999999885
-0.22920620441436768,-2.7144622802734375,0.9233696460723877,2.6099999999999883
-0.47997790575027466,-2.874199390411377,0.8730339407920837,2.619999999999988
-0.8011351227760315,-2.374081611633301,1.0713374614715576,2.629999999999988
-1.2363978624343872,-1.5662336349487305,0.9464704990386963,2.6399999999999877
-1.6951310634613037,-1.0414257049560547,0.49397462606430054,2.6499999999999875
-1.9551106691360474,-0.6412754058837891,0.08257362991571426,2.6599999999999873
-2.3506429195404053,-0.3894777297973633,-0.5514391660690308,2.669999999999987
-2.474637269973755,-0.3814363479614258,-0.9156206846237183,2.679999999999987
-2.5717999935150146,-0.4351310729980469,-1.0605604648590088,2.6899999999999866
-2.4849977493286133,-0.7178688049316406,-1.0918223857879639,2.6999999999999864
-2.524502754211426,-1.0501022338867188,-1.0164196491241455,2.709999999999986
-2.270430326461792,-1.4939699172973633,-0.9847394227981567,2.719999999999986
-2.0132548809051514,-1.7193822860717773,-0.8905212879180908,2.7299999999999858
-1.6147656440734863,-2.1761326789855957,-1.0469400882720947,2.7399999999999856
-1.2425825595855713,-2.3761239051818848,-1.3122005462646484,2.7499999999999853
-1.0614911317825317,-2.4129037857055664,-1.3554611206054688,2.759999999999985
-0.9134250283241272,-2.470768928527832,-1.3921785354614258,2.769999999999985
-1.4736435413360596,-2.51629638671875,-1.6297378540039062,2.7799999999999847
-1.2766473293304443,-2.3271303176879883,-1.0355230569839478,2.7899999999999845
-1.5689839124679565,-1.829483985900879,-1.1666654348373413,2.7999999999999843
-1.4694154262542725,-1.5856456756591797,-1.2188618183135986,2.809999999999984
-1.806706190109253,-1.3897628784179688,-1.6057370901107788,2.819999999999984
-1.750882863998413,-1.0122976303100586,-1.817376732826233,2.8299999999999836
-1.7327549457550049,-0.7309093475341797,-1.86549711227417,2.8399999999999834
-1.372080683708191,-0.7080106735229492,-1.9210731983184814,2.849999999999983
-1.5089521408081055,-0.5702304840087891,-2.25256085395813,2.859999999999983
-0.8813877701759338,-0.7265825271606445,-1.8167064189910889,2.869999999999983
-1.0397722721099854,-0.6792449951171875,-2.3203678131103516,2.8799999999999826
-1.2709602117538452,-0.44521141052246094,-2.729583263397217,2.8899999999999824
-1.5968915224075317,-0.3331899642944336,-2.908064365386963,2.899999999999982
-1.7253743410110474,-0.44579315185546875,-2.930506706237793,2.909999999999982
-2.0322840213775635,-0.16829967498779297,-2.8060216903686523,2.9199999999999817
-2.295079469680786,0.4269275665283203,-2.447539806365967,2.9299999999999815
-2.065514087677002,0.43806934356689453,-2.2021942138671875,2.9399999999999813
-1.8714065551757812,0.7337722778320312,-1.8662230968475342,2.949999999999981
-1.60184645652771,1.4258756637573242,-1.5103449821472168,2.959999999999981
-1.0627248287200928,1.863417625427246,-1.218061923980713,2.9699999999999807
-0.6938793063163757,2.455545425415039,-0.6259025931358337,2.9799999999999804
-0.7273135185241699,3.032137870788574,-0.5799994468688965,2.9899999999999802
0.046391263604164124,3.2962703704833984,0.7377344369888306,2.99999999999998
-0.01105731725692749,2.892441749572754,-0.3022744655609131,3.00999999999998
-0.6609108448028564,2.4435386657714844,-1.320565938949585,3.0199999999999796
-1.693811297416687,2.3394775390625,-1.9304879903793335,3.0299999999999794
-2.015627384185791,1.7789278030395508,-2.334434986114502,3.039999999999979
-2.793306350708008,2.1971912384033203,-2.8369951248168945,3.049999999999979
-2.9680137634277344,2.493185043334961,-3.5295352935791016,3.0599999999999787
-3.4134764671325684,3.348318099975586,-3.9466614723205566,3.0699999999999785
-3.2538981437683105,3.4896163940429688,-4.431823253631592,3.0799999999999783
-3.124796152114868,3.582484245300293,-4.5267133712768555,3.089999999999978
-2.989684581756592,3.4571409225463867,-4.539552688598633,3.099999999999978
-2.764420986175537,3.090104103088379,-4.4519944190979,3.1099999999999777
-2.354689836502075,2.4293622970581055,-4.23716402053833,3.1199999999999775
-2.218947410583496,2.0660572052001953,-3.9199469089508057,3.1299999999999772
-2.1540091037750244,1.7846899032592773,-3.4888954162597656,3.139999999999977
-2.227418899536133,1.3221797943115234,-3.0709264278411865,3.149999999999977
-2.179255962371826,1.240468978881836,-2.3636717796325684,3.1599999999999766
-2.193300247192383,1.082350730895996,-1.8240160942077637,3.1699999999999764
-2.304070472717285,1.0964689254760742,-1.324366807937622,3.179999999999976
-1.8895957469940186,1.1962823867797852,-0.6054345369338989,3.189999999999976
-1.7294422388076782,1.2452526092529297,0.07499992847442627,3.1999999999999758
-1.6991304159164429,1.1954889297485352,0.5097899436950684,3.2099999999999755
-1.4326870441436768,1.2310562133789062,0.8725600242614746,3.2199999999999753
-1.2598248720169067,1.3253135681152344,1.2963618040084839,3.229999999999975
-0.9788082242012024,1.5138931274414062,1.7725991010665894,3.239999999999975
-0.8281813859939575,1.6436147689819336,2.1006956100463867,3.2499999999999747
-0.910088300704956,1.7050104141235352,2.4986515045166016,3.2599999999999745
-0.9649081230163574,1.7866783142089844,2.9281840324401855,3.2699999999999743
-1.3542778491973877,1.7834577560424805,3.3077821731567383,3.279999999999974
-1.9851350784301758,1.6263179779052734,3.4070839881896973,3.289999999999974
-2.9516255855560303,1.1029348373413086,3.3926570415496826,3.2999999999999736
-3.31534743309021,0.6252555847167969,3.8145265579223633,3.3099999999999734
-2.807833194732666,0.7148208618164062,4.315580368041992,3.319999999999973
-1.6069622039794922,1.079620361328125,4.693990707397461,3.329999999999973
-0.04250151664018631,1.4805383682250977,4.853449821472168,3.3399999999999728
1.286298155784607,2.015829086303711,4.975388050079346,3.3499999999999726
2.5313971042633057,2.829000473022461,4.9949517250061035,3.3599999999999723
4.0552215576171875,3.762094497680664,4.5503082275390625,3.369999999999972
4.968262195587158,4.84614372253418,4.069570541381836,3.379999999999972
5.52720832824707,5.739046096801758,3.6409246921539307,3.3899999999999717
5.738356113433838,6.381234169006348,3.2376577854156494,3.3999999999999715
5.524998664855957,6.648634910583496,2.9240646362304688,3.4099999999999713
5.011224269866943,6.534461975097656,2.508450508117676,3.419999999999971
4.481518268585205,6.318874359130859,2.476381778717041,3.429999999999971
4.050930976867676,6.174100875854492,2.286623477935791,3.4399999999999706
4.081625461578369,5.918329238891602,2.0106821060180664,3.4499999999999704
3.981635570526123,5.709562301635742,1.543532371520996,3.45999999999997
3.7655999660491943,5.688846588134766,1.3287224769592285,3.46999999999997
3.6526551246643066,5.602425575256348,1.1914167404174805,3.47999999999997
3.777036428451538,5.251890182495117,0.8987500667572021,3.4899999999999696
3.998434066772461,4.826401710510254,0.41578519344329834,3.4999999999999694
4.085625171661377,4.383328437805176,-0.16064774990081787,3.509999999999969
3.8000853061676025,3.9058876037597656,-0.3116876482963562,3.519999999999969
3.247244358062744,2.9350099563598633,-0.1757267713546753,3.5299999999999687
2.4284393787384033,2.045111656188965,0.25997281074523926,3.5399999999999685
1.785017728805542,1.0997600555419922,0.8790894746780396,3.5499999999999683
1.455010175704956,0.15883636474609375,1.1848796606063843,3.559999999999968
1.1390427350997925,-0.44060707092285156,0.9047122001647949,3.569999999999968
0.8444305658340454,-1.328282356262207,0.6798428297042847,3.5799999999999677
0.5742816925048828,-2.0447912216186523,0.6605151891708374,3.5899999999999674
-0.5196645259857178,-2.315030097961426,0.9984230399131775,3.5999999999999672
-1.4268242120742798,-2.5989298820495605,1.1333909034729004,3.609999999999967
-1.767538070678711,-2.8776402473449707,1.0190095901489258,3.619999999999967
-1.7572689056396484,-3.1057987213134766,1.1478033065795898,3.6299999999999666
-2.045285940170288,-3.4031882286071777,1.1870557069778442,3.6399999999999664
-2.276235818862915,-3.695812702178955,1.3448762893676758,3.649999999999966
-2.0440673828125,-4.060356616973877,1.699629783630371,3.659999999999966
-2.016909122467041,-4.48979377746582,1.6310828924179077,3.6699999999999657
-2.4366350173950195,-4.903201580047607,1.2076328992843628,3.6799999999999655
-2.7159688472747803,-5.542435646057129,1.0736632347106934,3.6899999999999653
-2.2900736331939697,-5.7638936042785645,1.0319081544876099,3.699999999999965
-1.9897704124450684,-5.818960189819336,1.099077582359314,3.709999999999965
-1.452251672744751,-5.722132682800293,0.9736131429672241,3.7199999999999647
-0.860722541809082,-5.518925666809082,0.866418719291687,3.7299999999999645
-0.2738623023033142,-5.283420085906982,0.988398551940918,3.7399999999999642
0.3236311674118042,-4.939016819000244,1.0431922674179077,3.749999999999964
0.5398156642913818,-4.997533321380615,0.9905166625976562,3.759999999999964
0.6695460677146912,-5.056751251220703,0.7829148769378662,3.7699999999999636
1.0697270631790161,-5.176375865936279,0.7126281261444092,3.7799999999999634
1.0341404676437378,-5.387337684631348,0.8207476139068604,3.789999999999963
1.2159056663513184,-5.328272342681885,0.9883315563201904,3.799999999999963
1.2796727418899536,-5.372402667999268,1.132225751876831,3.8099999999999627
1.2468218803405762,-5.311507225036621,1.3006550073623657,3.8199999999999625
1.3495280742645264,-5.310735702514648,1.2161774635314941,3.8299999999999623
1.2836437225341797,-5.190863132476807,1.0388872623443604,3.839999999999962
1.1879663467407227,-5.107595920562744,0.938330888748169,3.849999999999962
1.1296801567077637,-4.919992446899414,0.806307315826416,3.8599999999999617
1.1137746572494507,-4.7024664878845215,0.6973910331726074,3.8699999999999615
1.1501063108444214,-4.577062129974365,0.632896900177002,3.8799999999999613
1.2269091606140137,-4.321385383605957,0.5455610752105713,3.889999999999961
1.39711594581604,-4.196233749389648,0.3277924060821533,3.899999999999961
1.5964404344558716,-4.0626630783081055,0.1713099479675293,3.9099999999999606
1.7149983644485474,-3.753267765045166,-0.05295681953430176,3.9199999999999604
1.9154932498931885,-3.5048828125,-0.29439353942871094,3.92999999999996
2.006255865097046,-3.2982330322265625,-0.5527365207672119,3.93999999999996
2.089982271194458,-3.013632297515869,-0.7846856117248535,3.9499999999999598
2.108689546585083,-2.691704750061035,-0.8989875316619873,3.9599999999999596
2.105074405670166,-2.3730268478393555,-0.9671392440795898,3.9699999999999593
2.0763213634490967,-2.0837182998657227,-0.9216716289520264,3.979999999999959
1.947920322418213,-1.778116226196289,-0.821850061416626,3.989999999999959
1.8511583805084229,-1.518301010131836,-0.7127926349639893,3.9999999999999587
1.6470316648483276,-1.2251253128051758,-0.5412726402282715,4.009999999999959
1.4241729974746704,-0.9104833602905273,-0.4313633441925049,4.019999999999959
1.2330348491668701,-0.5791501998901367,-0.5167789459228516,4.0299999999999585
1.0619480609893799,-0.30515003204345703,-0.5147349834442139,4.039999999999958
0.8155341744422913,-0.011706352233886719,-0.4797072410583496,4.049999999999958
0.5802963376045227,0.3370981216430664,-0.5166890621185303,4.059999999999958
0.3780665993690491,0.6312189102172852,-0.7307677268981934,4.069999999999958
0.2258317470550537,0.9640264511108398,-0.9541809558868408,4.079999999999957
0.1669151484966278,1.3260345458984375,-1.1386983394622803,4.089999999999957
0.2349284291267395,1.6790227890014648,-1.3678288459777832,4.099999999999957
0.35545945167541504,2.011002540588379,-1.7899250984191895,4.109999999999957
0.4275777339935303,2.290713310241699,-2.367140531539917,4.119999999999957
0.5684129595756531,2.649542808532715,-3.071269989013672,4.129999999999956
0.19379255175590515,2.867086410522461,-3.8769092559814453,4.139999999999956
-0.11010950803756714,3.0816650390625,-4.895782470703125,4.149999999999956
-0.2498154640197754,3.194690704345703,-5.730345726013184,4.159999999999956
-0.4941657781600952,3.083981513977051,-6.219377040863037,4.1699999999999555
-1.1196632385253906,2.6540136337280273,-6.437650680541992,4.179999999999955
-1.2295918464660645,2.2254772186279297,-6.404980659484863,4.189999999999955
-1.3185433149337769,1.7075605392456055,-6.011214256286621,4.199999999999955
-2.0203537940979004,0.9163217544555664,-5.765271186828613,4.209999999999955
-2.105708599090576,0.19893455505371094,-5.747734546661377,4.2199999999999545
-2.089073419570923,-0.5209875106811523,-5.548770904541016,4.229999999999954
-1.977536678314209,-1.2385034561157227,-5.579445838928223,4.239999999999954
-2.4249627590179443,-2.1108317375183105,-4.708441734313965,4.249999999999954
-2.191429615020752,-2.541506767272949,-3.060451030731201,4.259999999999954
-1.985039234161377,-2.757871150970459,-2.2276439666748047,4.269999999999953
-1.460851788520813,-2.7070837020874023,-1.1144230365753174,4.279999999999953
-0.8504449129104614,-2.324227809906006,0.35791921615600586,4.289999999999953
-0.03086310625076294,-1.623673915863037,1.525486707687378,4.299999999999953
1.0613148212432861,-0.557830810546875,2.6854028701782227,4.3099999999999525
2.204698324203491,0.8392019271850586,3.592702865600586,4.319999999999952
3.2287240028381348,2.571321487426758,4.128235340118408,4.329999999999952
4.037606239318848,5.1731157302856445,4.512039661407471,4.339999999999952
4.322667121887207,8.910733222961426,4.8351006507873535,4.349999999999952
4.275999069213867,14.12136459350586,5.1754302978515625,4.3599999999999515
4.179152011871338,20.210159301757812,4.756772994995117,4.369999999999951
3.7068474292755127,25.689979553222656,3.7923941612243652,4.379999999999951
2.9087748527526855,28.89324951171875,3.5012004375457764,4.389999999999951
3.4912073612213135,26.563690185546875,3.944967746734619,4.399999999999951
5.361403465270996,19.760162353515625,6.097785472869873,4.40999999999995
4.281196117401123,12.6327486038208,8.606818199157715,4.41999999999995
2.220228672027588,7.315723419189453,8.777217864990234,4.42999999999995
1.4124974012374878,3.4238739013671875,7.204120635986328,4.43999999999995
0.8975995182991028,0.4930744171142578,5.026961326599121,4.4499999999999496
0.6646993160247803,-1.8564224243164062,3.1256089210510254,4.459999999999949
1.1351853609085083,-3.757235050201416,2.189122200012207,4.469999999999949
1.7537531852722168,-5.356027603149414,1.739587426185608,4.479999999999949
2.241363286972046,-6.636626243591309,1.43630051612854,4.489999999999949
1.8536697626113892,-7.563586711883545,1.4370067119598389,4.4999999999999485
1.395694375038147,-8.472105026245117,1.7678380012512207,4.509999999999948
1.2228612899780273,-9.046709060668945,2.17453932762146,4.519999999999948
1.187336802482605,-9.240288734436035,2.0747756958007812,4.529999999999948
0.5494401454925537,-8.962664604187012,1.525604248046875,4.539999999999948
0.8878685235977173,-9.034585952758789,2.349592447280884,4.549999999999947
0.23471036553382874,-8.894179344177246,1.9937156438827515,4.559999999999947
-0.6128373742103577,-8.52289867401123,2.1553475856781006,4.569999999999947
-1.717321753501892,-7.871001720428467,2.8350956439971924,4.579999999999947
-2.7633728981018066,-6.998867034912109,3.5862326622009277,4.589999999999947
-3.5857818126678467,-5.837700843811035,4.239902496337891,4.599999999999946
-4.014068603515625,-4.26378870010376,4.6465654373168945,4.609999999999946
-4.246077060699463,-2.280205726623535,5.013421535491943,4.619999999999946
-4.402698993682861,-0.13370227813720703,5.249344348907471,4.629999999999946
-4.510710716247559,1.802811622619629,5.3767313957214355,4.6399999999999455
-4.689070701599121,3.4512948989868164,5.550863742828369,4.649999999999945
-4.468991756439209,4.6000213623046875,5.595188140869141,4.659999999999945
-3.6439056396484375,5.233382225036621,5.10760498046875,4.669999999999945
-1.9754775762557983,5.730058670043945,4.01511287689209,4.679999999999945
-0.15627002716064453,5.511843681335449,2.9695870876312256,4.689999999999944
1.64859938621521,4.620678901672363,2.353065013885498,4.699999999999944
2.704141855239868,3.3159799575805664,2.019012928009033,4.709999999999944
2.167402982711792,1.7179126739501953,1.531083345413208,4.719999999999944
1.543818473815918,0.053963661193847656,1.033744215965271,4.729999999999944
1.413570523262024,-1.250187873840332,0.9055911898612976,4.739999999999943
1.404734492301941,-2.0563840866088867,0.6635934710502625,4.749999999999943
1.5283918380737305,-2.4753899574279785,0.2884770631790161,4.759999999999943
1.4655653238296509,-2.7517547607421875,-0.007274270057678223,4.769999999999943
1.7062478065490723,-2.9431657791137695,-0.013543367385864258,4.7799999999999425
1.9751578569412231,-3.0593786239624023,0.11848974227905273,4.789999999999942
1.6946885585784912,-3.1317715644836426,0.05806303024291992,4.799999999999942
1.4425745010375977,-3.131930351257324,0.09181565046310425,4.809999999999942
1.3038105964660645,-3.03861665725708,0.25500789284706116,4.819999999999942
1.186639428138733,-2.8090829849243164,0.353189617395401,4.8299999999999415
1.1022891998291016,-2.367147445678711,0.4123186767101288,4.839999999999941
0.8392288684844971,-1.8136916160583496,0.3123946785926819,4.849999999999941
0.5163636207580566,-1.4192075729370117,0.1775113344192505,4.859999999999941
0.4784192740917206,-1.315007209777832,0.8354867100715637,4.869999999999941
0.10743296146392822,-1.0393590927124023,0.5488759279251099,4.87999999999994
-0.19626957178115845,-1.4533185958862305,0.12714684009552002,4.88999999999994
-0.10263413190841675,-1.491745948791504,0.48580896854400635,4.89999999999994
-0.24360978603363037,-1.2146587371826172,0.504798412322998,4.90999999999994
-0.4137611389160156,-1.1435174942016602,0.3686225414276123,4.9199999999999395
-0.714171826839447,-1.1224699020385742,0.1947481483221054,4.929999999999939
-1.1295740604400635,-1.2302751541137695,-0.15079760551452637,4.939999999999939
-1.5188310146331787,-1.5121965408325195,-0.5343358516693115,4.949999999999939
-1.800961971282959,-1.781508445739746,-0.7072310447692871,4.959999999999939
-2.034212827682495,-1.7465367317199707,-0.6600172519683838,4.9699999999999385
-1.831144094467163,-1.9838685989379883,-0.6682833433151245,4.979999999999938
-1.8625507354736328,-2.148861885070801,-0.5357713103294373,4.989999999999938
-1.7032158374786377,-2.241626739501953,-0.47492164373397827,4.999999999999938
-1.4517828226089478,-2.2718167304992676,-0.5403227806091309,5.009999999999938
-1.3023037910461426,-2.258634567260742,-0.5089819431304932,5.019999999999937
-1.1877152919769287,-2.1782336235046387,-0.6213971376419067,5.029999999999937
-1.0411930084228516,-2.140721321105957,-0.6209380626678467,5.039999999999937
-1.1786489486694336,-1.8925995826721191,-0.8521836996078491,5.049999999999937
-1.3271331787109375,-1.728254795074463,-1.0013083219528198,5.0599999999999365
-1.314337968826294,-1.4395618438720703,-1.173388957977295,5.069999999999936
-1.307420253753662,-1.165369987487793,-1.284212589263916,5.079999999999936
-1.2170658111572266,-0.7143697738647461,-1.2662917375564575,5.089999999999936
-1.2042105197906494,-0.5602121353149414,-1.4915709495544434,5.099999999999936
-1.3005924224853516,-0.5208292007446289,-1.6564788818359375,5.1099999999999355
-1.1423624753952026,-0.37613773345947266,-1.5212457180023193,5.119999999999935
-1.2130167484283447,-0.2937030792236328,-1.4803752899169922,5.129999999999935
-1.3044326305389404,-0.2996864318847656,-2.0463685989379883,5.139999999999935
-0.8949725031852722,-0.5733633041381836,-1.340720772743225,5.149999999999935
-0.8911684155464172,-0.4568748474121094,-1.3324124813079834,5.159999999999934
-1.132845401763916,-0.3859386444091797,-1.453900694847107,5.169999999999934
-1.081815481185913,-0.633026123046875,-1.5813692808151245,5.179999999999934
-1.0610744953155518,-0.5808124542236328,-1.5140466690063477,5.189999999999934
-1.2884643077850342,-0.5357503890991211,-1.5534173250198364,5.199999999999934
-1.2325505018234253,-0.35677623748779297,-1.4551652669906616,5.209999999999933
-1.3623311519622803,-0.03215980529785156,-1.5752768516540527,5.219999999999933
-1.1893870830535889,0.02672576904296875,-1.6868739128112793,5.229999999999933
-1.269026279449463,0.1048116683959961,-1.902804970741272,5.239999999999933
-1.1531496047973633,0.3765869140625,-1.9212335348129272,5.2499999999999325
-1.056571125984192,0.6433181762695312,-1.8832082748413086,5.259999999999932
-1.1748113632202148,1.0220794677734375,-1.8359888792037964,5.269999999999932
-0.9493496417999268,1.024942398071289,-1.7485498189926147,5.279999999999932
-1.0141077041625977,1.0349321365356445,-1.8601257801055908,5.289999999999932
-0.9902080297470093,1.3172130584716797,-1.444658637046814,5.299999999999931
-0.7934799194335938,1.3501319885253906,-1.3802744150161743,5.309999999999931
-0.6374620795249939,1.126861572265625,-1.667075753211975,5.319999999999931
-0.6892083883285522,1.2023382186889648,-1.4337667226791382,5.329999999999931
-0.4964512586593628,0.9092283248901367,-1.7653344869613647,5.339999999999931
-0.48872265219688416,0.8674325942993164,-2.095396041870117,5.34999999999993
-0.6525235176086426,1.3635368347167969,-2.3090617656707764,5.35999999999993
-0.302826464176178,1.5097551345825195,-2.4160497188568115,5.36999999999993
-0.20378616452217102,2.0049266815185547,-2.5874648094177246,5.37999999999993
-0.2753908634185791,2.549729347229004,-2.710794448852539,5.3899999999999295
-0.22796349227428436,3.0984888076782227,-2.6535441875457764,5.399999999999929
0.09417787939310074,3.005624771118164,-2.9445180892944336,5.409999999999929
0.18014127016067505,3.120677947998047,-3.1187047958374023,5.419999999999929
0.35521039366722107,2.8408117294311523,-3.2765326499938965,5.429999999999929
0.5572749376296997,2.4510889053344727,-3.157512664794922,5.4399999999999284
0.5139124393463135,2.001885414123535,-2.8218729496002197,5.449999999999928
0.5300767421722412,1.7203388214111328,-2.221607208251953,5.459999999999928
0.29275378584861755,1.8833980560302734,-1.3726003170013428,5.469999999999928
0.15296509861946106,1.9762516021728516,-0.7024374604225159,5.479999999999928
-0.3078913688659668,2.2883214950561523,-0.16074848175048828,5.489999999999927
-0.7881969213485718,2.5944652557373047,0.4780266284942627,5.499999999999927
-1.3259071111679077,2.7941341400146484,1.238452434539795,5.509999999999927
-1.587186574935913,3.0810413360595703,2.039517879486084,5.519999999999927
-2.090048313140869,3.208817481994629,2.785292625427246,5.5299999999999265
-2.6779587268829346,3.1490249633789062,3.3224847316741943,5.539999999999926
-3.204075813293457,2.7966156005859375,3.869556427001953,5.549999999999926
-3.5189523696899414,2.431624412536621,4.126016616821289,5.559999999999926
-3.678187370300293,1.9034957885742188,4.027580261230469,5.569999999999926
-3.986696481704712,0.9544944763183594,3.8149333000183105,5.5799999999999255
-3.632556676864624,0.4198904037475586,3.7650208473205566,5.589999999999925
-2.9783408641815186,0.35918617248535156,3.772603988647461,5.599999999999925
-1.8542355298995972,0.6382102966308594,3.5337677001953125,5.609999999999925
-0.815795361995697,0.9506692886352539,3.4657516479492188,5.619999999999925
-0.1287815123796463,1.571603775024414,3.677405834197998,5.629999999999924
0.558944821357727,2.2521562576293945,3.805250883102417,5.639999999999924
1.24876070022583,2.9662342071533203,3.7743892669677734,5.649999999999924
1.6913496255874634,3.5730037689208984,3.808300495147705,5.659999999999924
1.9848008155822754,4.192399978637695,3.905095100402832,5.6699999999999235
1.9904301166534424,4.676356315612793,3.780142307281494,5.679999999999923
1.676527500152588,4.8529205322265625,3.6446352005004883,5.689999999999923
1.3075611591339111,4.889739036560059,3.5239882469177246,5.699999999999923
1.032971978187561,4.59311580657959,3.303300142288208,5.709999999999923
0.875465452671051,4.262141227722168,2.963632822036743,5.7199999999999225
1.081512689590454,3.944551467895508,2.5149099826812744,5.729999999999922
1.443420648574829,3.946319580078125,1.9163203239440918,5.739999999999922
2.0651559829711914,4.145078659057617,1.354222059249878,5.749999999999922
2.9241771697998047,4.279987335205078,0.8164875507354736,5.759999999999922
3.5814120769500732,4.379855155944824,0.40637335181236267,5.769999999999921
3.8245692253112793,4.463852882385254,0.19844233989715576,5.779999999999921
3.986506938934326,4.410038948059082,-0.03431516885757446,5.789999999999921
3.92579984664917,4.024833679199219,-0.2703949213027954,5.799999999999921
3.4305477142333984,3.41365909576416,-0.2585127353668213,5.809999999999921
2.851351261138916,2.562284469604492,0.15684032440185547,5.81999999999992
2.454066753387451,1.3157634735107422,0.5372864007949829,5.82999999999992
1.7327773571014404,0.73150634765625,1.011336088180542,5.83999999999992
1.261249303817749,0.02433490753173828,1.2794759273529053,5.84999999999992
0.8530616760253906,0.05986499786376953,1.3737514019012451,5.8599999999999195
0.4797089695930481,0.18867015838623047,1.811409831047058,5.869999999999919
1.166590929031372,-0.46420764923095703,2.442136287689209,5.879999999999919
0.7062099575996399,-1.0791072845458984,2.4539666175842285,5.889999999999919
-0.10633337497711182,-0.893153190612793,2.754364490509033,5.899999999999919
-0.7809154987335205,-0.539311408996582,2.6521878242492676,5.909999999999918
-1.9145548343658447,-0.6310024261474609,1.9254999160766602,5.919999999999918
-2.4622995853424072,-0.9720859527587891,0.939534068107605,5.929999999999918
-2.308469533920288,-1.3828659057617188,0.6503579616546631,5.939999999999918
-1.6770013570785522,-1.7506041526794434,1.2364252805709839,5.949999999999918
-1.0903220176696777,-1.9077677726745605,2.014427423477173,5.959999999999917
-0.5942491292953491,-1.9908647537231445,2.3510372638702393,5.969999999999917
-0.348659873008728,-2.126821517944336,2.2485404014587402,5.979999999999917
-0.3050093650817871,-2.4807701110839844,2.0219485759735107,5.989999999999917
-0.019767045974731445,-2.7320685386657715,2.1035990715026855,5.9999999999999165
0.02699100971221924,-2.988436222076416,2.0241541862487793,6.009999999999916
0.2982657551765442,-3.249673843383789,2.066255807876587,6.019999999999916
0.4192968010902405,-3.446511745452881,1.9231171607971191,6.029999999999916
0.6373535394668579,-3.5049986839294434,1.7164227962493896,6.039999999999916
0.7280442118644714,-3.6809654235839844,1.9801785945892334,6.0499999999999154
1.4026834964752197,-3.7517685890197754,2.032614231109619,6.059999999999915
1.6180143356323242,-4.026171684265137,1.6583611965179443,6.069999999999915
1.6902742385864258,-4.310401439666748,1.2664738893508911,6.079999999999915
1.9189057350158691,-4.420229434967041,1.2519398927688599,6.089999999999915
1.5264049768447876,-4.5542778968811035,1.3732140064239502,6.099999999999914
1.200048565864563,-4.659887790679932,1.4987953901290894,6.109999999999914
1.026126742362976,-4.6080241203308105,1.5401315689086914,6.119999999999914
0.6860869526863098,-4.446941375732422,1.3700921535491943,6.129999999999914
0.6032117009162903,-4.112361907958984,1.2827650308609009,6.1399999999999135
0.6461582183837891,-3.8867335319519043,1.2228431701660156,6.149999999999913
0.7220504283905029,-3.8322324752807617,1.1014186143875122,6.159999999999913
0.70902419090271,-3.7407913208007812,0.8201196193695068,6.169999999999913
0.6838087439537048,-3.6101207733154297,0.6062450408935547,6.179999999999913
0.7279152870178223,-3.325498104095459,0.490861177444458,6.1899999999999125
0.7553337216377258,-3.1787338256835938,0.3546426296234131,6.199999999999912
0.7588920593261719,-2.9089365005493164,0.21468424797058105,6.209999999999912
0.9062010049819946,-2.702713966369629,0.06637430191040039,6.219999999999912
1.0125154256820679,-2.593442916870117,-0.1738278865814209,6.229999999999912
0.9432332515716553,-2.466102123260498,-0.3762061595916748,6.239999999999911
0.8823246955871582,-2.3706789016723633,-0.35590553283691406,6.249999999999911
1.0139096975326538,-2.3237218856811523,-0.28493213653564453,6.259999999999911
0.9379153251647949,-2.2963786125183105,-0.37342262268066406,6.269999999999911
0.9888506531715393,-2.293346405029297,-0.43444037437438965,6.2799999999999105
0.7639049291610718,-2.295461654663086,-0.6257522106170654,6.28999999999991
0.7871483564376831,-2.037015914916992,-0.4154844284057617,6.29999999999991
1.1530557870864868,-2.15889835357666,0.11041402816772461,6.30999999999991
0.82548588514328,-2.3499956130981445,-0.40482664108276367,6.31999999999991
0.6205598711967468,-2.2179136276245117,-0.37644290924072266,6.3299999999999095
0.883385419845581,-2.212498664855957,-0.3500697612762451,6.339999999999909
0.6568619012832642,-2.16866397857666,-0.4836888313293457,6.349999999999909
0.35645967721939087,-1.711014747619629,-0.6309816837310791,6.359999999999909
0.11350903660058975,-1.3059930801391602,-0.5062088966369629,6.369999999999909
-0.13605406880378723,-1.0393552780151367,-0.5105500221252441,6.379999999999908
-0.006222918629646301,-0.8175468444824219,-0.456920862197876,6.389999999999908
-0.01350460946559906,-0.5399837493896484,-0.5626201629638672,6.399999999999908
-0.05473136901855469,-0.16366100311279297,-0.7244858741760254,6.409999999999908
-0.16064254939556122,0.24190330505371094,-0.868478536605835,6.419999999999908
-0.35251930356025696,0.7674322128295898,-1.0188963413238525,6.429999999999907
-0.42901185154914856,1.068380355834961,-1.2286255359649658,6.439999999999907
-0.4947252869606018,1.104365348815918,-1.3638203144073486,6.449999999999907
-0.2838025987148285,0.9927453994750977,-1.680983304977417,6.459999999999907
-0.3113183379173279,1.247542381286621,-2.111421823501587,6.4699999999999065
-0.2859969139099121,1.5356788635253906,-2.600848436355591,6.479999999999906
-0.46196237206459045,1.7157516479492188,-2.932558059692383,6.489999999999906
-0.27958786487579346,1.641733169555664,-3.3373537063598633,6.499999999999906
-0.29976019263267517,1.5072765350341797,-3.7707858085632324,6.509999999999906
-0.3033527731895447,1.2667884826660156,-4.1115264892578125,6.519999999999905
-0.30090823769569397,0.9203033447265625,-4.245102882385254,6.529999999999905
-0.4103569984436035,0.4201068878173828,-4.365412712097168,6.539999999999905
-0.6013493537902832,-0.08053779602050781,-4.3860979080200195,6.549999999999905
-0.807668924331665,-0.48351192474365234,-4.330774307250977,6.559999999999905
-0.8996671438217163,-0.7529640197753906,-4.325961112976074,6.569999999999904
-1.0786070823669434,-1.1949224472045898,-4.21066951751709,6.579999999999904
-1.3161453008651733,-1.6536426544189453,-4.041989803314209,6.589999999999904
-1.1745039224624634,-2.0548553466796875,-3.879380464553833,6.599999999999904
-1.0122287273406982,-2.5013537406921387,-3.6484930515289307,6.6099999999999035
-0.6954901218414307,-2.8401641845703125,-3.7802343368530273,6.619999999999903
-1.0552480220794678,-3.1933650970458984,-3.6188690662384033,6.629999999999903
-1.0292205810546875,-3.2764906883239746,-3.545320510864258,6.639999999999903
-0.9091781377792358,-3.3411169052124023,-3.617692708969116,6.649999999999903
-0.7831443548202515,-3.540297508239746,-3.5347580909729004,6.659999999999902
-0.6147562265396118,-3.6558828353881836,-2.8770949840545654,6.669999999999902
-0.5040915608406067,-3.35007381439209,-1.5447468757629395,6.679999999999902
-0.04106384515762329,-3.062887668609619,-0.8783793449401855,6.689999999999902
0.4428773522377014,-2.5641632080078125,0.12686371803283691,6.699999999999902
0.8507785797119141,-1.7793049812316895,1.3490722179412842,6.709999999999901
1.3508660793304443,-1.1242437362670898,1.9291585683822632,6.719999999999901
1.6394476890563965,0.09025287628173828,3.0724570751190186,6.729999999999901
2.1968250274658203,1.3133764266967773,3.6013033390045166,6.739999999999901
2.7040140628814697,3.2499303817749023,4.231550216674805,6.7499999999999005
3.217545747756958,5.814671516418457,4.988980293273926,6.7599999999999
3.582015037536621,9.17591667175293,5.490580081939697,6.7699999999999
3.848397970199585,13.430054664611816,5.370795249938965,6.7799999999999
3.5138931274414062,18.792604446411133,4.132121562957764,6.7899999999999
3.533383369445801,24.01626205444336,2.981579303741455,6.7999999999998995
3.4644336700439453,29.25375747680664,2.31539249420166,6.809999999999899
3.7521443367004395,30.782516479492188,1.9236035346984863,6.819999999999899
5.940478801727295,27.40829086303711,3.4453248977661133,6.829999999999899
7.4819746017456055,20.022499084472656,4.648898124694824,6.839999999999899
2.4690113067626953,13.13356876373291,4.300148963928223,6.849999999999898
-0.46028026938438416,6.800809860229492,3.236283779144287,6.859999999999898
-1.3009647130966187,1.3175325393676758,2.2230026721954346,6.869999999999898
-1.5807294845581055,-2.853545665740967,1.5107498168945312,6.879999999999898
-2.116704225540161,-5.891012191772461,1.1896889209747314,6.8899999999998975
-1.739530086517334,-7.427734375,2.231158494949341,6.899999999999897
-0.5754928588867188,-7.8362274169921875,3.122194290161133,6.909999999999897
0.4097471535205841,-8.122596740722656,3.7514543533325195,6.919999999999897
1.0795667171478271,-8.667668342590332,4.033817291259766,6.929999999999897
1.2713836431503296,-8.69956111907959,3.8998422622680664,6.9399999999998965
1.961283564567566,-10.41226863861084,3.3714632987976074,6.949999999999896
1.9538493156433105,-9.761476516723633,2.4908339977264404,6.959999999999896
1.4850025177001953,-9.09157657623291,2.1460862159729004,6.969999999999896
0.6318141222000122,-8.130350112915039,1.7594285011291504,6.979999999999896
-0.2776411175727844,-6.818741798400879,1.7292799949645996,6.989999999999895
-2.2071049213409424,-5.0615620613098145,1.1153342723846436,6.999999999999895
-1.5370844602584839,-4.604163646697998,2.683039903640747,7.009999999999895
-1.7242934703826904,-4.213582515716553,2.950446367263794,7.019999999999895
-3.5229761600494385,-1.9437170028686523,2.9217300415039062,7.0299999999998946
-2.533723831176758,-0.71429443359375,3.5649194717407227,7.039999999999894
-3.9241676330566406,1.1636638641357422,3.1199443340301514,7.049999999999894
-4.015505790710449,3.020038604736328,4.557911396026611,7.059999999999894
-4.787993907928467,4.868633270263672,4.088760852813721,7.069999999999894
-4.358138084411621,6.068171501159668,2.9416427612304688,7.0799999999998935
-4.0772705078125,6.727840423583984,2.702181339263916,7.089999999999893
-4.2819952964782715,6.553168296813965,2.906938314437866,7.099999999999893
-3.5466723442077637,5.938648223876953,3.5425608158111572,7.109999999999893
-2.2554612159729004,5.789063453674316,2.5746898651123047,7.119999999999893
-0.873706579208374,3.921031951904297,1.1395665407180786,7.129999999999892
0.121924489736557,2.015997886657715,0.8619457483291626,7.139999999999892
1.2904547452926636,0.0745086669921875,0.7433685064315796,7.149999999999892
1.7311222553253174,-3.0517578125E-5,0.16117572784423828,7.159999999999892
1.1496381759643555,0.08333969116210938,0.6410390138626099,7.169999999999892
1.1191343069076538,-0.6360273361206055,1.6650197505950928,7.179999999999891
1.442995548248291,-1.504399299621582,1.674555778503418,7.189999999999891
1.2607107162475586,-2.12772274017334,0.9156912565231323,7.199999999999891
1.3420896530151367,-2.765401840209961,0.4503418207168579,7.209999999999891
0.8349956274032593,-3.6310553550720215,-0.026510238647460938,7.2199999999998905
1.1623358726501465,-4.311057090759277,0.7192827463150024,7.22999999999989
2.0470809936523438,-4.423406600952148,1.2270087003707886,7.23999999999989
2.1761207580566406,-4.545548439025879,1.1111502647399902,7.24999999999989
2.027947425842285,-4.809260845184326,1.29354727268219,7.25999999999989
2.6525402069091797,-5.1737141609191895,2.1508331298828125,7.269999999999889
1.8633062839508057,-5.227613925933838,2.526848793029785,7.279999999999889
1.8261473178863525,-4.44542932510376,3.201005458831787,7.289999999999889
1.5077778100967407,-2.790072441101074,3.380542278289795,7.299999999999889
1.4286587238311768,-1.0779075622558594,3.6612548828125,7.309999999999889
1.5308977365493774,-0.3962526321411133,4.2294020652771,7.319999999999888
1.4500383138656616,0.43282508850097656,4.502228736877441,7.329999999999888
0.8985751271247864,1.1672554016113281,3.508361339569092,7.339999999999888
0.3774982988834381,1.6636180877685547,2.908902645111084,7.349999999999888
0.2664710283279419,2.4818801879882812,2.3071775436401367,7.3599999999998875
0.05280447006225586,2.8258113861083984,2.417996644973755,7.369999999999887
0.15051895380020142,2.481207847595215,2.522799253463745,7.379999999999887
0.26968812942504883,2.0970726013183594,2.2137954235076904,7.389999999999887
0.07864809036254883,2.1563940048217773,1.7840336561203003,7.399999999999887
0.1869509220123291,1.5490150451660156,1.4152721166610718,7.4099999999998865
0.7694430947303772,0.7228317260742188,0.9442500472068787,7.419999999999886
0.492770791053772,-0.1856689453125,0.8449204564094543,7.429999999999886
0.46264326572418213,-0.8869466781616211,1.115417718887329,7.439999999999886
0.4893781542778015,-1.1258535385131836,0.7177356481552124,7.449999999999886
0.5182793736457825,-1.3718681335449219,0.6648753881454468,7.459999999999885
0.5471553206443787,-1.9020590782165527,1.2834104299545288,7.469999999999885
0.9629606008529663,-1.9196553230285645,1.5889569520950317,7.479999999999885
1.1943367719650269,-1.226675033569336,2.0393474102020264,7.489999999999885
2.267556667327881,-1.4743518829345703,1.0701956748962402,7.4999999999998845
3.1790566444396973,-2.5282907485961914,-1.1027792692184448,7.509999999999884
1.44620680809021,-1.1589365005493164,0.5447096824645996,7.519999999999884
0.35916441679000854,0.45048046112060547,2.0547120571136475,7.529999999999884
0.6909130811691284,0.5179347991943359,1.1689784526824951,7.539999999999884
0.20605427026748657,1.0487146377563477,0.2815603017807007,7.5499999999998835
-0.7153335809707642,1.4684629440307617,0.7569553256034851,7.559999999999883
-0.8359642028808594,1.0290775299072266,0.9443075656890869,7.569999999999883
-0.8261352777481079,1.039658546447754,1.2150732278823853,7.579999999999883
-1.0948494672775269,1.353947639465332,1.5966343879699707,7.589999999999883
-0.7366758584976196,1.1467037200927734,1.557416319847107,7.599999999999882
-0.3181205987930298,0.6575937271118164,1.0986714363098145,7.609999999999882
-0.19572627544403076,0.3388338088989258,1.0383892059326172,7.619999999999882
-0.28599047660827637,-0.010628700256347656,1.0562520027160645,7.629999999999882
-0.27097201347351074,-0.2567939758300781,1.1170860528945923,7.6399999999998816
-0.5127232074737549,-0.6127157211303711,1.034285068511963,7.649999999999881
-1.849609375,-1.2029199600219727,0.5274112820625305,7.659999999999881
-1.3022165298461914,-1.1876468658447266,0.5299098491668701,7.669999999999881
-1.0215874910354614,-0.8424530029296875,0.5012602806091309,7.679999999999881
-0.6482633352279663,-0.8969669342041016,0.4129325747489929,7.6899999999998805
-0.5721813440322876,-0.8461542129516602,0.2938835024833679,7.69999999999988
-0.2857757806777954,-0.7067680358886719,0.5394737720489502,7.70999999999988
-0.4597975015640259,-0.010408401489257812,0.49870774149894714,7.71999999999988
-0.4461709260940552,0.62994384765625,0.3072582483291626,7.72999999999988
-0.7800111770629883,0.7242755889892578,0.17814397811889648,7.739999999999879
-0.43334829807281494,0.46239757537841797,0.25967395305633545,7.749999999999879
-0.16775941848754883,0.37316131591796875,0.08549809455871582,7.759999999999879
0.2682200074195862,0.7481698989868164,0.481692910194397,7.769999999999879
0.24980616569519043,0.4605226516723633,0.18211722373962402,7.779999999999879
-0.0032444000244140625,0.12065696716308594,0.096035897731781,7.789999999999878
-0.005220651626586914,-0.04178619384765625,0.1541174054145813,7.799999999999878
-0.09848678112030029,-0.04617118835449219,0.06220841407775879,7.809999999999878
-0.29273509979248047,-0.19163036346435547,-0.17016065120697021,7.819999999999878
-0.5262883901596069,-0.5593585968017578,-0.31082582473754883,7.8299999999998775
-0.6076384782791138,-0.7281970977783203,-0.39068639278411865,7.839999999999877
-0.6350939273834229,-0.8083686828613281,-0.4404844045639038,7.849999999999877
-0.8094121217727661,-0.8549308776855469,-0.11550348997116089,7.859999999999877
-0.7474832534790039,-0.7842473983764648,-0.5909224152565002,7.869999999999877
-0.8201466798782349,-0.5797510147094727,-0.6036412119865417,7.879999999999876
-0.8355355262756348,-0.4089241027832031,-0.46249788999557495,7.889999999999876
-0.9083600044250488,-0.6780319213867188,1.176134705543518,7.899999999999876
-0.988577127456665,-0.4566316604614258,-0.47010302543640137,7.909999999999876
-0.5729504823684692,-0.240264892578125,-0.5851268172264099,7.919999999999876
-0.9826909303665161,-0.3875999450683594,-0.10717236995697021,7.929999999999875
-1.0883352756500244,-0.35538482666015625,0.2462056279182434,7.939999999999875
-0.9856153726577759,-0.19644451141357422,0.1662866175174713,7.949999999999875
-0.9088590145111084,0.11059761047363281,0.32535111904144287,7.959999999999875
-0.848414421081543,-0.14937973022460938,0.4553025960922241,7.9699999999998745
-1.0996341705322266,-0.583648681640625,0.40085431933403015,7.979999999999874
-1.4143340587615967,-1.1227474212646484,0.23867079615592957,7.989999999999874
-0.8754826784133911,-1.2021465301513672,-0.22050917148590088,7.999999999999874
