AccX,AccY,AccZ,SampleRate
1.7634706497192383,3.1434640884399414,-5.865438938140869,0
0.7365767955780029,4.2793378829956055,-5.285885810852051,0.01
-0.17057371139526367,4.887265205383301,-4.6183953285217285,0.02
-0.8225732445716858,5.17603874206543,-4.084530830383301,0.03
-1.3825836181640625,5.420900344848633,-3.4965438842773438,0.04
-1.7575554847717285,5.602505683898926,-2.6299049854278564,0.05
-1.7444528341293335,5.763486862182617,-1.8002574443817139,0.060000000000000005
-1.1666922569274902,5.99406623840332,-1.486452579498291,0.07
-0.596767783164978,6.233839988708496,-1.546642541885376,0.08
-0.15106236934661865,6.537529945373535,-1.6580498218536377,0.09
0.0169907808303833,6.780791282653809,-1.5818374156951904,0.09999999999999999
-0.21403038501739502,6.911564826965332,-1.490532636642456,0.10999999999999999
-0.7007410526275635,7.310656547546387,-1.3984129428863525,0.11999999999999998
-0.8842811584472656,6.827967643737793,-1.115770697593689,0.12999999999999998
-0.7457209825515747,6.196135520935059,-0.8216612339019775,0.13999999999999999
-1.0350227355957031,5.374855995178223,-0.3647858500480652,0.15
-1.6098307371139526,4.476998329162598,0.36487913131713867,0.16
-1.9146968126296997,2.7662715911865234,1.0490813255310059,0.17
-2.070035696029663,1.2575559616088867,1.1471002101898193,0.18000000000000002
-2.236738443374634,0.18987274169921875,0.6511325836181641,0.19000000000000003
-2.441871166229248,-0.39414119720458984,0.03448474407196045,0.20000000000000004
-2.3711624145507812,-0.4787120819091797,-0.607251763343811,0.21000000000000005
-1.9750224351882935,-0.42137813568115234,-1.1635686159133911,0.22000000000000006
-1.873948335647583,-0.42851924896240234,-1.6216484308242798,0.23000000000000007
-2.013622522354126,-0.5530948638916016,-2.0145509243011475,0.24000000000000007
-2.1772680282592773,-1.1586380004882812,-2.406829595565796,0.25000000000000006
-2.1371192932128906,-1.8479275703430176,-2.664229393005371,0.26000000000000006
-1.9939078092575073,-2.4632959365844727,-2.738586187362671,0.2700000000000001
-1.7959591150283813,-2.7754201889038086,-2.8260915279388428,0.2800000000000001
-1.4102497100830078,-2.9715585708618164,-2.5044796466827393,0.2900000000000001
-0.8251662254333496,-4.014002799987793,-1.225560188293457,0.3000000000000001
-0.12937188148498535,-5.041451930999756,-0.5337173938751221,0.3100000000000001
0.016563892364501953,-5.644962310791016,-0.4216420650482178,0.3200000000000001
0.05703234672546387,-5.867951393127441,-0.41088390350341797,0.3300000000000001
-0.15432310104370117,-5.739184856414795,-0.5673162937164307,0.34000000000000014
-0.246820330619812,-5.60275411605835,-0.9431033134460449,0.35000000000000014
-0.43916571140289307,-4.748093605041504,-1.3505269289016724,0.36000000000000015
-0.2889610528945923,-4.235089302062988,-1.7041107416152954,0.37000000000000016
-0.34680163860321045,-4.61538028717041,-1.5162187814712524,0.38000000000000017
-0.19858694076538086,-5.913871765136719,-0.9528630971908569,0.3900000000000002
-0.24163472652435303,-6.7760515213012695,-0.4332540035247803,0.4000000000000002
-0.4765808582305908,-7.022818565368652,-0.4412045478820801,0.4100000000000002
-0.504212498664856,-7.550952911376953,-0.44931840896606445,0.4200000000000002
-0.6044632196426392,-7.8072710037231445,-0.6650235652923584,0.4300000000000002
-0.42793166637420654,-7.925910949707031,-0.816117525100708,0.4400000000000002
-0.30475640296936035,-7.871393203735352,-0.7325265407562256,0.45000000000000023
-0.35976648330688477,-7.510136127471924,-0.767979621887207,0.46000000000000024
-0.7205797433853149,-6.355218887329102,-0.7009010314941406,0.47000000000000025
-0.8609409332275391,-5.312087535858154,-0.531815767288208,0.48000000000000026
-0.8859479427337646,-5.031193256378174,-0.5037164688110352,0.49000000000000027
-0.8412339687347412,-4.349867343902588,-0.48656749725341797,0.5000000000000002
-0.9412044882774353,-4.177248001098633,-0.501887321472168,0.5100000000000002
-1.0900120735168457,-3.989187717437744,-0.38669443130493164,0.5200000000000002
-1.3906651735305786,-3.7977981567382812,-0.1549849510192871,0.5300000000000002
-1.5438270568847656,-3.777757167816162,0.09781527519226074,0.5400000000000003
-1.755298137664795,-3.806966781616211,0.3647491931915283,0.5500000000000003
-1.8386213779449463,-3.7610654830932617,0.5742521286010742,0.5600000000000003
-2.0068538188934326,-3.6161627769470215,0.6999413967132568,0.5700000000000003
-2.083185911178589,-3.2335867881774902,0.7846581935882568,0.5800000000000003
-2.0771677494049072,-2.9266700744628906,0.7514495849609375,0.5900000000000003
-1.849752426147461,-2.6161861419677734,0.6617987155914307,0.6000000000000003
-1.6712298393249512,-2.2253494262695312,0.5913782119750977,0.6100000000000003
-1.364150047302246,-1.9596099853515625,0.49852633476257324,0.6200000000000003
-1.1200320720672607,-1.5746431350708008,0.4540867805480957,0.6300000000000003
-1.0252602100372314,-1.130147933959961,0.4884803295135498,0.6400000000000003
-0.7592479586601257,-0.6020641326904297,0.5600743293762207,0.6500000000000004
-0.8342984318733215,-0.0019626617431640625,0.5142457485198975,0.6600000000000004
-1.0449135303497314,0.7924814224243164,0.478618860244751,0.6700000000000004
-1.1326911449432373,1.5925092697143555,0.42772555351257324,0.6800000000000004
-1.1815675497055054,2.5013504028320312,0.19489574432373047,0.6900000000000004
-1.3498910665512085,3.4785804748535156,0.1042628288269043,0.7000000000000004
-1.7268458604812622,4.612658500671387,0.5333445072174072,0.7100000000000004
-2.2623114585876465,5.874260902404785,1.6839356422424316,0.7200000000000004
-1.8309705257415771,6.819894790649414,3.383556365966797,0.7300000000000004
-1.0421031713485718,7.494309425354004,5.211542129516602,0.7400000000000004
-0.13874924182891846,7.791556358337402,6.846061706542969,0.7500000000000004
0.8493860960006714,7.749203681945801,8.13075065612793,0.7600000000000005
1.782299280166626,7.2686767578125,8.959184646606445,0.7700000000000005
2.469003677368164,6.333436965942383,9.044231414794922,0.7800000000000005
3.087294101715088,4.970539093017578,8.501164436340332,0.7900000000000005
3.635422706604004,2.3540802001953125,7.5890727043151855,0.8000000000000005
3.5059595108032227,2.4298105239868164,7.072562217712402,0.8100000000000005
4.034061908721924,0.27852725982666016,6.786303520202637,0.8200000000000005
4.079835891723633,-1.419205665588379,6.30290412902832,0.8300000000000005
3.735405683517456,-2.835777759552002,5.460756301879883,0.8400000000000005
3.167509078979492,-3.975527286529541,3.631561040878296,0.8500000000000005
2.855374813079834,-4.596652030944824,1.6324763298034668,0.8600000000000005
2.294382095336914,-5.105422496795654,-0.22768354415893555,0.8700000000000006
1.8511624336242676,-5.161605358123779,-1.8179908990859985,0.8800000000000006
1.1625243425369263,-4.834370136260986,-2.859055757522583,0.8900000000000006
0.17854392528533936,-4.276501655578613,-3.855651617050171,0.9000000000000006
-0.4706936478614807,-3.4211959838867188,-4.774400234222412,0.9100000000000006
-1.0092016458511353,-2.0446319580078125,-5.37838888168335,0.9200000000000006
-1.0955995321273804,-0.6664533615112305,-6.482393741607666,0.9300000000000006
-0.9114309549331665,2.3958349227905273,-7.049661636352539,0.9400000000000006
-0.4131208062171936,5.889543533325195,-8.067532539367676,0.9500000000000006
-0.45077526569366455,10.60915756225586,-8.17672061920166,0.9600000000000006
0.41581881046295166,15.762673377990723,-7.425678253173828,0.9700000000000006
2.0093774795532227,19.50678253173828,-6.021386623382568,0.9800000000000006
1.493638515472412,22.693660736083984,-5.888934135437012,0.9900000000000007
-0.4868120551109314,25.500804901123047,-6.8957977294921875,1.0000000000000007
-2.8833189010620117,26.927412033081055,-7.5285468101501465,1.0100000000000007
-3.6032981872558594,23.360069274902344,-7.009711742401123,1.0200000000000007
-4.034578323364258,15.394652366638184,-6.551921844482422,1.0300000000000007
-4.339979648590088,8.967424392700195,-5.476386547088623,1.0400000000000007
-3.9182305335998535,3.66658878326416,-3.2779815196990967,1.0500000000000007
-2.5825438499450684,-0.9386510848999023,-1.0203027725219727,1.0600000000000007
-1.329573631286621,-4.617877006530762,0.5624933242797852,1.0700000000000007
-0.7273622751235962,-7.7235918045043945,0.8610327243804932,1.0800000000000007
-0.31952184438705444,-10.287166595458984,0.1929764747619629,1.0900000000000007
0.13447880744934082,-11.893024444580078,-0.5377621650695801,1.1000000000000008
-0.566211462020874,-11.91806697845459,-1.6232365369796753,1.1100000000000008
-0.32207828760147095,-11.481067657470703,-2.2451229095458984,1.1200000000000008
0.48341429233551025,-11.238274574279785,-2.3760986328125,1.1300000000000008
1.158035397529602,-11.023273468017578,-2.066718101501465,1.1400000000000008
1.6861989498138428,-10.627067565917969,-1.8600841760635376,1.1500000000000008
2.0037827491760254,-9.886086463928223,-2.5867996215820312,1.1600000000000008
2.424778461456299,-8.892620086669922,-3.2306926250457764,1.1700000000000008
2.625580310821533,-7.779566764831543,-3.541177272796631,1.1800000000000008
2.7641754150390625,-6.820505142211914,-3.8954362869262695,1.1900000000000008
2.9521453380584717,-6.032448768615723,-4.319575786590576,1.2000000000000008
3.3502073287963867,-5.121140003204346,-4.5823869705200195,1.2100000000000009
3.711719274520874,-3.7467451095581055,-4.617056846618652,1.2200000000000009
3.6098413467407227,-1.595719337463379,-4.74397087097168,1.2300000000000009
2.703124761581421,0.9472446441650391,-5.005240440368652,1.2400000000000009
0.9628345370292664,4.165534019470215,-4.9373674392700195,1.2500000000000009
-1.3057124614715576,5.871942520141602,-4.503720760345459,1.260000000000001
-3.3894805908203125,7.231161117553711,-3.9742472171783447,1.270000000000001
-5.029325485229492,8.316009521484375,-3.3275651931762695,1.280000000000001
-5.897866725921631,8.570207595825195,-2.8891854286193848,1.290000000000001
-5.416948318481445,7.021883010864258,-2.6472434997558594,1.300000000000001
-3.3738346099853516,3.508136749267578,-1.7945430278778076,1.310000000000001
-2.15183162689209,0.809535026550293,-1.0932179689407349,1.320000000000001
-1.5165557861328125,-1.0322198867797852,-0.6345722675323486,1.330000000000001
-1.3298734426498413,-2.3006792068481445,-0.2224026322364807,1.340000000000001
-1.2654045820236206,-3.3124446868896484,-0.050373852252960205,1.350000000000001
-1.2126225233078003,-3.979668140411377,-0.03370755910873413,1.360000000000001
-1.0418481826782227,-4.4704766273498535,-0.13759678602218628,1.370000000000001
-0.5986155271530151,-4.699443340301514,-0.3753662109375,1.380000000000001
-0.17483139038085938,-4.820494174957275,-0.7867394089698792,1.390000000000001
0.06264638900756836,-5.011368274688721,-1.3129549026489258,1.400000000000001
0.0792320966720581,-4.925730228424072,-1.6052165031433105,1.410000000000001
-0.06978952884674072,-4.712474346160889,-1.5461379289627075,1.420000000000001
-0.11208868026733398,-4.460399150848389,-1.1998677253723145,1.430000000000001
-0.11830711364746094,-4.181399345397949,-1.1026935577392578,1.440000000000001
0.15179264545440674,-3.5834879875183105,-1.2093884944915771,1.450000000000001
0.5700790882110596,-2.7599334716796875,-1.3067905902862549,1.460000000000001
0.9096956253051758,-1.9496116638183594,-1.211151361465454,1.470000000000001
1.218677282333374,-1.355245590209961,-0.6477051377296448,1.480000000000001
1.4211159944534302,-1.0192785263061523,0.24102945625782013,1.490000000000001
1.5399048328399658,-0.9005756378173828,0.9430541396141052,1.500000000000001
1.508025884628296,-0.9988651275634766,1.3757779598236084,1.5100000000000011
1.4456981420516968,-1.1489849090576172,1.4158421754837036,1.5200000000000011
1.1915189027786255,-1.3367109298706055,1.1478514671325684,1.5300000000000011
0.8361111879348755,-1.700972080230713,0.6803651452064514,1.5400000000000011
0.30482637882232666,-1.9668383598327637,0.2793032228946686,1.5500000000000012
-0.12869763374328613,-2.213441848754883,0.10502663999795914,1.5600000000000012
-0.4180939197540283,-2.4552736282348633,0.15284939110279083,1.5700000000000012
-0.5078843832015991,-2.591975688934326,0.33853811025619507,1.5800000000000012
-0.518358588218689,-2.365361213684082,0.42645227909088135,1.5900000000000012
-0.3907202482223511,-2.029202938079834,0.6548782587051392,1.6000000000000012
-0.2626875638961792,-1.4782905578613281,0.8000044822692871,1.6100000000000012
0.008287310600280762,-0.9901828765869141,1.0140283107757568,1.6200000000000012
0.34023261070251465,-0.6819524765014648,1.2197842597961426,1.6300000000000012
0.6563210487365723,-0.48166751861572266,1.4888020753860474,1.6400000000000012
0.9276851415634155,-0.30312442779541016,1.691902995109558,1.6500000000000012
1.2044780254364014,-0.12480831146240234,1.8172128200531006,1.6600000000000013
1.3073848485946655,0.02217578887939453,1.8483085632324219,1.6700000000000013
1.341706395149231,0.16180133819580078,1.764230489730835,1.6800000000000013
1.3241987228393555,0.25828075408935547,1.8696730136871338,1.6900000000000013
1.3381606340408325,0.5268878936767578,1.7075674533843994,1.7000000000000013
1.4812675714492798,0.7307214736938477,1.7135376930236816,1.7100000000000013
1.734157919883728,1.1328916549682617,1.8732798099517822,1.7200000000000013
2.029489040374756,1.216695785522461,2.026479482650757,1.7300000000000013
2.3643598556518555,1.3555116653442383,2.098511219024658,1.7400000000000013
2.532604217529297,1.5419721603393555,1.961531400680542,1.7500000000000013
2.469123125076294,1.632420539855957,1.5737662315368652,1.7600000000000013
2.426748037338257,1.813429832458496,1.097438097000122,1.7700000000000014
2.28952693939209,1.9319210052490234,0.7456439733505249,1.7800000000000014
2.2220301628112793,1.8638343811035156,0.7327510118484497,1.7900000000000014
2.308574914932251,1.4924917221069336,1.149739146232605,1.8000000000000014
2.511138439178467,1.0957489013671875,1.5264379978179932,1.8100000000000014
2.798694133758545,0.9294567108154297,1.9896687269210815,1.8200000000000014
3.4754295349121094,1.1366968154907227,2.5414562225341797,1.8300000000000014
3.8785600662231445,1.5066814422607422,3.469486951828003,1.8400000000000014
4.0607452392578125,2.4217519760131836,4.00536584854126,1.8500000000000014
3.7635786533355713,3.343165397644043,4.222908020019531,1.8600000000000014
3.284236192703247,4.065218925476074,4.251223564147949,1.8700000000000014
2.5300345420837402,4.387234687805176,4.1331682205200195,1.8800000000000014
1.6931177377700806,4.295302391052246,4.028967380523682,1.8900000000000015
1.1332314014434814,3.701383590698242,4.010280609130859,1.9000000000000015
0.8273908495903015,2.78292179107666,3.957226514816284,1.9100000000000015
0.7930483818054199,1.8175926208496094,3.7406492233276367,1.9200000000000015
0.8224695324897766,0.965601921081543,3.155085563659668,1.9300000000000015
0.8312433362007141,0.32965660095214844,2.1865241527557373,1.9400000000000015
1.023078203201294,0.045673370361328125,1.0644453763961792,1.9500000000000015
0.9043624401092529,-0.12600040435791016,-0.1667490005493164,1.9600000000000015
1.0196583271026611,-0.22374439239501953,-0.9717761278152466,1.9700000000000015
1.2370173931121826,-0.14005184173583984,-1.4206219911575317,1.9800000000000015
1.367122769355774,0.007517814636230469,-1.9670958518981934,1.9900000000000015
1.445624828338623,0.2546367645263672,-2.6290030479431152,2.0000000000000013
1.3115010261535645,0.5487422943115234,-3.223935127258301,2.010000000000001
1.2416636943817139,0.8253011703491211,-4.005484580993652,2.020000000000001
1.240182638168335,1.1705379486083984,-4.765231132507324,2.0300000000000007
1.6266355514526367,1.223367691040039,-5.4774017333984375,2.0400000000000005
1.9753601551055908,1.4936256408691406,-6.054384708404541,2.0500000000000003
2.488872528076172,1.4790401458740234,-6.3821611404418945,2.06
2.3190219402313232,1.1897573471069336,-6.50968599319458,2.07
1.6675615310668945,1.2024908065795898,-6.78751802444458,2.0799999999999996
1.166322112083435,1.610093116760254,-7.087033271789551,2.0899999999999994
0.18083512783050537,2.1922378540039062,-7.197459697723389,2.099999999999999
-1.1291817426681519,2.815060615539551,-7.1177544593811035,2.109999999999999
-2.425689935684204,3.342576026916504,-6.664333343505859,2.1199999999999988
-3.645888566970825,4.057308197021484,-5.85244607925415,2.1299999999999986
-4.540284156799316,4.808479309082031,-4.985228061676025,2.1399999999999983
-4.88115119934082,5.093926429748535,-3.940105676651001,2.149999999999998
-5.08459997177124,5.543135643005371,-2.9214606285095215,2.159999999999998
-5.011430263519287,6.241931915283203,-1.8634498119354248,2.1699999999999977
-4.449174880981445,6.508145332336426,-1.0853567123413086,2.1799999999999975
-4.002108097076416,6.925436019897461,-0.5815819501876831,2.1899999999999973
-3.373556613922119,7.309378623962402,-0.5624533891677856,2.199999999999997
-2.88694429397583,7.585883140563965,-0.7916567325592041,2.209999999999997
-2.5929670333862305,7.551880836486816,-0.8958511352539062,2.2199999999999966
-2.3371963500976562,7.368099212646484,-1.0731099843978882,2.2299999999999964
-2.3053064346313477,6.932145118713379,-1.33041512966156,2.239999999999996
-2.165689706802368,6.194250106811523,-1.543182611465454,2.249999999999996
-1.7484424114227295,5.3340349197387695,-1.501017451286316,2.259999999999996
-1.2058579921722412,4.353787422180176,-1.2065479755401611,2.2699999999999956
-0.9514657258987427,3.30615234375,-0.9804355502128601,2.2799999999999954
-0.9468622207641602,1.7583942413330078,-0.6646080017089844,2.289999999999995
-0.9514291286468506,0.9977846145629883,-0.23314189910888672,2.299999999999995
-0.8295414447784424,0.24869632720947266,-0.09958088397979736,2.3099999999999947
-0.9293748140335083,-0.08454608917236328,-0.3113659620285034,2.3199999999999945
-0.7941251993179321,0.39932918548583984,-0.7178807258605957,2.3299999999999943
-0.6997755765914917,0.704319953918457,-1.2381643056869507,2.339999999999994
-0.6661684513092041,0.8685398101806641,-1.5230329036712646,2.349999999999994
-0.6654915809631348,0.5308265686035156,-1.8672611713409424,2.3599999999999937
-0.7804627418518066,0.15071678161621094,-2.36671781539917,2.3699999999999934
-0.6057817935943604,-0.7028570175170898,-1.988569974899292,2.3799999999999932
-0.42833995819091797,-1.286067008972168,-1.8878026008605957,2.389999999999993
-0.24995636940002441,-1.8985047340393066,-2.025308609008789,2.399999999999993
0.16533493995666504,-2.8088765144348145,-1.7318902015686035,2.4099999999999926
0.5907406806945801,-3.6660704612731934,-1.2071363925933838,2.4199999999999924
0.6861045360565186,-4.161863327026367,-1.089187741279602,2.429999999999992
0.7426919937133789,-4.55055570602417,-0.8378283977508545,2.439999999999992
1.3180880546569824,-5.908807754516602,-0.07912945747375488,2.4499999999999917
1.0619075298309326,-6.436706066131592,-0.1064753532409668,2.4599999999999915
0.6070129871368408,-6.607996940612793,-0.0666050910949707,2.4699999999999913
0.1379849910736084,-6.3101043701171875,-0.024829626083374023,2.479999999999991
-0.39058566093444824,-5.990220069885254,0.09760785102844238,2.489999999999991
-0.5722981691360474,-5.482646942138672,-0.39064621925354004,2.4999999999999907
-0.9541369080543518,-4.6554179191589355,-0.8327722549438477,2.5099999999999905
-1.0100682973861694,-4.008464336395264,-1.1266648769378662,2.5199999999999902
-1.3963487148284912,-4.28012752532959,-1.3902933597564697,2.52999999999999
-1.1911749839782715,-5.340367317199707,-0.9134261608123779,2.53999999999999
-1.0133501291275024,-6.671916484832764,-0.5269219875335693,2.5499999999999896
-0.8763154745101929,-7.289149284362793,-0.4493894577026367,2.5599999999999894
-0.8184046745300293,-7.66367244720459,-0.6312949657440186,2.569999999999989
-0.7321468591690063,-7.898613452911377,-0.9047625064849854,2.579999999999989
-0.6964874863624573,-7.915389537811279,-1.0587537288665771,2.5899999999999888
-0.7642560005187988,-7.79336404800415,-1.0113303661346436,2.5999999999999885
-1.1153333187103271,-7.398937225341797,-0.9053962230682373,2.6099999999999883
-1.4464548826217651,-6.5438361167907715,-0.6846685409545898,2.619999999999988
-1.521093726158142,-5.645087242126465,-0.49378490447998047,2.629999999999988
-1.674005150794983,-5.0186848640441895,-0.31754183769226074,2.6399999999999877
-1.837972640991211,-4.731366157531738,-0.22017121315002441,2.6499999999999875
-1.9508057832717896,-4.706203937530518,-0.0030617713928222656,2.6599999999999873
-2.009962797164917,-4.682285785675049,0.21894621849060059,2.669999999999987
-2.094235420227051,-4.583041191101074,0.35239386558532715,2.679999999999987
-2.201333999633789,-4.439512729644775,0.4688289165496826,2.6899999999999866
-2.3049092292785645,-4.273176670074463,0.5297873020172119,2.6999999999999864
-2.3284449577331543,-4.064836502075195,0.6021008491516113,2.709999999999986
-2.1760714054107666,-3.8575448989868164,0.7095034122467041,2.719999999999986
-2.12573504447937,-3.6032700538635254,0.7105004787445068,2.7299999999999858
-1.9603618383407593,-3.1893186569213867,0.6474039554595947,2.7399999999999856
-1.8430840969085693,-2.701615333557129,0.4858100414276123,2.7499999999999853
-1.8529237508773804,-2.149331569671631,0.2767355442047119,2.759999999999985
-1.8245795965194702,-1.5368680953979492,0.020656108856201172,2.769999999999985
-1.8607769012451172,-0.8377056121826172,-0.09489655494689941,2.7799999999999847
-1.8800997734069824,-0.16894054412841797,-0.08062314987182617,2.7899999999999845
-2.0141208171844482,0.5198335647583008,-0.13604378700256348,2.7999999999999843
-2.1356990337371826,1.3126249313354492,-0.5379620790481567,2.809999999999984
-2.175264835357666,2.183469772338867,-1.097147822380066,2.819999999999984
-2.2315192222595215,3.283466339111328,-1.311213493347168,2.8299999999999836
-2.4707798957824707,4.708339691162109,-0.6314496994018555,2.8399999999999834
-2.187678337097168,5.96002197265625,1.112471103668213,2.849999999999983
-1.7034218311309814,6.997408866882324,3.4037458896636963,2.859999999999983
-1.1934012174606323,7.896383285522461,5.892465591430664,2.869999999999983
-0.2862982749938965,8.89968204498291,8.327947616577148,2.8799999999999826
0.616158127784729,9.963005065917969,10.171991348266602,2.8899999999999824
1.4968135356903076,10.966358184814453,11.128185272216797,2.899999999999982
2.518873929977417,11.105133056640625,11.30902099609375,2.909999999999982
3.416431427001953,10.147595405578613,10.600890159606934,2.9199999999999817
4.068221092224121,8.62735366821289,9.028987884521484,2.9299999999999815
4.712854385375977,5.22453498840332,7.455508232116699,2.9399999999999813
5.099449157714844,1.3281831741333008,5.363001823425293,2.949999999999981
4.9673027992248535,-1.8386268615722656,2.807717800140381,2.959999999999981
4.625819683074951,-4.113854885101318,1.0296642780303955,2.9699999999999807
3.620842933654785,-5.653559684753418,-0.03388214111328125,2.9799999999999804
1.7058131694793701,-5.905267715454102,-0.8111470937728882,2.9899999999999802
0.6499506235122681,-5.622964859008789,-1.4915601015090942,2.99999999999998
0.055027127265930176,-4.937857151031494,-2.220566749572754,3.00999999999998
-0.6365141868591309,-3.799408435821533,-2.911339282989502,3.0199999999999796
-1.7767692804336548,-2.6000003814697266,-3.5225367546081543,3.0299999999999794
-2.6705360412597656,-0.9550809860229492,-3.993439197540283,3.039999999999979
-2.685732126235962,1.454869270324707,-4.853330612182617,3.049999999999979
-1.9641478061676025,4.659886360168457,-5.980018615722656,3.0599999999999787
-1.980268955230713,9.201254844665527,-6.755505561828613,3.0699999999999785
-1.533476710319519,14.14607048034668,-7.113933563232422,3.0799999999999783
-0.9264721870422363,18.919628143310547,-6.556181907653809,3.089999999999978
-0.8525264263153076,22.24753189086914,-6.03608512878418,3.099999999999978
-1.1976841688156128,25.008455276489258,-5.8795881271362305,3.1099999999999777
-1.7933602333068848,25.64316177368164,-6.434218406677246,3.1199999999999775
-1.4476723670959473,22.87238311767578,-6.361932754516602,3.1299999999999772
-2.2940807342529297,15.56978702545166,-6.469178676605225,3.139999999999977
-3.214484214782715,9.826042175292969,-6.682657718658447,3.149999999999977
-3.2509028911590576,5.326088905334473,-5.488516807556152,3.1599999999999766
-2.4677343368530273,0.75018310546875,-3.4988856315612793,3.1699999999999764
-0.6032037138938904,-3.5722451210021973,-2.2413127422332764,3.179999999999976
0.82228684425354,-7.64874267578125,-1.8498369455337524,3.189999999999976
2.0204684734344482,-11.357460975646973,-2.023837089538574,3.1999999999999758
2.5998189449310303,-14.49781608581543,-2.21388840675354,3.2099999999999755
2.0820584297180176,-16.390758514404297,-2.384323835372925,3.2199999999999753
-1.0159915685653687,-15.824810981750488,-2.7966246604919434,3.229999999999975
-1.774200439453125,-14.834212303161621,-2.1300058364868164,3.239999999999975
-1.8218863010406494,-13.887506484985352,-1.228332757949829,3.2499999999999747
-1.5583891868591309,-12.98836898803711,-1.0891906023025513,3.2599999999999745
-0.8701893091201782,-11.583332061767578,-1.2893095016479492,3.2699999999999743
-0.4136733412742615,-10.152029037475586,-2.096020460128784,3.279999999999974
0.06056177616119385,-9.576739311218262,-3.3561787605285645,3.289999999999974
0.7803394794464111,-8.488654136657715,-4.306774616241455,3.2999999999999736
1.8787022829055786,-7.127711296081543,-4.297517776489258,3.3099999999999734
2.954822540283203,-5.769247055053711,-3.982316255569458,3.319999999999973
3.8461833000183105,-3.1097421646118164,-3.8812084197998047,3.329999999999973
4.587459087371826,0.38848876953125,-3.732877492904663,3.3399999999999728
4.557212829589844,3.4201107025146484,-3.6491212844848633,3.3499999999999726
4.0326457023620605,6.068086624145508,-3.343759536743164,3.3599999999999723
2.5824365615844727,8.69981861114502,-3.161281108856201,3.369999999999972
0.8063675761222839,10.507723808288574,-2.697455883026123,3.379999999999972
-0.5565422773361206,11.571779251098633,-2.135584831237793,3.3899999999999717
-1.4372755289077759,11.579679489135742,-1.724623441696167,3.3999999999999715
-1.9666621685028076,10.398979187011719,-1.767290711402893,3.4099999999999713
-1.7589597702026367,6.605960845947266,-1.537961721420288,3.419999999999971
-1.57468843460083,2.6044864654541016,-1.5389846563339233,3.429999999999971
-2.5554358959198,-0.3067741394042969,-1.645394206047058,3.4399999999999706
-3.787419080734253,-2.401979923248291,-1.187721610069275,3.4499999999999704
-4.669487953186035,-3.7851977348327637,-0.9692882895469666,3.45999999999997
-4.984423637390137,-4.641597747802734,-1.0101553201675415,3.46999999999997
-4.900237560272217,-5.216042995452881,-0.8501073122024536,3.47999999999997
-4.599217891693115,-5.387954235076904,0.2765917181968689,3.4899999999999696
-3.783400058746338,-5.400514125823975,1.6852506399154663,3.4999999999999694
-3.2276153564453125,-5.373870372772217,1.6788098812103271,3.509999999999969
-2.466036319732666,-4.975455284118652,0.5219214558601379,3.519999999999969
-0.9040024280548096,-4.391912460327148,-1.3912241458892822,3.5299999999999687
0.581336498260498,-4.041772842407227,-2.997260570526123,3.5399999999999685
1.7321841716766357,-3.932072162628174,-3.477503538131714,3.5499999999999683
2.3109946250915527,-3.529376983642578,-3.1171035766601562,3.559999999999968
2.5384159088134766,-2.9678549766540527,-1.9158620834350586,3.569999999999968
2.5362327098846436,-2.252244472503662,-0.19457650184631348,3.5799999999999677
2.4261064529418945,-1.8510279655456543,1.0841418504714966,3.5899999999999674
2.372736930847168,-1.6700987815856934,1.4370545148849487,3.5999999999999672
2.271578073501587,-1.4458446502685547,1.0926586389541626,3.609999999999967
2.234342098236084,-1.163797378540039,0.7017402648925781,3.619999999999967
2.2610726356506348,-1.0894079208374023,0.37865355610847473,3.6299999999999666
2.14446759223938,-1.2057733535766602,0.28599226474761963,3.6399999999999664
2.0079238414764404,-1.4649972915649414,0.18685390055179596,3.649999999999966
1.7667242288589478,-1.7762084007263184,0.23470816016197205,3.659999999999966
1.486925482749939,-2.16102933883667,0.1808103322982788,3.6699999999999657
1.0807603597640991,-2.365957260131836,0.1396598219871521,3.6799999999999655
0.6612704992294312,-2.338650703430176,0.2252752184867859,3.6899999999999653
0.4204357862472534,-2.306633472442627,0.4296804666519165,3.699999999999965
0.2838679552078247,-2.2483835220336914,0.5627577900886536,3.709999999999965
0.25790929794311523,-2.0108323097229004,0.7020077705383301,3.7199999999999647
0.46849167346954346,-1.7496042251586914,0.8555976152420044,3.7299999999999645
0.8310649394989014,-1.3714942932128906,1.1036494970321655,3.7399999999999642
1.1489441394805908,-1.1181678771972656,1.4791667461395264,3.749999999999964
1.3908611536026,-0.9703731536865234,1.8887171745300293,3.759999999999964
1.6362420320510864,-0.9878597259521484,2.342115879058838,3.7699999999999636
1.7518266439437866,-1.0294599533081055,2.6818809509277344,3.7799999999999634
1.7144231796264648,-1.085698127746582,2.6665921211242676,3.789999999999963
1.5003551244735718,-0.9270401000976562,2.4903950691223145,3.799999999999963
1.2002986669540405,-0.7712469100952148,2.498347282409668,3.8099999999999627
0.9720765352249146,-0.5895767211914062,2.317589282989502,3.8199999999999625
0.8852980136871338,-0.5923938751220703,2.528252124786377,3.8299999999999623
0.8315191268920898,-0.25808143615722656,2.374429225921631,3.839999999999962
0.850612998008728,0.03282737731933594,2.3130221366882324,3.849999999999962
0.9995788335800171,0.21823883056640625,2.243311643600464,3.8599999999999617
1.3544868230819702,0.3675851821899414,2.183870553970337,3.8699999999999615
1.8431028127670288,0.6721315383911133,1.9475030899047852,3.8799999999999613
2.4328298568725586,0.5601615905761719,1.9176726341247559,3.889999999999961
2.637906789779663,0.6754207611083984,1.8286898136138916,3.899999999999961
2.450023651123047,0.9793062210083008,1.3609453439712524,3.9099999999999606
2.217381238937378,1.4977731704711914,0.5252633690834045,3.9199999999999604
1.8614979982376099,2.386019706726074,-0.13338017463684082,3.92999999999996
1.4671858549118042,2.8380117416381836,-0.3365415334701538,3.93999999999996
1.1559282541275024,3.0100460052490234,0.11145126819610596,3.9499999999999598
0.7576282024383545,3.0509204864501953,0.7786869406700134,3.9599999999999596
0.6201130151748657,2.6021251678466797,1.4409838914871216,3.9699999999999593
0.756903350353241,2.108898162841797,2.1608972549438477,3.979999999999959
0.9993656873703003,1.8412847518920898,2.76804256439209,3.989999999999959
1.0970475673675537,2.0117082595825195,3.3579258918762207,3.9999999999999587
1.1697393655776978,2.430727005004883,3.8086891174316406,4.009999999999959
1.0566394329071045,3.0143394470214844,3.9169530868530273,4.019999999999959
0.54200279712677,3.551912307739258,3.77352237701416,4.0299999999999585
-0.02977442741394043,3.916688919067383,3.3970510959625244,4.039999999999958
-0.4768473505973816,3.931842803955078,2.971289873123169,4.049999999999958
-0.7482348084449768,3.5140247344970703,2.627639055252075,4.059999999999958
-0.8337976932525635,2.745062828063965,2.26591157913208,4.069999999999958
-0.6994766592979431,1.9099111557006836,1.7285792827606201,4.079999999999957
-0.5435207486152649,1.1806488037109375,0.7423602938652039,4.089999999999957
-0.01906949281692505,0.741084098815918,-0.4685635566711426,4.099999999999957
0.34724199771881104,0.5310831069946289,-1.4950991868972778,4.109999999999957
0.550382673740387,0.33759403228759766,-2.0409770011901855,4.119999999999957
0.6885166168212891,0.22746562957763672,-2.530700445175171,4.129999999999956
0.8313465118408203,0.27225399017333984,-2.895569324493408,4.139999999999956
0.6101568341255188,0.5625486373901367,-3.160717487335205,4.149999999999956
0.45792776346206665,0.8420791625976562,-3.533297061920166,4.159999999999956
0.11348497867584229,1.1754512786865234,-3.9037864208221436,4.1699999999999555
-0.10856825113296509,1.6989641189575195,-4.263652801513672,4.179999999999955
0.12081122398376465,1.9486474990844727,-4.333674430847168,4.189999999999955
0.7117151021957397,1.8725366592407227,-4.685243606567383,4.199999999999955
1.6030144691467285,1.2872562408447266,-5.4274373054504395,4.209999999999955
2.0183727741241455,0.5548820495605469,-6.284179210662842,4.2199999999999545
2.216331958770752,0.5032758712768555,-6.967329978942871,4.229999999999954
1.8745651245117188,1.0697898864746094,-7.195311546325684,4.239999999999954
1.008029580116272,1.7590141296386719,-7.000513076782227,4.249999999999954
-0.06503027677536011,2.5232105255126953,-6.634232044219971,4.259999999999954
-1.1609059572219849,3.5203733444213867,-5.790278911590576,4.269999999999953
-1.9860121011734009,4.193058967590332,-4.699446678161621,4.279999999999953
-2.43540096282959,4.873927116394043,-3.676316738128662,4.289999999999953
-2.539337158203125,5.106335639953613,-2.5301222801208496,4.299999999999953
-2.378068447113037,5.165759086608887,-1.6369255781173706,4.3099999999999525
-1.7926346063613892,5.534906387329102,-1.4508129358291626,4.319999999999952
-1.4389076232910156,5.892597198486328,-1.4848023653030396,4.329999999999952
-1.0957931280136108,6.154885292053223,-1.6082775592803955,4.339999999999952
-0.6697808504104614,6.410161018371582,-1.722900390625,4.349999999999952
-0.3697260618209839,6.6273088455200195,-1.4603233337402344,4.3599999999999515
-0.3522094488143921,6.658241271972656,-1.0914548635482788,4.369999999999951
-0.374289870262146,6.395743370056152,-0.7219383120536804,4.379999999999951
-0.4292031526565552,5.921475410461426,-0.30134785175323486,4.389999999999951
-0.37587034702301025,5.25714111328125,0.12983030080795288,4.399999999999951
-0.484920859336853,4.070555686950684,0.5815705060958862,4.40999999999995
-0.45096492767333984,3.1514244079589844,1.0044047832489014,4.41999999999995
-0.701919436454773,2.384799003601074,1.4567745923995972,4.42999999999995
-1.1222546100616455,1.5363454818725586,1.9129167795181274,4.43999999999995
-1.3082935810089111,1.383321762084961,1.7844138145446777,4.4499999999999496
-1.2064287662506104,1.5684013366699219,1.1547361612319946,4.459999999999949
-1.0805327892303467,1.7442684173583984,0.1999061107635498,4.469999999999949
-1.0386701822280884,1.8056106567382812,-0.7299277782440186,4.479999999999949
-1.091507077217102,1.697535514831543,-1.597686767578125,4.489999999999949
-1.0273486375808716,1.262394905090332,-2.179612398147583,4.4999999999999485
-0.8878960609436035,0.8781528472900391,-2.543156147003174,4.509999999999948
-0.6410114765167236,0.2428436279296875,-2.2490930557250977,4.519999999999948
-0.3317594528198242,-0.37821006774902344,-2.112304210662842,4.529999999999948
-0.07443976402282715,-1.1671600341796875,-2.155348300933838,4.539999999999948
0.2915921211242676,-2.086048126220703,-2.1612164974212646,4.549999999999947
0.5744386911392212,-3.0036544799804688,-1.9582788944244385,4.559999999999947
0.586728572845459,-3.666794776916504,-1.8083746433258057,4.569999999999947
0.9445575475692749,-4.356125831604004,-1.3645215034484863,4.579999999999947
1.5437979698181152,-5.863645553588867,-0.27338194847106934,4.589999999999947
1.637093424797058,-6.554876327514648,-0.41609835624694824,4.599999999999946
1.6090847253799438,-7.222034931182861,-0.306854248046875,4.609999999999946
1.2644842863082886,-7.410341739654541,-0.3054788112640381,4.619999999999946
0.8622691631317139,-7.165226459503174,-0.2048194408416748,4.629999999999946
0.549534797668457,-6.969554901123047,-0.5400030612945557,4.6399999999999455
0.2171313762664795,-6.733980178833008,-0.953972339630127,4.649999999999945
0.05796313285827637,-5.955913543701172,-1.2305296659469604,4.659999999999945
-0.26500117778778076,-5.379316329956055,-1.5650850534439087,4.669999999999945
-0.6127008199691772,-5.764129161834717,-1.556726336479187,4.679999999999945
-0.5130355358123779,-6.769784450531006,-1.1844059228897095,4.689999999999944
-0.6546205282211304,-7.639922618865967,-1.1136635541915894,4.699999999999944
-0.757201075553894,-8.008869171142578,-1.1099718809127808,4.709999999999944
-0.8232095241546631,-8.027828216552734,-1.1783143281936646,4.719999999999944
-0.8791431784629822,-7.833490371704102,-1.278086543083191,4.729999999999944
-0.9992201328277588,-7.583978176116943,-1.3828171491622925,4.739999999999943
-1.2029211521148682,-7.200516700744629,-1.4562863111495972,4.749999999999943
-1.4188158512115479,-6.633310794830322,-1.3277822732925415,4.759999999999943
-1.4867212772369385,-5.959488868713379,-1.0512480735778809,4.769999999999943
-1.4665429592132568,-5.315752983093262,-0.819638729095459,4.7799999999999425
-1.6862483024597168,-5.125338554382324,-0.5943665504455566,4.789999999999942
-1.8922655582427979,-5.167680740356445,-0.3682131767272949,4.799999999999942
-2.0300981998443604,-4.730045318603516,-0.09372305870056152,4.809999999999942
-2.454493522644043,-4.448779582977295,0.1949155330657959,4.819999999999942
-2.665828227996826,-4.390655994415283,0.5434317588806152,4.8299999999999415
-2.788341999053955,-4.2134199142456055,0.7817246913909912,4.839999999999941
-2.7739925384521484,-3.8381481170654297,0.8351373672485352,4.849999999999941
-2.72067928314209,-3.42277193069458,0.7989974021911621,4.859999999999941
-2.645155906677246,-3.0413150787353516,0.6967849731445312,4.869999999999941
-2.5449366569519043,-2.516585350036621,0.5564672946929932,4.87999999999994
-2.3096561431884766,-1.9776530265808105,0.3841893672943115,4.88999999999994
-2.022625207901001,-1.5056695938110352,0.22209930419921875,4.89999999999994
-1.8748729228973389,-0.9352912902832031,-0.017232179641723633,4.90999999999994
-1.8396613597869873,-0.2879619598388672,-0.15064191818237305,4.9199999999999395
-1.9144959449768066,0.33590030670166016,-0.20988965034484863,4.929999999999939
-1.783881664276123,0.9291696548461914,-0.3409923315048218,4.939999999999939
-1.7067153453826904,1.6021709442138672,-0.784072995185852,4.949999999999939
-1.5712463855743408,2.493922233581543,-1.3728766441345215,4.959999999999939
-1.4455451965332031,3.659470558166504,-1.4982744455337524,4.9699999999999385
-1.1005691289901733,4.873615264892578,-0.6650948524475098,4.979999999999938
-0.6804563999176025,5.669654846191406,0.840503454208374,4.989999999999938
-0.439416766166687,6.380066871643066,2.568035840988159,4.999999999999938
-0.37531012296676636,7.190981864929199,4.2136054039001465,5.009999999999938
-0.29887276887893677,8.087174415588379,5.866492748260498,5.019999999999937
-0.32841813564300537,8.888059616088867,7.4923095703125,5.029999999999937
0.14837396144866943,9.188394546508789,8.766992568969727,5.039999999999937
0.657059907913208,8.363713264465332,9.380343437194824,5.049999999999937
1.4212515354156494,8.694202423095703,9.493694305419922,5.0599999999999365
2.6412272453308105,6.505298614501953,9.09463119506836,5.069999999999936
3.2027359008789062,4.055129051208496,8.04995059967041,5.079999999999936
3.442000389099121,1.6778984069824219,6.986914157867432,5.089999999999936
4.803102493286133,-1.8211722373962402,6.508272171020508,5.099999999999936
5.21625280380249,-3.9831838607788086,6.141320705413818,5.1099999999999355
5.20673131942749,-5.673358917236328,5.756375789642334,5.119999999999935
5.028557777404785,-7.11248779296875,5.69413948059082,5.129999999999935
4.008820056915283,-7.731616973876953,5.875060081481934,5.139999999999935
3.4871859550476074,-8.048310279846191,6.313600063323975,5.149999999999935
3.392460823059082,-8.411879539489746,5.939154624938965,5.159999999999934
3.1254515647888184,-8.995200157165527,3.866117477416992,5.169999999999934
2.519031047821045,-9.176756858825684,1.6834449768066406,5.179999999999934
1.6798070669174194,-8.386713981628418,-0.12731945514678955,5.189999999999934
0.8005236387252808,-7.115406036376953,-1.9769446849822998,5.199999999999934
-0.01083385944366455,-5.692905902862549,-3.530578374862671,5.209999999999933
-1.0355799198150635,-4.193459510803223,-4.647959232330322,5.219999999999933
-1.419662594795227,-3.07413911819458,-5.481898784637451,5.229999999999933
-1.5727460384368896,-1.533782958984375,-6.406616687774658,5.239999999999933
-1.2317615747451782,0.9742774963378906,-7.386645317077637,5.2499999999999325
-0.7976528406143188,4.75692081451416,-8.211234092712402,5.259999999999932
-0.8620703816413879,9.67335319519043,-9.283705711364746,5.269999999999932
-0.5160595178604126,16.697847366333008,-9.794292449951172,5.279999999999932
0.8917496204376221,24.366348266601562,-10.069950103759766,5.289999999999932
0.8995355367660522,28.858585357666016,-7.7113142013549805,5.299999999999931
-3.11934757232666,34.95938491821289,-6.409182071685791,5.309999999999931
-7.435371398925781,40.35531234741211,-5.437276363372803,5.319999999999931
-6.7747368812561035,32.89749526977539,-5.995955467224121,5.329999999999931
-6.581963539123535,20.510128021240234,-7.405291557312012,5.339999999999931
-6.346314430236816,12.089033126831055,-7.588295936584473,5.34999999999993
-4.9506940841674805,5.461421966552734,-4.740620136260986,5.35999999999993
-3.1120729446411133,-0.6010007858276367,-0.8528048992156982,5.36999999999993
-1.805649995803833,-5.409020900726318,1.6781104803085327,5.37999999999993
-0.8750739097595215,-9.148796081542969,2.321495532989502,5.3899999999999295
-0.40441209077835083,-11.821224212646484,0.863669753074646,5.399999999999929
0.27905893325805664,-14.27363395690918,-0.9736209511756897,5.409999999999929
0.5084918737411499,-15.38662338256836,-2.210193634033203,5.419999999999929
-1.3610289096832275,-13.98487377166748,-3.165462017059326,5.429999999999929
-0.9451327323913574,-12.934717178344727,-3.1246562004089355,5.4399999999999284
-0.09575283527374268,-12.165305137634277,-3.2154533863067627,5.449999999999928
0.6153342723846436,-11.275470733642578,-3.611844301223755,5.459999999999928
1.230072021484375,-10.311739921569824,-3.7120676040649414,5.469999999999928
1.5813167095184326,-9.048030853271484,-3.3976144790649414,5.479999999999928
2.0794029235839844,-7.669515609741211,-3.695004463195801,5.489999999999927
2.9035558700561523,-6.356480598449707,-3.771498203277588,5.499999999999927
3.6099138259887695,-5.1235527992248535,-4.152195930480957,5.509999999999927
4.598082542419434,-3.7457756996154785,-4.422815322875977,5.519999999999927
5.475198745727539,-1.8592233657836914,-4.3351922035217285,5.5299999999999265
5.372402191162109,0.4720754623413086,-4.427681922912598,5.539999999999926
5.107372283935547,2.653453826904297,-4.414990425109863,5.549999999999926
3.9703729152679443,4.452022552490234,-4.533552169799805,5.559999999999926
1.5009342432022095,6.015254020690918,-4.726422309875488,5.569999999999926
-1.9994900226593018,7.490078926086426,-4.324670791625977,5.5799999999999255
-5.116730690002441,8.32443618774414,-3.2995710372924805,5.589999999999925
-7.613363742828369,8.048542022705078,-2.7441864013671875,5.599999999999925
-8.902667999267578,6.544947624206543,-2.8965580463409424,5.609999999999925
-6.517416000366211,3.300800323486328,-2.930999279022217,5.619999999999925
-3.892112970352173,0.2615995407104492,-2.3962807655334473,5.629999999999924
-2.227703809738159,-1.8513264656066895,-1.8050847053527832,5.639999999999924
-1.8797683715820312,-3.0733895301818848,-0.46596747636795044,5.649999999999924
-1.9727684259414673,-3.779168128967285,0.7271745204925537,5.659999999999924
-2.371941566467285,-4.253710746765137,0.8598960041999817,5.6699999999999235
-2.389007329940796,-4.478043079376221,0.2136266827583313,5.679999999999923
-2.0269417762756348,-4.619965553283691,-0.7730861306190491,5.689999999999923
-1.3987858295440674,-4.534114360809326,-1.5717668533325195,5.699999999999923
-0.6055237054824829,-4.312309741973877,-1.8160760402679443,5.709999999999923
-0.10780847072601318,-4.03898286819458,-1.8172013759613037,5.7199999999999225
0.09675812721252441,-3.681002616882324,-1.423982858657837,5.729999999999922
0.10388326644897461,-3.2458314895629883,-0.8589588403701782,5.739999999999922
0.226470947265625,-2.8244824409484863,-0.3470847010612488,5.749999999999922
0.42553412914276123,-2.404918670654297,-0.12641242146492004,5.759999999999922
0.8103315830230713,-2.319338798522949,-0.27115941047668457,5.769999999999921
1.0994398593902588,-2.0433449745178223,-0.42790576815605164,5.779999999999921
1.6241320371627808,-1.5481948852539062,-0.4617760479450226,5.789999999999921
2.0695343017578125,-1.0873441696166992,-0.14408203959465027,5.799999999999921
2.457812786102295,-0.7249689102172852,0.4483628273010254,5.809999999999921
2.6821236610412598,-0.6734418869018555,0.813464879989624,5.81999999999992
2.921022415161133,-0.8867597579956055,1.3492740392684937,5.82999999999992
3.0043857097625732,-1.3453760147094727,1.508542776107788,5.83999999999992
2.9882116317749023,-1.8697595596313477,1.6607704162597656,5.84999999999992
2.8356218338012695,-2.3356685638427734,1.5884519815444946,5.8599999999999195
2.351625919342041,-2.6213502883911133,1.4613566398620605,5.869999999999919
1.9395816326141357,-2.9448108673095703,1.1810001134872437,5.879999999999919
1.4880375862121582,-3.267888069152832,0.9052579402923584,5.889999999999919
1.1558693647384644,-3.490302562713623,0.6816864609718323,5.899999999999919
0.8691784143447876,-3.452042579650879,0.48773694038391113,5.909999999999918
0.6728706359863281,-3.1820812225341797,0.48236095905303955,5.919999999999918
0.6425988674163818,-2.6710662841796875,0.6357149481773376,5.929999999999918
0.7605397701263428,-2.103320598602295,0.961300790309906,5.939999999999918
0.9008872509002686,-1.3998851776123047,1.3266336917877197,5.949999999999918
1.1103838682174683,-0.7377948760986328,1.831571340560913,5.959999999999917
1.2879191637039185,-0.19345760345458984,2.440365791320801,5.969999999999917
1.4460351467132568,-0.11109161376953125,2.9195849895477295,5.979999999999917
1.5012158155441284,-0.05495643615722656,3.095243453979492,5.989999999999917
1.4106543064117432,-0.00594329833984375,3.0704498291015625,5.9999999999999165
1.2494113445281982,-0.2893247604370117,3.1304078102111816,6.009999999999916
1.0657316446304321,-0.3236656188964844,3.0936379432678223,6.019999999999916
1.101735234260559,-0.36757564544677734,3.2210936546325684,6.029999999999916
1.0396006107330322,-0.34931182861328125,3.381540298461914,6.039999999999916
1.109656810760498,-0.45551490783691406,3.4147911071777344,6.0499999999999154
1.1898088455200195,-0.21990489959716797,2.9754929542541504,6.059999999999915
1.3323464393615723,0.06526470184326172,2.529318332672119,6.069999999999915
1.692223072052002,0.19913959503173828,2.3297674655914307,6.079999999999915
1.9268361330032349,0.43302154541015625,2.12546968460083,6.089999999999915
2.1629247665405273,0.5542116165161133,2.185652017593384,6.099999999999914
2.1836657524108887,1.0723285675048828,1.9288450479507446,6.109999999999914
1.841299295425415,1.8554439544677734,1.6056675910949707,6.119999999999914
1.433148741722107,2.468083381652832,1.3732973337173462,6.129999999999914
1.0748741626739502,2.771718978881836,1.2977867126464844,6.1399999999999135
1.0609478950500488,2.8024044036865234,1.3569939136505127,6.149999999999913
1.0760350227355957,2.445758819580078,1.6906154155731201,6.159999999999913
0.9379719495773315,2.1040515899658203,2.0908520221710205,6.169999999999913
0.8767555952072144,1.7868947982788086,2.5918774604797363,6.179999999999913
1.0582976341247559,1.2815732955932617,3.1519298553466797,6.1899999999999125
1.4590332508087158,1.102365493774414,3.376554489135742,6.199999999999912
1.9409641027450562,1.2009649276733398,3.5914411544799805,6.209999999999912
2.3968544006347656,1.5578651428222656,3.7225496768951416,6.219999999999912
2.602076768875122,2.1249141693115234,3.8752341270446777,6.229999999999912
2.4799532890319824,2.7990827560424805,4.0184502601623535,6.239999999999911
1.987489104270935,3.4056224822998047,3.886295795440674,6.249999999999911
1.319021224975586,3.7985973358154297,3.5428781509399414,6.259999999999911
0.5756986737251282,3.7151708602905273,3.181933879852295,6.269999999999911
-0.013898968696594238,3.373380661010742,2.523529529571533,6.2799999999999105
-0.3727404773235321,2.988741874694824,1.8433012962341309,6.28999999999991
-0.5631013512611389,2.6449146270751953,0.9998409748077393,6.29999999999991
-0.4965117871761322,2.5256757736206055,-0.21369898319244385,6.30999999999991
-0.40317440032958984,2.5394811630249023,-1.5767515897750854,6.31999999999991
-0.11834967136383057,2.5806446075439453,-3.016744613647461,6.3299999999999095
-0.05891984701156616,2.644380569458008,-4.1439595222473145,6.339999999999909
-0.0485193133354187,2.7619056701660156,-4.8962273597717285,6.349999999999909
-0.13999664783477783,2.663060188293457,-5.089641571044922,6.359999999999909
-0.20417964458465576,2.7760467529296875,-5.065132141113281,6.369999999999909
-0.0789220929145813,2.746640205383301,-4.833538055419922,6.379999999999908
0.1010674238204956,2.9335861206054688,-4.9201788902282715,6.389999999999908
0.6982267498970032,2.9516210556030273,-5.204216480255127,6.399999999999908
1.4875283241271973,2.6889657974243164,-5.28843355178833,6.409999999999908
2.083536386489868,1.938720703125,-4.972690582275391,6.419999999999908
2.633251428604126,1.5939006805419922,-5.330334186553955,6.429999999999907
2.861905097961426,1.6686086654663086,-5.8706793785095215,6.439999999999907
2.5993237495422363,1.8971586227416992,-6.107776165008545,6.449999999999907
1.817674994468689,2.258133888244629,-5.961360931396484,6.459999999999907
0.7948335409164429,2.519747734069824,-5.70184326171875,6.4699999999999065
-0.11806964874267578,2.830500602722168,-5.392187118530273,6.479999999999906
-0.9657084941864014,2.991915702819824,-4.842791557312012,6.489999999999906
-1.153635025024414,3.200153350830078,-4.012511253356934,6.499999999999906
-1.2167507410049438,3.423863410949707,-3.322737693786621,6.509999999999906
-1.340353012084961,3.698653221130371,-3.0635902881622314,6.519999999999905
-1.7106761932373047,4.163104057312012,-2.9384891986846924,6.529999999999905
-1.9831242561340332,4.833759307861328,-2.5730130672454834,6.539999999999905
-1.7744255065917969,5.454378128051758,-2.1837010383605957,6.549999999999905
-1.1647716760635376,6.046195030212402,-1.6977976560592651,6.559999999999905
-1.0854192972183228,6.420340538024902,-1.2997020483016968,6.569999999999904
-1.2866365909576416,6.570137023925781,-0.7952295541763306,6.579999999999904
-1.566762089729309,6.340666770935059,-0.2488834261894226,6.589999999999904
-1.8747835159301758,5.91672420501709,0.2987327575683594,6.599999999999904
-1.9436781406402588,5.310552597045898,0.8073640465736389,6.6099999999999035
-1.7279572486877441,4.531817436218262,1.0068531036376953,6.619999999999903
-1.3401285409927368,3.6858463287353516,0.9834615588188171,6.629999999999903
-0.9039806127548218,2.612320899963379,0.6226464509963989,6.639999999999903
-0.6538131237030029,1.409449577331543,0.31952965259552,6.649999999999903
-0.5899369716644287,0.9548606872558594,0.5577633380889893,6.659999999999902
-0.7148939371109009,0.7144594192504883,0.38204216957092285,6.669999999999902
-0.5049372911453247,0.6474971771240234,-0.34248268604278564,6.679999999999902
-0.2754102945327759,0.653376579284668,-1.2840561866760254,6.689999999999902
-0.2670166492462158,0.4953126907348633,-2.07523512840271,6.699999999999902
-0.5384501218795776,0.3863554000854492,-2.7505390644073486,6.709999999999901
-0.5429623126983643,0.07753562927246094,-3.041996479034424,6.719999999999901
-0.23139941692352295,-0.46001434326171875,-3.13101863861084,6.729999999999901
-0.117104172706604,-0.9560995101928711,-3.3545265197753906,6.739999999999901
0.3630269765853882,-1.9234018325805664,-2.7548506259918213,6.7499999999999005
0.8500155210494995,-3.049074649810791,-1.8553274869918823,6.7599999999999
1.2936336994171143,-3.78086519241333,-2.0521953105926514,6.7699999999999
1.765658974647522,-4.279659748077393,-2.3731837272644043,6.7799999999999
2.220696449279785,-5.098374843597412,-2.537877082824707,6.7899999999999
2.387942314147949,-5.856573581695557,-2.4215736389160156,6.7999999999998995
2.053130626678467,-6.1883625984191895,-2.1271023750305176,6.809999999999899
1.5730630159378052,-6.345094203948975,-1.5204923152923584,6.819999999999899
0.8666369915008545,-6.381764888763428,-0.7716610431671143,6.829999999999899
0.5212219953536987,-7.26417875289917,-0.3528275489807129,6.839999999999899
-0.4194856882095337,-7.727872848510742,-0.6366782188415527,6.849999999999898
-1.1982274055480957,-7.784728050231934,-0.6937863826751709,6.859999999999898
-1.6579546928405762,-7.5256757736206055,-0.8582912683486938,6.869999999999898
-2.0356967449188232,-7.012999534606934,-0.9997742176055908,6.879999999999898
-2.1777422428131104,-6.388062000274658,-1.1547799110412598,6.8899999999998975
-2.193627119064331,-5.897223472595215,-1.3957018852233887,6.899999999999897
-2.1452431678771973,-5.540227890014648,-1.584305763244629,6.909999999999897
-2.0514345169067383,-5.28828239440918,-1.6871811151504517,6.919999999999897
-1.9405862092971802,-5.177322864532471,-1.7135562896728516,6.929999999999897
-1.838751196861267,-4.9564409255981445,-1.6626181602478027,6.9399999999998965
-1.7387683391571045,-4.678696155548096,-1.5765538215637207,6.949999999999896
-1.6187243461608887,-4.717463970184326,-1.5025277137756348,6.959999999999896
-1.5771057605743408,-4.744899272918701,-1.4041671752929688,6.969999999999896
-1.650064468383789,-4.74917459487915,-1.3049943447113037,6.979999999999896
-1.830599308013916,-4.572662830352783,-1.0897176265716553,6.989999999999895
-1.9486217498779297,-4.737014293670654,-0.891991376876831,6.999999999999895
-2.075737476348877,-4.816364288330078,-0.5415830612182617,7.009999999999895
-2.1880359649658203,-4.698532581329346,-0.1651167869567871,7.019999999999895
-2.261563539505005,-4.577491283416748,0.18013429641723633,7.0299999999998946
-2.152524709701538,-4.5130696296691895,0.4895009994506836,7.039999999999894
-2.088320732116699,-4.383256435394287,0.8277060985565186,7.049999999999894
-2.090411424636841,-4.142720699310303,1.2068474292755127,7.059999999999894
-1.9215490818023682,-3.9923596382141113,1.4257323741912842,7.069999999999894
-1.7758657932281494,-3.719020366668701,1.4506080150604248,7.0799999999998935
-1.6444555521011353,-3.243581771850586,1.7926440238952637,7.089999999999893
-1.4024012088775635,-2.9338254928588867,1.0383260250091553,7.099999999999893
-1.1786388158798218,-2.5498690605163574,0.6360929012298584,7.109999999999893
-1.0135471820831299,-2.2133560180664062,0.34014320373535156,7.119999999999893
-1.0097671747207642,-1.8260817527770996,0.3602588176727295,7.129999999999892
-1.0427480936050415,-1.3520336151123047,0.2886981964111328,7.139999999999892
-0.9666613340377808,-0.8959884643554688,-0.1801469326019287,7.149999999999892
-0.9587011933326721,-0.2112417221069336,-0.5882848501205444,7.159999999999892
-0.8827149271965027,0.53009033203125,-1.1594620943069458,7.169999999999892
-0.7989182472229004,1.3713512420654297,-1.7896397113800049,7.179999999999891
-0.6529351472854614,2.2050228118896484,-1.8600001335144043,7.189999999999891
-0.7109233140945435,3.1265382766723633,-0.8439944982528687,7.199999999999891
-0.8033822774887085,4.242767333984375,1.1234252452850342,7.209999999999891
-0.751114010810852,5.349404335021973,3.4490013122558594,7.2199999999998905
-0.3843035101890564,6.335475921630859,5.99249267578125,7.22999999999989
0.12186837196350098,7.111721992492676,8.298117637634277,7.23999999999989
0.831149697303772,7.665557861328125,10.089954376220703,7.24999999999989
1.6387319564819336,8.082595825195312,11.122306823730469,7.25999999999989
2.4721834659576416,8.044404029846191,11.28977108001709,7.269999999999889
2.867253303527832,7.48671817779541,10.660377502441406,7.279999999999889
3.1433682441711426,6.558435440063477,9.41762638092041,7.289999999999889
3.086050510406494,4.772687911987305,7.910525321960449,7.299999999999889
3.148794174194336,2.0882301330566406,6.333029270172119,7.309999999999889
4.009617328643799,-1.0009756088256836,5.011526584625244,7.319999999999888
4.83794641494751,-3.2608466148376465,4.403711318969727,7.329999999999888
5.240583896636963,-4.884189605712891,4.184413909912109,7.339999999999888
5.102595329284668,-6.335992336273193,4.044291973114014,7.349999999999888
3.7961771488189697,-6.889172554016113,3.9804253578186035,7.3599999999998875
2.544416904449463,-6.892735481262207,2.9827921390533447,7.369999999999887
1.7668923139572144,-6.6807050704956055,1.1261205673217773,7.379999999999887
0.8875643014907837,-6.481186866760254,-0.7178384065628052,7.389999999999887
-0.1030280590057373,-6.039332389831543,-2.044422149658203,7.399999999999887
-1.2755805253982544,-4.905206680297852,-2.8761003017425537,7.4099999999998865
-2.3085787296295166,-3.655942916870117,-3.1987500190734863,7.419999999999886
-2.9695615768432617,-2.464162826538086,-3.4606738090515137,7.429999999999886
-3.2119059562683105,-1.6815714836120605,-3.8351783752441406,7.439999999999886
-2.9803977012634277,-0.057396888732910156,-4.684782981872559,7.449999999999886
-2.24426531791687,3.4399566650390625,-5.479237079620361,7.459999999999885
-1.6040806770324707,7.999506950378418,-6.393698692321777,7.469999999999885
-0.6247724294662476,14.383049964904785,-6.564443588256836,7.479999999999885
0.5143079161643982,21.423311233520508,-4.629502296447754,7.489999999999885
0.34013187885284424,27.34009552001953,-2.9893486499786377,7.4999999999998845
-0.9311449527740479,32.59069061279297,-4.233824729919434,7.509999999999884
-2.265491008758545,33.926483154296875,-7.577877044677734,7.519999999999884
-0.18408113718032837,29.92112922668457,-9.711681365966797,7.529999999999884
-1.5249426364898682,20.04049301147461,-10.669609069824219,7.539999999999884
-3.1032726764678955,11.877887725830078,-9.419238090515137,7.5499999999998835
-2.6174092292785645,5.372685432434082,-6.3799848556518555,7.559999999999883
-1.2233471870422363,0.3972635269165039,-3.968491792678833,7.569999999999883
0.1459897756576538,-4.000287055969238,-2.416708469390869,7.579999999999883
0.365472674369812,-7.73942756652832,-2.0085666179656982,7.589999999999883
0.7627027034759521,-11.237122535705566,-1.7672003507614136,7.599999999999882
0.20411843061447144,-13.934261322021484,-1.6819372177124023,7.609999999999882
-0.7157642841339111,-15.45152759552002,-1.7659659385681152,7.619999999999882
-3.4383177757263184,-13.317654609680176,-1.7344720363616943,7.629999999999882
-3.914189100265503,-11.545554161071777,-1.3699064254760742,7.6399999999998816
-2.7552216053009033,-10.344585418701172,-1.0162007808685303,7.649999999999881
-2.113101005554199,-10.128482818603516,-1.8906540870666504,7.659999999999881
-1.3658640384674072,-9.452350616455078,-2.681687593460083,7.669999999999881
-0.5017419457435608,-8.444602966308594,-3.3017144203186035,7.679999999999881
0.3616468906402588,-7.32459831237793,-3.621689796447754,7.6899999999998805
1.3149808645248413,-6.268294811248779,-3.800004482269287,7.69999999999988
2.6015377044677734,-4.81984806060791,-4.116183280944824,7.70999999999988
3.999908924102783,-2.805438995361328,-4.248706817626953,7.71999999999988
5.302621841430664,0.009202003479003906,-4.706329345703125,7.72999999999988
6.033598899841309,2.8093767166137695,-5.168430328369141,7.739999999999879
5.863715648651123,4.72940731048584,-5.5224609375,7.749999999999879
5.116644859313965,5.879965782165527,-5.655563831329346,7.759999999999879
4.159909248352051,6.561832427978516,-5.22708797454834,7.769999999999879
2.8826050758361816,6.666021347045898,-4.495214462280273,7.779999999999879
0.9458831548690796,6.286917686462402,-3.882513999938965,7.789999999999878
-1.7750391960144043,5.220019340515137,-3.411522388458252,7.799999999999878
-4.502945899963379,3.488046646118164,-2.5251338481903076,7.809999999999878
-6.150614261627197,1.969468116760254,-1.67368483543396,7.819999999999878
-5.019695281982422,0.3597297668457031,-0.6318386793136597,7.8299999999998775
-3.3641130924224854,-1.3345279693603516,0.08674764633178711,7.839999999999877
-2.608252763748169,-2.6877388954162598,-0.06524431705474854,7.849999999999877
-2.8585376739501953,-3.7027297019958496,-0.4124446511268616,7.859999999999877
-3.4479734897613525,-4.1173319816589355,-0.2804768681526184,7.869999999999877
-4.123667240142822,-4.117071151733398,0.30042850971221924,7.879999999999876
-4.138943195343018,-4.274596214294434,0.7337328195571899,7.889999999999876
-3.3383777141571045,-4.434586524963379,0.6275677680969238,7.899999999999876
-2.0187740325927734,-4.5662617683410645,-0.09955692291259766,7.909999999999876
-0.46437036991119385,-4.457385540008545,-1.1553676128387451,7.919999999999876
0.037023067474365234,-4.30949068069458,-2.0884132385253906,7.929999999999875
0.41063427925109863,-3.759659767150879,-2.177872896194458,7.939999999999875
0.6871232986450195,-3.4781885147094727,-1.6748948097229004,7.949999999999875
0.8498052358627319,-3.474123001098633,-1.260528802871704,7.959999999999875
0.8928402662277222,-2.7326927185058594,-0.9755344986915588,7.9699999999998745
0.800565242767334,-1.5767688751220703,-0.7768952250480652,7.979999999999874
0.7265573740005493,-0.7255744934082031,-0.5635034441947937,7.989999999999874
0.6076700687408447,-0.177947998046875,-0.2826858162879944,7.999999999999874
