AccX,AccY,AccZ,SampleRate
-1.4038866758346558,-4.909284591674805,-0.849876880645752,0
-1.3749921321868896,-4.861605644226074,-0.7135050296783447,0.01
-1.3697062730789185,-4.735524654388428,-0.5707638263702393,0.02
-1.4023295640945435,-4.6270222663879395,-0.43527984619140625,0.03
-1.4561753273010254,-4.562476634979248,-0.27554965019226074,0.04
-1.507000207901001,-4.367516994476318,-0.07690691947937012,0.05
-1.5979466438293457,-4.477285861968994,0.1319580078125,0.060000000000000005
-1.6910018920898438,-4.472915172576904,0.3412909507751465,0.07
-1.6572511196136475,-4.273187160491943,0.45746660232543945,0.08
-1.62614107131958,-3.907108783721924,0.6455843448638916,0.09
-1.6025036573410034,-3.628106117248535,0.7138817310333252,0.09999999999999999
-1.4786784648895264,-3.3402233123779297,0.7217280864715576,0.10999999999999999
-1.18524169921875,-2.9716343879699707,0.831221342086792,0.11999999999999998
-1.3941173553466797,-2.531667709350586,0.5679149627685547,0.12999999999999998
-1.2506799697875977,-2.015437126159668,0.4357576370239258,0.13999999999999999
-1.2781513929367065,-1.4204902648925781,0.259082555770874,0.15
-1.3724929094314575,-0.7898330688476562,-0.13742971420288086,0.16
-1.6507834196090698,-0.08482933044433594,-0.6307296752929688,0.17
-1.790377140045166,0.6425695419311523,-1.3188098669052124,0.18000000000000002
-1.8825044631958008,1.3548479080200195,-2.1562085151672363,0.19000000000000003
-1.9182393550872803,2.186483383178711,-2.6189522743225098,0.20000000000000004
-2.0519862174987793,3.3072404861450195,-2.182406187057495,0.21000000000000005
-2.251589059829712,4.670978546142578,-0.657804012298584,0.22000000000000006
-2.257432699203491,6.125992774963379,1.7123913764953613,0.23000000000000007
-2.101691722869873,7.587490081787109,4.421735763549805,0.24000000000000007
-1.514934778213501,8.815241813659668,7.099053382873535,0.25000000000000006
-0.764755368232727,9.726934432983398,9.304576873779297,0.26000000000000006
-0.08202040195465088,10.314498901367188,10.871241569519043,0.2700000000000001
0.8421241044998169,10.455394744873047,11.339035987854004,0.2800000000000001
1.6281746625900269,10.195319175720215,10.661928176879883,0.2900000000000001
2.495384693145752,8.952266693115234,8.886272430419922,0.3000000000000001
3.3472628593444824,6.002520561218262,6.476734161376953,0.3100000000000001
4.071907043457031,2.379702568054199,4.726034164428711,0.3200000000000001
4.451603412628174,-0.698704719543457,3.8829338550567627,0.3300000000000001
4.954368591308594,-3.2463302612304688,3.8419570922851562,0.34000000000000014
5.025936126708984,-5.343345642089844,3.8140530586242676,0.35000000000000014
5.420462131500244,-7.229738235473633,4.249202728271484,0.36000000000000015
4.099267482757568,-8.22436237335205,4.29990816116333,0.37000000000000016
2.981816053390503,-8.474056243896484,4.293644905090332,0.38000000000000017
2.610471248626709,-8.653159141540527,3.196831464767456,0.3900000000000002
2.3842129707336426,-8.707585334777832,1.3683884143829346,0.4000000000000002
1.559897780418396,-8.642746925354004,-0.2747385501861572,0.4100000000000002
0.20776820182800293,-8.053308486938477,-1.7485538721084595,0.4200000000000002
-0.9164502620697021,-6.769495010375977,-3.1208221912384033,0.4300000000000002
-1.7544910907745361,-4.899890422821045,-4.029323577880859,0.4400000000000002
-2.240003824234009,-3.2463879585266113,-4.746991157531738,0.45000000000000023
-2.6033079624176025,-1.7298121452331543,-5.544219017028809,0.46000000000000024
-2.070103168487549,0.5963296890258789,-6.453941345214844,0.47000000000000025
-1.5370233058929443,4.0767927169799805,-7.11558723449707,0.48000000000000026
-1.2704041004180908,8.304617881774902,-7.491909503936768,0.49000000000000027
-1.1801894903182983,14.093599319458008,-7.3903608322143555,0.5000000000000002
-0.8996701240539551,19.879688262939453,-5.64270544052124,0.5100000000000002
-0.9430296421051025,26.11248779296875,-3.5998172760009766,0.5200000000000002
-1.7280701398849487,31.834821701049805,-4.356864929199219,0.5300000000000002
-3.500460147857666,34.51641845703125,-6.674120903015137,0.5400000000000003
-4.415672302246094,31.815710067749023,-9.630674362182617,0.5500000000000003
-4.744434356689453,22.254684448242188,-11.106067657470703,0.5600000000000003
-5.220141410827637,13.48056697845459,-10.064756393432617,0.5700000000000003
-4.338951587677002,7.031882286071777,-7.041777610778809,0.5800000000000003
-2.956162452697754,2.3667659759521484,-3.3383498191833496,0.5900000000000003
-1.6331684589385986,-1.555206298828125,0.6632330417633057,0.6000000000000003
-0.8667172193527222,-5.351032257080078,3.4604194164276123,0.6100000000000003
-0.12501001358032227,-8.49239730834961,2.507344961166382,0.6200000000000003
0.17821812629699707,-10.823894500732422,-0.029896259307861328,0.6300000000000003
0.8908741474151611,-12.307876586914062,-2.5221118927001953,0.6400000000000003
1.878437876701355,-13.010300636291504,-3.633110523223877,0.6500000000000004
-0.13319849967956543,-12.10816764831543,-3.7515130043029785,0.6600000000000004
-1.1579363346099854,-11.412385940551758,-2.9067423343658447,0.6700000000000004
-0.8540310263633728,-10.998732566833496,-2.0112931728363037,0.6800000000000004
-0.26677048206329346,-10.3283052444458,-2.2069902420043945,0.6900000000000004
0.33802711963653564,-9.627522468566895,-3.1432547569274902,0.7000000000000004
0.8251430988311768,-8.897148132324219,-4.174997806549072,0.7100000000000004
1.5874873399734497,-7.937010288238525,-4.926979064941406,0.7200000000000004
2.4682178497314453,-6.661806583404541,-5.344140529632568,0.7300000000000004
3.13045072555542,-5.308189392089844,-5.634239673614502,0.7400000000000004
4.127845764160156,-3.131934642791748,-5.8852643966674805,0.7500000000000004
4.729342460632324,-0.5151586532592773,-6.517946720123291,0.7600000000000005
4.402260780334473,1.80023193359375,-7.0618181228637695,0.7700000000000005
3.169585704803467,3.744853973388672,-7.4975972175598145,0.7800000000000005
1.4609715938568115,5.000157356262207,-7.113959789276123,0.7900000000000005
-0.7267962098121643,5.665844917297363,-6.071763515472412,0.8000000000000005
-3.136951446533203,5.771963119506836,-4.807400703430176,0.8100000000000005
-5.1651763916015625,5.288694381713867,-3.616093635559082,0.8200000000000005
-6.106854438781738,4.317422866821289,-2.4609408378601074,0.8300000000000005
-5.067287445068359,2.7485008239746094,-1.6808913946151733,0.8400000000000005
-3.0937886238098145,0.8116369247436523,-1.129884123802185,0.8500000000000005
-2.2043135166168213,-0.8380517959594727,-0.8513938784599304,0.8600000000000005
-2.0678787231445312,-2.174933910369873,-0.652336835861206,0.8700000000000006
-2.303898572921753,-3.261986255645752,-0.46575671434402466,0.8800000000000006
-2.290562391281128,-3.8084716796875,-0.3463384509086609,0.8900000000000006
-2.229579210281372,-4.102537155151367,-0.5565229654312134,0.9000000000000006
-1.944528341293335,-4.321999549865723,-0.9061775803565979,0.9100000000000006
-1.5079866647720337,-4.520095348358154,-1.1120511293411255,0.9200000000000006
-0.856144368648529,-4.525359630584717,-1.0028965473175049,0.9300000000000006
-0.4988478422164917,-4.202452182769775,-1.163133144378662,0.9400000000000006
-0.3274517059326172,-3.9728360176086426,-1.3352737426757812,0.9500000000000006
-0.16834425926208496,-3.575711727142334,-1.032339334487915,0.9600000000000006
-0.15564239025115967,-2.9104599952697754,-0.6865226030349731,0.9700000000000006
-0.08200967311859131,-1.8859267234802246,-0.6188920736312866,0.9800000000000006
0.31253981590270996,-0.7720556259155273,-0.5753343105316162,0.9900000000000007
0.8294726610183716,-0.11346149444580078,-0.3715192973613739,1.0000000000000007
1.524931788444519,0.10276412963867188,0.05547189712524414,1.0100000000000007
2.161646842956543,-0.022245407104492188,0.47076427936553955,1.0200000000000007
2.6390280723571777,-0.41623687744140625,0.736274778842926,1.0300000000000007
2.945349931716919,-0.9425764083862305,1.0805848836898804,1.0400000000000007
3.072025775909424,-1.613152027130127,1.3834812641143799,1.0500000000000007
3.078246593475342,-2.313253879547119,1.337448000907898,1.0600000000000007
2.8082685470581055,-2.923604965209961,0.968592643737793,1.0700000000000007
2.443676471710205,-3.3705644607543945,0.6392366886138916,1.0800000000000007
2.024054527282715,-3.637883186340332,0.4772512912750244,1.0900000000000007
1.6121400594711304,-3.6183953285217285,0.5269180536270142,1.1000000000000008
1.5050016641616821,-3.4441704750061035,0.6752291917800903,1.1100000000000008
1.3721849918365479,-3.0891470909118652,0.8550684452056885,1.1200000000000008
1.1002936363220215,-2.390878677368164,1.0111068487167358,1.1300000000000008
1.0664746761322021,-1.8875961303710938,1.2033405303955078,1.1400000000000008
1.1018275022506714,-1.2704229354858398,1.37919020652771,1.1500000000000008
1.1742620468139648,-0.6517524719238281,1.6436461210250854,1.1600000000000008
1.3594651222229004,-0.25855445861816406,1.9417787790298462,1.1700000000000008
1.5591703653335571,-0.016384124755859375,2.149311065673828,1.1800000000000008
1.7133855819702148,0.07736015319824219,2.3018012046813965,1.1900000000000008
1.7839523553848267,0.12085342407226562,2.3870036602020264,1.2000000000000008
1.7904187440872192,-0.024544715881347656,2.4744207859039307,1.2100000000000009
1.692180871963501,-0.033440589904785156,2.5906341075897217,1.2200000000000009
1.6880908012390137,-0.06384658813476562,2.6331331729888916,1.2300000000000009
1.6226873397827148,-0.048783302307128906,2.6215600967407227,1.2400000000000009
1.4767502546310425,0.15276241302490234,2.675750970840454,1.2500000000000009
1.321815013885498,0.464019775390625,2.7140719890594482,1.260000000000001
1.3370815515518188,0.966008186340332,2.494171380996704,1.270000000000001
1.5247323513031006,1.5244760513305664,2.3265371322631836,1.280000000000001
1.8055036067962646,1.9528303146362305,2.1891286373138428,1.290000000000001
2.035309314727783,2.411449432373047,2.00282883644104,1.300000000000001
2.1560802459716797,2.773693084716797,1.87555730342865,1.310000000000001
2.08577823638916,3.1210737228393555,1.7236442565917969,1.320000000000001
1.8761640787124634,3.315032958984375,1.3986748456954956,1.330000000000001
1.6149003505706787,3.5518436431884766,1.0558050870895386,1.340000000000001
1.4884542226791382,3.1311235427856445,1.0332599878311157,1.350000000000001
1.4273489713668823,2.6707096099853516,1.1118552684783936,1.360000000000001
1.6233566999435425,2.254322052001953,1.299330472946167,1.370000000000001
1.90480375289917,1.9512300491333008,1.8618884086608887,1.380000000000001
2.2532424926757812,1.6775665283203125,2.472043991088867,1.390000000000001
2.521134614944458,1.6196231842041016,2.847350597381592,1.400000000000001
2.71146297454834,1.6646013259887695,2.9994592666625977,1.410000000000001
2.690800428390503,1.8505163192749023,3.110010862350464,1.420000000000001
2.5504980087280273,2.048062324523926,3.2843544483184814,1.430000000000001
2.209353446960449,2.273967742919922,3.4243946075439453,1.440000000000001
1.7988007068634033,2.3417434692382812,3.336353302001953,1.450000000000001
1.375890851020813,2.2181968688964844,2.9201512336730957,1.460000000000001
0.973804235458374,1.9299373626708984,2.3029661178588867,1.470000000000001
0.7387133240699768,1.5703563690185547,1.5086002349853516,1.480000000000001
0.5918985605239868,1.2063560485839844,0.5149412155151367,1.490000000000001
0.43019574880599976,0.8785772323608398,-0.19269561767578125,1.500000000000001
0.34404945373535156,0.6515588760375977,-0.8466529846191406,1.5100000000000011
0.34551870822906494,0.35053443908691406,-1.4215145111083984,1.5200000000000011
0.5848468542098999,0.3747367858886719,-1.9330265522003174,1.5300000000000011
0.5371298789978027,0.45847225189208984,-2.2879092693328857,1.5400000000000011
0.654086709022522,0.6136636734008789,-2.878742218017578,1.5500000000000012
0.9363479614257812,0.8303890228271484,-3.740635633468628,1.5600000000000012
1.6613062620162964,1.4716739654541016,-5.194149971008301,1.5700000000000012
1.3313218355178833,2.006575584411621,-5.395572662353516,1.5800000000000012
1.3260377645492554,2.5933189392089844,-5.480001926422119,1.5900000000000012
1.4988387823104858,2.753952980041504,-5.536036014556885,1.6000000000000012
1.7449687719345093,2.6446943283081055,-5.931407451629639,1.6100000000000012
1.6953281164169312,2.6509342193603516,-6.299433708190918,1.6200000000000012
0.930548906326294,2.980743408203125,-6.466195106506348,1.6300000000000012
-0.12984085083007812,3.390141487121582,-6.3169026374816895,1.6400000000000012
-1.135933518409729,3.7572622299194336,-5.962391376495361,1.6500000000000012
-2.069262981414795,4.264072418212891,-5.191274166107178,1.6600000000000013
-2.446366310119629,4.766922950744629,-4.474822044372559,1.6700000000000013
-2.4145007133483887,4.933331489562988,-3.880464553833008,1.6800000000000013
-2.690410614013672,5.165321350097656,-3.176666498184204,1.6900000000000013
-2.868882894515991,5.424503326416016,-2.313387870788574,1.7000000000000013
-3.0238428115844727,5.287691116333008,-1.778254747390747,1.7100000000000013
-2.7358899116516113,5.2645063400268555,-1.5652153491973877,1.7200000000000013
-2.198033332824707,5.488404273986816,-1.2590038776397705,1.7300000000000013
-1.6684705018997192,5.528530120849609,-0.7797163724899292,1.7400000000000013
-1.4226603507995605,5.440145492553711,-0.7563212513923645,1.7500000000000013
-1.2364948987960815,5.340742111206055,-0.9379268884658813,1.7600000000000013
-1.05807626247406,5.0989885330200195,-1.0951943397521973,1.7700000000000014
-0.8661591410636902,4.688811302185059,-1.1229240894317627,1.7800000000000014
-0.5433838367462158,4.112744331359863,-1.0257909297943115,1.7900000000000014
-0.2762765884399414,3.4258832931518555,-0.7938013076782227,1.8000000000000014
-0.13397884368896484,2.6544275283813477,-0.5214660167694092,1.8100000000000014
-0.1300572156906128,1.7097358703613281,-0.3563704490661621,1.8200000000000014
-0.3964463472366333,1.149144172668457,-0.05474543571472168,1.8300000000000014
-0.6416040658950806,0.9363288879394531,-0.03079700469970703,1.8400000000000014
-0.9257441759109497,0.7051334381103516,-0.08871114253997803,1.8500000000000014
-1.299899935722351,0.34346485137939453,-0.3868519067764282,1.8600000000000014
-1.4463002681732178,0.03577136993408203,-0.7630492448806763,1.8700000000000014
-1.6136150360107422,-0.35657310485839844,-1.2587016820907593,1.8800000000000014
-1.8251502513885498,-0.6662321090698242,-1.6152660846710205,1.8900000000000015
-1.665825366973877,-1.2953567504882812,-1.8443982601165771,1.9000000000000015
-1.3426616191864014,-1.9140305519104004,-2.081925392150879,1.9100000000000015
-0.9741372466087341,-2.625882148742676,-1.986271619796753,1.9200000000000015
-0.6869313716888428,-3.632473945617676,-1.3063608407974243,1.9300000000000015
-0.18171417713165283,-4.183224201202393,-1.2085342407226562,1.9400000000000015
-0.3675811290740967,-4.701363563537598,-1.508658766746521,1.9500000000000015
0.41655445098876953,-4.6895623207092285,-1.7437379360198975,1.9600000000000015
0.913428544998169,-4.9475178718566895,-1.8372032642364502,1.9700000000000015
1.2330573797225952,-5.6066694259643555,-1.5347727537155151,1.9800000000000015
1.1805144548416138,-5.978026390075684,-1.2017543315887451,1.9900000000000015
1.0368117094039917,-6.054923057556152,-0.7463057041168213,2.0000000000000013
0.9111940860748291,-6.014619827270508,-0.4363718032836914,2.010000000000001
0.5420751571655273,-5.9384050369262695,-0.26003170013427734,2.020000000000001
0.28580009937286377,-6.108263969421387,-0.2416548728942871,2.0300000000000007
0.12348246574401855,-6.6739277839660645,-0.47631311416625977,2.0400000000000005
-0.5289138555526733,-6.947988033294678,-0.666748046875,2.0500000000000003
-1.0380736589431763,-6.973372936248779,-0.754401683807373,2.06
-1.3836137056350708,-6.807353973388672,-0.855165958404541,2.07
-1.6285269260406494,-6.478550910949707,-1.020049810409546,2.0799999999999996
-1.8714518547058105,-6.082603454589844,-1.0104196071624756,2.0899999999999994
-2.0595576763153076,-5.763147354125977,-0.9316184520721436,2.099999999999999
-2.0612220764160156,-5.3409857749938965,-0.902768611907959,2.109999999999999
-2.0488734245300293,-5.012461185455322,-0.8588502407073975,2.1199999999999988
-1.9411571025848389,-4.8469624519348145,-0.8281266689300537,2.1299999999999986
-1.9463835954666138,-4.693819999694824,-0.7885351181030273,2.1399999999999983
-1.793635606765747,-4.694469451904297,-0.7081105709075928,2.149999999999998
-1.853586196899414,-4.454476356506348,-0.5933444499969482,2.159999999999998
-1.9441734552383423,-4.538572311401367,-0.5036227703094482,2.1699999999999977
-2.1037888526916504,-4.578187465667725,-0.32628798484802246,2.1799999999999975
-2.1649601459503174,-4.578235149383545,-0.1592421531677246,2.1899999999999973
-2.1946094036102295,-4.512475967407227,0.011889219284057617,2.199999999999997
-2.257263660430908,-4.407297134399414,0.22780251502990723,2.209999999999997
-2.336014747619629,-4.224450588226318,0.43335390090942383,2.2199999999999966
-2.3591811656951904,-3.9686708450317383,0.5373845100402832,2.2299999999999964
-2.2479734420776367,-3.7354283332824707,0.5417201519012451,2.239999999999996
-1.9401893615722656,-3.4933719635009766,0.4911940097808838,2.249999999999996
-1.9363051652908325,-3.117713451385498,0.2172694206237793,2.259999999999996
-1.6763496398925781,-2.7757186889648438,0.039740562438964844,2.2699999999999956
-1.3708224296569824,-2.304553508758545,-0.094879150390625,2.2799999999999954
-1.2805918455123901,-1.7400827407836914,-0.07237792015075684,2.289999999999995
-1.0916128158569336,-1.2210988998413086,-0.036676645278930664,2.299999999999995
-0.987820565700531,-0.6039972305297852,0.028486967086791992,2.3099999999999947
-1.0743333101272583,0.11150455474853516,0.03547787666320801,2.3199999999999945
-1.1015417575836182,0.8587579727172852,-0.1108405590057373,2.3299999999999943
-1.3348218202590942,1.8152103424072266,-0.2834303379058838,2.339999999999994
-1.48521089553833,2.957437515258789,-0.6164528131484985,2.349999999999994
-1.6259019374847412,4.1902570724487305,-0.7531167268753052,2.3599999999999937
-1.670122742652893,5.444460868835449,0.04031634330749512,2.3699999999999934
-1.9348711967468262,6.655142784118652,1.8030188083648682,2.3799999999999932
-2.2411346435546875,7.773736953735352,4.140515327453613,2.389999999999993
-2.35909366607666,8.780029296875,6.638341903686523,2.399999999999993
-2.23030686378479,9.61247730255127,9.164032936096191,2.4099999999999926
-1.7088277339935303,10.115829467773438,11.196249008178711,2.4199999999999924
-0.9005160927772522,10.46562671661377,12.393823623657227,2.429999999999992
0.620614767074585,10.195578575134277,12.255992889404297,2.439999999999992
2.448298931121826,8.790681838989258,11.188196182250977,2.4499999999999917
3.991663932800293,6.016695022583008,9.662714004516602,2.4599999999999915
5.002941131591797,2.373824119567871,7.801266670227051,2.4699999999999913
5.889038562774658,-1.3473320007324219,6.130441665649414,2.479999999999991
6.5133562088012695,-4.419947624206543,4.692802429199219,2.489999999999991
6.904538631439209,-6.828428268432617,3.755387544631958,2.4999999999999907
6.675281047821045,-8.685745239257812,2.568432331085205,2.5099999999999905
5.679318428039551,-9.934110641479492,0.9658222198486328,2.5199999999999902
4.139252185821533,-9.624005317687988,-0.10503101348876953,2.52999999999999
3.1543917655944824,-9.217090606689453,-1.8161858320236206,2.53999999999999
2.431913375854492,-8.898354530334473,-3.881986141204834,2.5499999999999896
1.362380027770996,-8.259295463562012,-5.788093566894531,2.5599999999999894
-0.05362570285797119,-6.923863410949707,-6.804553031921387,2.569999999999989
-1.1635715961456299,-5.097214221954346,-6.70442008972168,2.579999999999989
-1.9818596839904785,-3.4920363426208496,-6.334434509277344,2.5899999999999888
-1.892364740371704,-0.9855003356933594,-6.795072555541992,2.5999999999999885
-0.893114447593689,3.422013282775879,-7.555980682373047,2.6099999999999883
-0.7141339778900146,9.172000885009766,-7.438235759735107,2.619999999999988
-1.2122281789779663,16.4322509765625,-6.30389404296875,2.629999999999988
-1.945051670074463,22.91851806640625,-3.6403517723083496,2.6399999999999877
-2.4890878200531006,28.03746795654297,-2.1333749294281006,2.6499999999999875
-3.781374931335449,32.234413146972656,-3.195784091949463,2.6599999999999873
-4.796288967132568,34.03193283081055,-5.813264846801758,2.669999999999987
-2.6298470497131348,28.783069610595703,-8.438432693481445,2.679999999999987
-3.500478982925415,17.787227630615234,-10.079734802246094,2.6899999999999866
-3.945145845413208,10.772012710571289,-9.273393630981445,2.6999999999999864
-3.166515350341797,5.705238342285156,-6.347966194152832,2.709999999999986
-2.0354251861572266,1.4270009994506836,-1.985571265220642,2.719999999999986
-1.5882463455200195,-2.153696060180664,1.5320489406585693,2.7299999999999858
-1.134751558303833,-5.06936502456665,3.2360644340515137,2.7399999999999856
-0.705634593963623,-7.78885555267334,2.4656152725219727,2.7499999999999853
-0.16742926836013794,-10.239818572998047,0.294893741607666,2.759999999999985
0.4333151578903198,-11.819376945495605,-1.9723635911941528,2.769999999999985
0.9608700275421143,-12.815321922302246,-3.430833339691162,2.7799999999999847
0.2564401626586914,-12.819588661193848,-3.7856788635253906,2.7899999999999845
0.20407724380493164,-12.601726531982422,-3.751960515975952,2.7999999999999843
0.8855936527252197,-12.070454597473145,-3.5012197494506836,2.809999999999984
1.3653476238250732,-11.141971588134766,-3.443140983581543,2.819999999999984
1.658941626548767,-9.899683952331543,-3.9040701389312744,2.8299999999999836
1.7664250135421753,-8.555757522583008,-4.356912612915039,2.8399999999999834
1.965688943862915,-7.379235744476318,-4.694639682769775,2.849999999999983
2.306657552719116,-6.511119842529297,-5.349152565002441,2.859999999999983
2.907994270324707,-5.706583499908447,-5.691982269287109,2.869999999999983
3.3340554237365723,-4.376262187957764,-6.008540153503418,2.8799999999999826
3.398094415664673,-1.6803326606750488,-6.36572265625,2.8899999999999824
2.8372457027435303,1.4459848403930664,-6.925302982330322,2.899999999999982
1.5175753831863403,3.9322290420532227,-7.0033063888549805,2.909999999999982
-0.1647254228591919,5.751626968383789,-6.385423183441162,2.9199999999999817
-2.1961050033569336,7.037447929382324,-5.355459213256836,2.9299999999999815
-4.643352031707764,7.42788028717041,-4.308713436126709,2.9399999999999813
-6.201772212982178,6.788266181945801,-3.133273124694824,2.949999999999981
-4.405001163482666,4.512002944946289,-1.9806121587753296,2.959999999999981
-2.08469295501709,1.8820390701293945,-0.9830633401870728,2.9699999999999807
-1.660530686378479,-0.11131668090820312,-0.24656569957733154,2.9799999999999804
-1.546420931816101,-1.6315441131591797,0.24023109674453735,2.9899999999999802
-1.5755038261413574,-2.576629638671875,0.33310598134994507,2.99999999999998
-1.851381540298462,-3.229698657989502,0.07942640781402588,3.00999999999998
-2.016036033630371,-3.703859806060791,0.058129310607910156,3.0199999999999796
-1.9220616817474365,-4.030892372131348,-0.09641069173812866,3.0299999999999794
-1.5846664905548096,-4.115856647491455,-0.40231433510780334,3.039999999999979
-1.1534029245376587,-4.126899242401123,-0.6596538424491882,3.049999999999979
-0.6055914163589478,-3.995234489440918,-0.7063958644866943,3.0599999999999787
-0.32100462913513184,-3.7428994178771973,-0.9108415842056274,3.0699999999999785
-0.14664769172668457,-3.645109176635742,-1.1438851356506348,3.0799999999999783
0.02957916259765625,-3.2186460494995117,-1.3348588943481445,3.089999999999978
0.26190757751464844,-2.748340129852295,-1.1618765592575073,3.099999999999978
0.5487614870071411,-2.267392158508301,-1.0022603273391724,3.1099999999999777
0.9172658920288086,-1.8471269607543945,-1.254101276397705,3.1199999999999775
1.2079323530197144,-1.2144412994384766,-1.393375039100647,3.1299999999999772
1.6424617767333984,-0.7280521392822266,-0.9441587924957275,3.139999999999977
1.6791024208068848,-0.6003646850585938,-0.3219355344772339,3.149999999999977
1.7100303173065186,-0.6754579544067383,0.26718032360076904,3.1599999999999766
1.8548252582550049,-0.826380729675293,0.7062802314758301,3.1699999999999764
1.620544195175171,-1.3471288681030273,0.8907777070999146,3.179999999999976
1.4171454906463623,-1.7328200340270996,0.8335390090942383,3.189999999999976
1.2239151000976562,-1.9168200492858887,0.5779956579208374,3.1999999999999758
0.9485337734222412,-2.0717053413391113,0.3633313477039337,3.2099999999999755
0.5871859788894653,-2.1259231567382812,0.41200491786003113,3.2199999999999753
0.4107433557510376,-2.2327089309692383,0.6665189862251282,3.229999999999975
0.2542215585708618,-2.184014320373535,0.8872042894363403,3.239999999999975
0.41179120540618896,-2.0685338973999023,1.1453659534454346,3.2499999999999747
0.6486165523529053,-1.8337583541870117,1.430864691734314,3.2599999999999745
1.0169302225112915,-1.5300779342651367,1.632725715637207,3.2699999999999743
1.2651084661483765,-1.2532548904418945,1.7022762298583984,3.279999999999974
1.6036620140075684,-0.8598489761352539,1.9668540954589844,3.289999999999974
1.9294666051864624,-0.486328125,2.2179501056671143,3.2999999999999736
2.0099854469299316,-0.0035257339477539062,2.316525459289551,3.3099999999999734
2.139641284942627,0.24407005310058594,2.3896312713623047,3.319999999999973
2.0139880180358887,0.5772581100463867,2.475850820541382,3.329999999999973
2.0277915000915527,0.7783880233764648,2.5542516708374023,3.3399999999999728
2.0261549949645996,0.7280664443969727,2.5948898792266846,3.3499999999999726
1.9062180519104004,0.7111911773681641,2.6387791633605957,3.3599999999999723
1.8398845195770264,0.9118366241455078,2.475036144256592,3.369999999999972
1.8409533500671387,1.0595512390136719,2.5292227268218994,3.379999999999972
2.144232988357544,0.8794231414794922,2.785005569458008,3.3899999999999717
2.558015823364258,0.8357057571411133,2.777994155883789,3.3999999999999715
2.8952813148498535,0.8851442337036133,2.7086997032165527,3.4099999999999713
3.119476556777954,1.0372600555419922,2.727814197540283,3.419999999999971
3.121974468231201,1.4283037185668945,2.5720155239105225,3.429999999999971
2.8970947265625,1.8643646240234375,2.2700555324554443,3.4399999999999706
2.4915735721588135,2.2067995071411133,1.9105432033538818,3.4499999999999704
1.973541259765625,2.8144540786743164,1.5913217067718506,3.45999999999997
1.8128291368484497,2.7018089294433594,1.6478300094604492,3.46999999999997
1.665452480316162,2.4771909713745117,2.1815338134765625,3.47999999999997
1.7327615022659302,2.446737289428711,2.426701545715332,3.4899999999999696
2.0086851119995117,2.2035722732543945,2.8140673637390137,3.4999999999999694
2.362611770629883,1.9678287506103516,3.058917999267578,3.509999999999969
2.496039867401123,1.9426965713500977,3.2164080142974854,3.519999999999969
2.3708271980285645,2.0825443267822266,3.483114719390869,3.5299999999999687
2.2045841217041016,2.478055000305176,3.399806499481201,3.5399999999999685
1.884594202041626,2.739199638366699,3.5145559310913086,3.5499999999999683
1.5900251865386963,2.952183723449707,3.3602936267852783,3.559999999999968
1.13175368309021,2.8945884704589844,3.0822720527648926,3.569999999999968
0.7919250726699829,2.6264429092407227,2.5506913661956787,3.5799999999999677
0.5347714424133301,2.0977563858032227,1.7345856428146362,3.5899999999999674
0.3682364225387573,1.2418994903564453,0.9264957904815674,3.5999999999999672
0.222683846950531,0.5423364639282227,0.31797224283218384,3.609999999999967
0.15968626737594604,-0.10380268096923828,-0.06660318374633789,3.619999999999967
-0.009933173656463623,-0.8233861923217773,-0.38849031925201416,3.6299999999999666
0.710152268409729,-0.8658971786499023,-1.0135917663574219,3.6399999999999664
0.3115078806877136,-0.9949588775634766,-1.4932656288146973,3.649999999999966
-0.4119323790073395,-0.9376916885375977,-1.5763471126556396,3.659999999999966
-0.15765762329101562,-0.3525362014770508,-2.323422431945801,3.6699999999999657
0.4453151822090149,0.7045869827270508,-3.717116117477417,3.6799999999999655
0.014519691467285156,1.4922237396240234,-3.6518335342407227,3.6899999999999653
-0.3127215504646301,2.003912925720215,-3.8503870964050293,3.699999999999965
0.043248653411865234,2.340662956237793,-4.968074798583984,3.709999999999965
1.1699860095977783,2.36663818359375,-6.109030246734619,3.7199999999999647
2.2371163368225098,2.0203752517700195,-6.494136810302734,3.7299999999999645
2.5228443145751953,1.9744987487792969,-6.560438632965088,3.7399999999999642
2.0057029724121094,2.362837791442871,-6.59681510925293,3.749999999999964
1.0967328548431396,2.9748010635375977,-6.355169296264648,3.759999999999964
0.17654776573181152,3.480311393737793,-5.990703582763672,3.7699999999999636
-0.6559156179428101,3.913026809692383,-5.6500749588012695,3.7799999999999634
-1.3130793571472168,4.117591857910156,-5.291711330413818,3.789999999999963
-1.7114801406860352,4.503081321716309,-4.970097541809082,3.799999999999963
-1.9453020095825195,4.842111587524414,-4.477724075317383,3.8099999999999627
-1.87632155418396,5.117905616760254,-3.6702206134796143,3.8199999999999625
-1.6924865245819092,5.304123878479004,-2.7491531372070312,3.8299999999999623
-1.1456072330474854,5.931382179260254,-2.2033543586730957,3.839999999999962
-0.6985172033309937,6.484766960144043,-2.1469154357910156,3.849999999999962
-0.3625149726867676,6.887689590454102,-2.0864319801330566,3.8599999999999617
-0.027381420135498047,7.195198059082031,-1.7343626022338867,3.8699999999999615
0.03844642639160156,7.361905097961426,-1.350643515586853,3.8799999999999613
-0.37003207206726074,7.096392631530762,-0.9459573030471802,3.889999999999961
-0.8835612535476685,6.540378570556641,-0.5528009533882141,3.899999999999961
-1.3840174674987793,5.947731018066406,-0.08677005767822266,3.9099999999999606
-1.7432247400283813,5.25152587890625,0.4810987710952759,3.9199999999999604
-2.191859245300293,4.389736175537109,1.0026088953018188,3.92999999999996
-2.4743359088897705,3.216583251953125,1.4112792015075684,3.93999999999996
-2.8707966804504395,2.174673080444336,1.7529046535491943,3.9499999999999598
-3.0991978645324707,1.4598979949951172,1.766603708267212,3.9599999999999596
-3.365530014038086,0.7419681549072266,1.2152013778686523,3.9699999999999593
-3.0230331420898438,0.34600353240966797,0.44260215759277344,3.979999999999959
-2.503880500793457,0.19983673095703125,-0.5499547719955444,3.989999999999959
-2.143620252609253,0.03994178771972656,-1.5241167545318604,3.9999999999999587
-1.7580881118774414,-0.09794235229492188,-2.4504075050354004,4.009999999999959
-1.6113643646240234,-0.3332967758178711,-3.277942419052124,4.019999999999959
-1.1631582975387573,-0.74755859375,-3.8687779903411865,4.0299999999999585
-0.48816943168640137,-1.5086941719055176,-4.162082195281982,4.039999999999958
-0.08129000663757324,-2.746400833129883,-3.547508955001831,4.049999999999958
0.39647722244262695,-4.211950778961182,-2.788939952850342,4.059999999999958
0.7782447338104248,-4.783498764038086,-2.634324312210083,4.069999999999958
1.207000494003296,-5.285091876983643,-2.3139700889587402,4.079999999999957
2.0064053535461426,-6.193387031555176,-1.922377109527588,4.089999999999957
2.4182348251342773,-6.869863510131836,-1.784011960029602,4.099999999999957
2.5642051696777344,-7.506438732147217,-1.3473691940307617,4.109999999999957
2.1635332107543945,-7.656019687652588,-0.9899928569793701,4.119999999999957
1.8919888734817505,-8.105640411376953,-0.6638846397399902,4.129999999999956
1.5806084871292114,-8.70596694946289,-0.7099037170410156,4.139999999999956
0.73652184009552,-8.817492485046387,-0.7174415588378906,4.149999999999956
-0.13986802101135254,-8.698391914367676,-0.6538512706756592,4.159999999999956
-0.8496851325035095,-8.329170227050781,-0.6158859729766846,4.1699999999999555
-1.516528606414795,-7.7885355949401855,-0.5327651500701904,4.179999999999955
-1.999930739402771,-7.155318737030029,-0.46992063522338867,4.189999999999955
-2.242285966873169,-6.52984094619751,-0.4905736446380615,4.199999999999955
-2.240741491317749,-5.916819095611572,-0.5403287410736084,4.209999999999955
-2.2030701637268066,-5.330597877502441,-0.5310282707214355,4.2199999999999545
-1.992055892944336,-4.981696128845215,-0.6326625347137451,4.229999999999954
-1.7960087060928345,-4.716907024383545,-0.6658294200897217,4.239999999999954
-1.6022261381149292,-4.584098815917969,-0.7237818241119385,4.249999999999954
-1.40237557888031,-4.47590446472168,-0.7078042030334473,4.259999999999954
-1.2462164163589478,-4.186831474304199,-0.66786789894104,4.269999999999953
-1.1114189624786377,-4.221821308135986,-0.5463306903839111,4.279999999999953
-1.0696332454681396,-4.212413311004639,-0.2853407859802246,4.289999999999953
-1.1517823934555054,-4.199490547180176,-0.04227137565612793,4.299999999999953
-1.0347503423690796,-4.23341178894043,0.3149130344390869,4.3099999999999525
-1.3575986623764038,-4.1848835945129395,0.42018604278564453,4.319999999999952
-1.4981586933135986,-4.20452880859375,0.5630283355712891,4.329999999999952
-1.5902870893478394,-4.201266288757324,0.6736917495727539,4.339999999999952
-1.5959174633026123,-4.150909900665283,0.698876142501831,4.349999999999952
-1.563402533531189,-3.9454522132873535,0.6494393348693848,4.3599999999999515
-1.4212945699691772,-3.5990424156188965,0.4765312671661377,4.369999999999951
-1.2872694730758667,-3.149686336517334,0.22683382034301758,4.379999999999951
-1.0874652862548828,-2.659249782562256,-0.022098064422607422,4.389999999999951
-0.9058117866516113,-2.048320770263672,-0.3799474239349365,4.399999999999951
-0.8695235848426819,-1.2853937149047852,-0.8630483150482178,4.40999999999995
-0.9575904607772827,-0.4970359802246094,-1.207169771194458,4.41999999999995
-1.0556138753890991,0.27649497985839844,-1.8708809614181519,4.42999999999995
-1.1329525709152222,1.0954914093017578,-2.702711582183838,4.43999999999995
-1.1733667850494385,1.9411182403564453,-3.1633803844451904,4.4499999999999496
-1.2181237936019897,2.9305248260498047,-2.710418462753296,4.459999999999949
-1.4644166231155396,4.02006721496582,-1.199236273765564,4.469999999999949
-1.9351900815963745,5.137056350708008,1.203185796737671,4.479999999999949
-2.3753981590270996,6.079626083374023,3.9692888259887695,4.489999999999949
-2.426327705383301,6.988227844238281,6.46109676361084,4.4999999999999485
-2.2143218517303467,7.873837471008301,8.687199592590332,4.509999999999948
-1.7089343070983887,8.821425437927246,10.517206192016602,4.519999999999948
-1.0410230159759521,9.897107124328613,11.87966537475586,4.529999999999948
-0.3625313639640808,10.050233840942383,12.731904029846191,4.539999999999948
0.8293936252593994,9.885955810546875,12.417675018310547,4.549999999999947
1.5741444826126099,8.376766204833984,10.686971664428711,4.559999999999947
2.438258171081543,5.840865135192871,8.162694931030273,4.569999999999947
3.3540291786193848,2.578968048095703,5.900710105895996,4.579999999999947
4.199670791625977,-0.5185422897338867,4.535056114196777,4.589999999999947
4.870880126953125,-3.17703914642334,3.624633550643921,4.599999999999946
5.161767959594727,-5.323092460632324,3.1699531078338623,4.609999999999946
4.5174150466918945,-7.117412567138672,3.1196539402008057,4.619999999999946
3.386542797088623,-8.210705757141113,2.768669605255127,4.629999999999946
3.177865982055664,-8.598176956176758,1.4562346935272217,4.6399999999999455
2.4442553520202637,-8.87939453125,-0.32456374168395996,4.649999999999945
2.0767903327941895,-8.789552688598633,-2.062246322631836,4.659999999999945
1.5138964653015137,-8.023369789123535,-3.761415719985962,4.669999999999945
0.39015424251556396,-6.496314525604248,-5.200567245483398,4.679999999999945
-0.430924654006958,-4.137580394744873,-5.609746932983398,4.689999999999944
-1.2148706912994385,-2.3380231857299805,-5.6305437088012695,4.699999999999944
-1.705148696899414,-0.7914533615112305,-6.185757160186768,4.709999999999944
-1.7319844961166382,1.7566289901733398,-6.69374418258667,4.719999999999944
-0.8436266183853149,5.713885307312012,-6.8880133628845215,4.729999999999944
-0.2767080068588257,11.006604194641113,-7.052959442138672,4.739999999999943
-0.3725287914276123,18.674579620361328,-6.983091354370117,4.749999999999943
-0.9136948585510254,26.475664138793945,-5.219337463378906,4.759999999999943
-2.166991710662842,35.17710876464844,-3.973979949951172,4.769999999999943
-4.2752509117126465,40.38799285888672,-5.245777130126953,4.7799999999999425
-5.349819183349609,40.61573028564453,-8.25014877319336,4.789999999999942
-5.823414325714111,29.599609375,-9.056894302368164,4.799999999999942
-6.179221153259277,18.43975830078125,-9.72089672088623,4.809999999999942
-4.953634738922119,10.433581352233887,-8.34593391418457,4.819999999999942
-2.909027099609375,3.953378677368164,-4.525761127471924,4.8299999999999415
-1.231439232826233,-1.544036865234375,0.8089613914489746,4.839999999999941
-0.0397946834564209,-5.971252918243408,5.55516242980957,4.849999999999941
0.38914525508880615,-10.496143341064453,5.01469612121582,4.859999999999941
1.1423012018203735,-13.775754928588867,1.4984157085418701,4.869999999999941
1.7629587650299072,-16.386938095092773,-2.327204942703247,4.87999999999994
2.7452588081359863,-17.51717758178711,-4.888108253479004,4.88999999999994
1.4974032640457153,-16.995769500732422,-5.4995503425598145,4.89999999999994
-0.34967052936553955,-15.800898551940918,-5.272632122039795,4.90999999999994
-0.14846718311309814,-15.032817840576172,-4.593520164489746,4.9199999999999395
0.19264376163482666,-13.956485748291016,-4.130553722381592,4.929999999999939
0.6335188150405884,-12.547496795654297,-4.186863422393799,4.939999999999939
1.0849204063415527,-11.084867477416992,-4.360424041748047,4.949999999999939
1.4365431070327759,-9.641071319580078,-4.840087413787842,4.959999999999939
2.1752145290374756,-8.312058448791504,-5.215977668762207,4.9699999999999385
3.3624682426452637,-6.939623832702637,-5.435976028442383,4.979999999999938
4.344488143920898,-5.104625225067139,-4.962820053100586,4.989999999999938
5.019451141357422,-1.6228952407836914,-4.478867053985596,4.999999999999938
5.540982723236084,2.356901168823242,-4.383237838745117,5.009999999999938
4.875413417816162,5.707130432128906,-4.400915622711182,5.019999999999937
3.044016122817993,8.245949745178223,-4.521146774291992,5.029999999999937
0.9579654932022095,10.249960899353027,-4.01961612701416,5.039999999999937
-1.018778920173645,11.201529502868652,-3.7136130332946777,5.049999999999937
-2.948908805847168,10.883008003234863,-3.6541199684143066,5.0599999999999365
-4.661802768707275,8.684537887573242,-3.2984485626220703,5.069999999999936
-3.5012974739074707,5.0359649658203125,-2.7314610481262207,5.079999999999936
-2.4964749813079834,1.9397468566894531,-1.8999756574630737,5.089999999999936
-2.6931257247924805,-0.3969297409057617,-1.079811453819275,5.099999999999936
-2.875946283340454,-2.1879777908325195,-0.16429436206817627,5.1099999999999355
-2.7647390365600586,-3.7288312911987305,0.6488064527511597,5.119999999999935
-2.4144115447998047,-4.7288432121276855,0.746496319770813,5.129999999999935
-2.8214192390441895,-5.062410831451416,0.3008671998977661,5.139999999999935
-3.5687570571899414,-5.127631187438965,-0.058854877948760986,5.149999999999935
-3.165947437286377,-4.95202112197876,0.1098400354385376,5.159999999999934
-2.448714256286621,-4.782652378082275,-0.38775908946990967,5.169999999999934
-1.743006944656372,-4.650866508483887,-1.3308908939361572,5.179999999999934
-1.1602234840393066,-4.582968711853027,-2.4112346172332764,5.189999999999934
-0.5713610649108887,-4.234483242034912,-2.9036977291107178,5.199999999999934
-0.1547335386276245,-3.6775221824645996,-2.2759411334991455,5.209999999999933
0.21693289279937744,-2.8644275665283203,-1.1738711595535278,5.219999999999933
0.5050767660140991,-2.3451032638549805,-0.1957108974456787,5.229999999999933
0.9265085458755493,-1.8986425399780273,0.31626784801483154,5.239999999999933
1.2943003177642822,-0.9409065246582031,0.32842540740966797,5.2499999999999325
1.6738346815109253,-0.2946033477783203,0.33429956436157227,5.259999999999932
1.9757511615753174,0.03132820129394531,0.5765369534492493,5.269999999999932
2.216622829437256,0.10189628601074219,1.0329972505569458,5.279999999999932
2.3489186763763428,-0.032444000244140625,1.5508239269256592,5.289999999999932
2.337510585784912,-0.4552745819091797,1.879565715789795,5.299999999999931
2.2317190170288086,-1.051732063293457,2.00333571434021,5.309999999999931
2.2175567150115967,-1.809981346130371,1.9921555519104004,5.319999999999931
2.040891170501709,-2.7182040214538574,1.9039008617401123,5.329999999999931
1.861217975616455,-3.5062808990478516,1.844348430633545,5.339999999999931
1.6004515886306763,-4.129044532775879,1.763251543045044,5.34999999999993
1.4624682664871216,-4.436110973358154,1.7379992008209229,5.35999999999993
1.3370649814605713,-4.473215579986572,1.7452473640441895,5.36999999999993
1.2571285963058472,-4.216567516326904,1.6630938053131104,5.37999999999993
1.3148541450500488,-3.788194179534912,1.5078805685043335,5.3899999999999295
1.3557687997817993,-3.1497344970703125,1.2595709562301636,5.399999999999929
1.472127914428711,-2.53317928314209,1.098467469215393,5.409999999999929
1.5958411693572998,-2.0005178451538086,1.0466173887252808,5.419999999999929
1.642480731010437,-1.4033794403076172,1.0540430545806885,5.429999999999929
1.657745122909546,-0.9715642929077148,1.1286563873291016,5.4399999999999284
1.6084535121917725,-0.8030595779418945,1.3057990074157715,5.449999999999928
1.3892616033554077,-0.5963163375854492,1.3557353019714355,5.459999999999928
1.1171927452087402,-0.3896636962890625,1.369619369506836,5.469999999999928
0.9959852695465088,-0.4629030227661133,1.530665397644043,5.479999999999928
1.1666115522384644,-0.3685178756713867,1.8613865375518799,5.489999999999927
1.0637675523757935,-0.1018829345703125,1.9119970798492432,5.499999999999927
1.3528246879577637,0.38930416107177734,2.0007576942443848,5.509999999999927
1.6268699169158936,0.9827671051025391,1.8621294498443604,5.519999999999927
1.6370840072631836,1.5086116790771484,1.6184477806091309,5.5299999999999265
1.5102406740188599,1.8640632629394531,1.12342369556427,5.539999999999926
1.2673835754394531,2.042123794555664,0.5294421911239624,5.549999999999926
0.9226751327514648,2.126638412475586,0.08705663681030273,5.559999999999926
0.7203866243362427,2.0220413208007812,0.06182253360748291,5.569999999999926
0.677040696144104,2.1206912994384766,0.09228241443634033,5.5799999999999255
0.75215744972229,2.1928367614746094,0.4999621510505676,5.589999999999925
0.9478299617767334,2.1214799880981445,1.0226954221725464,5.599999999999925
1.2707690000534058,2.021678924560547,1.5415871143341064,5.609999999999925
1.73016357421875,2.077631950378418,1.968541145324707,5.619999999999925
2.0626351833343506,2.39678955078125,2.392472505569458,5.629999999999924
2.2702994346618652,2.8712539672851562,2.6651177406311035,5.639999999999924
2.2334065437316895,3.369363784790039,2.949380397796631,5.649999999999924
1.9423893690109253,3.8169755935668945,3.163816213607788,5.659999999999924
1.6967642307281494,4.070613861083984,3.3177833557128906,5.6699999999999235
1.2265483140945435,4.094603538513184,3.3920695781707764,5.679999999999923
0.7931883335113525,3.8580493927001953,3.2955260276794434,5.689999999999923
0.6132980585098267,3.3658924102783203,3.2004826068878174,5.699999999999923
0.6950271129608154,2.6757116317749023,2.9300975799560547,5.709999999999923
0.8065906763076782,2.0220842361450195,2.5425052642822266,5.7199999999999225
0.9786437749862671,1.5819482803344727,2.0426087379455566,5.729999999999922
1.2849462032318115,1.4530344009399414,1.4944642782211304,5.739999999999922
1.6655170917510986,1.419651985168457,1.0190538167953491,5.749999999999922
2.263524055480957,1.4122543334960938,0.37613314390182495,5.759999999999922
2.6260077953338623,1.4618778228759766,-0.3919793367385864,5.769999999999921
2.929324150085449,1.4059391021728516,-1.0940738916397095,5.779999999999921
3.0220489501953125,1.3665781021118164,-1.9840891361236572,5.789999999999921
2.994455337524414,1.2601957321166992,-2.6935877799987793,5.799999999999921
2.8696646690368652,0.9554901123046875,-3.2754812240600586,5.809999999999921
2.7429208755493164,0.5890779495239258,-3.7540884017944336,5.81999999999992
2.5723471641540527,0.3907899856567383,-4.1366119384765625,5.82999999999992
2.5103025436401367,0.6786003112792969,-4.635926246643066,5.83999999999992
2.424739122390747,1.0143518447875977,-5.198432445526123,5.84999999999992
1.2717313766479492,0.5015239715576172,-5.02215051651001,5.8599999999999195
0.8100340366363525,0.8912754058837891,-5.10434627532959,5.869999999999919
-0.3195851445198059,1.0658302307128906,-5.0019073486328125,5.879999999999919
-1.4283676147460938,1.3890151977539062,-4.744484901428223,5.889999999999919
-2.4118189811706543,1.8606748580932617,-5.103278160095215,5.899999999999919
-2.6905479431152344,2.508962631225586,-5.757693767547607,5.909999999999918
-3.7166895866394043,3.034893035888672,-5.313134670257568,5.919999999999918
-4.795511722564697,3.525223731994629,-4.0572943687438965,5.929999999999918
-5.113811492919922,3.9561996459960938,-2.8992090225219727,5.939999999999918
-4.838253974914551,4.227215766906738,-2.4366114139556885,5.949999999999918
-4.431080341339111,4.391086578369141,-2.0909762382507324,5.959999999999917
-3.9200830459594727,4.500807762145996,-1.7594659328460693,5.969999999999917
-3.5191197395324707,4.537505149841309,-1.5752975940704346,5.979999999999917
-3.020716667175293,4.400979042053223,-1.339380145072937,5.989999999999917
-2.3412749767303467,4.230110168457031,-0.8381422758102417,5.9999999999999165
-1.750335693359375,4.2591047286987305,-0.6958305835723877,6.009999999999916
-1.3642818927764893,4.37766170501709,-0.9846763610839844,6.019999999999916
-1.0292282104492188,4.377577781677246,-1.159401535987854,6.029999999999916
-0.9601483941078186,4.263724327087402,-1.1097261905670166,6.039999999999916
-1.058976173400879,4.076825141906738,-0.8897709846496582,6.0499999999999154
-1.2254724502563477,3.7810049057006836,-0.6348029971122742,6.059999999999915
-1.282823085784912,3.364339828491211,-0.43275266885757446,6.069999999999915
-1.393667459487915,2.9942121505737305,-0.49605613946914673,6.079999999999915
-1.2870981693267822,2.3021373748779297,-0.8341219425201416,6.089999999999915
-1.2126623392105103,1.9460315704345703,-0.8771193623542786,6.099999999999914
-1.1855933666229248,2.090555191040039,-0.9625301361083984,6.109999999999914
-1.473137617111206,2.0659704208374023,-1.1840577125549316,6.119999999999914
-1.7007687091827393,1.705489158630371,-1.2435128688812256,6.129999999999914
-1.760450005531311,1.0596551895141602,-1.167600393295288,6.1399999999999135
-1.8310015201568604,0.4800758361816406,-1.2287349700927734,6.149999999999913
-1.9066693782806396,-0.2177743911743164,-1.333138346672058,6.159999999999913
-1.796696662902832,-0.9360876083374023,-1.6054527759552002,6.169999999999913
-1.4205043315887451,-1.426447868347168,-2.0343310832977295,6.179999999999913
-0.9915717840194702,-1.8307585716247559,-2.2679717540740967,6.1899999999999125
-0.2761906385421753,-2.7050399780273438,-1.78034245967865,6.199999999999912
0.2807304859161377,-4.279465198516846,-0.592382550239563,6.209999999999912
0.7219178676605225,-5.171452522277832,-0.06925415992736816,6.219999999999912
1.0082736015319824,-5.42466926574707,-0.22269630432128906,6.229999999999912
0.9860625267028809,-5.295418739318848,-0.548297643661499,6.239999999999911
1.1623647212982178,-5.314867973327637,-0.6232306957244873,6.249999999999911
1.357969045639038,-5.530702590942383,-0.4242384433746338,6.259999999999911
1.6830244064331055,-5.9999542236328125,-0.22483515739440918,6.269999999999911
1.555270791053772,-5.951967239379883,0.01743626594543457,6.2799999999999105
1.0931477546691895,-5.817334175109863,0.2998383045196533,6.28999999999991
0.5708006620407104,-5.590960502624512,0.34923815727233887,6.29999999999991
0.04944419860839844,-5.459006309509277,0.25837182998657227,6.30999999999991
-0.28966963291168213,-5.590793609619141,0.21075820922851562,6.31999999999991
-0.7199580669403076,-5.423647403717041,0.0068492889404296875,6.3299999999999095
-1.0695719718933105,-5.249378204345703,-0.15296196937561035,6.339999999999909
-1.1930075883865356,-5.185007095336914,-0.32649946212768555,6.349999999999909
-1.1743160486221313,-5.084449291229248,-0.4351315498352051,6.359999999999909
-1.1429266929626465,-4.974018096923828,-0.5435919761657715,6.369999999999909
-1.1634222269058228,-4.880208969116211,-0.5461611747741699,6.379999999999908
-1.1880329847335815,-4.824666976928711,-0.5094716548919678,6.389999999999908
-1.2984131574630737,-4.680835723876953,-0.4495093822479248,6.399999999999908
-1.444459080696106,-4.561539173126221,-0.31023478507995605,6.409999999999908
-1.5857441425323486,-4.380925178527832,-0.08371376991271973,6.419999999999908
-1.655287504196167,-4.2372918128967285,0.06785464286804199,6.429999999999907
-1.8728662729263306,-4.190560817718506,0.21431636810302734,6.439999999999907
-1.9869813919067383,-4.176135063171387,0.36777591705322266,6.449999999999907
-2.1650376319885254,-4.017037868499756,0.5019345283508301,6.459999999999907
-2.2059640884399414,-3.9071083068847656,0.6047935485839844,6.4699999999999065
-2.267672061920166,-3.7744674682617188,0.6977002620697021,6.479999999999906
-2.2543933391571045,-3.6189661026000977,0.6988728046417236,6.489999999999906
-2.22570538520813,-3.4883484840393066,0.6750056743621826,6.499999999999906
-2.095498561859131,-3.303443431854248,0.6159002780914307,6.509999999999906
-1.9358766078948975,-3.023378372192383,0.48259997367858887,6.519999999999905
-1.720834493637085,-2.7892355918884277,0.4400181770324707,6.529999999999905
-1.601501703262329,-2.4691734313964844,0.2913186550140381,6.539999999999905
-1.4633432626724243,-2.079718589782715,0.16247129440307617,6.549999999999905
-1.3422355651855469,-1.651834487915039,0.06944632530212402,6.559999999999905
-1.2404381036758423,-1.1805143356323242,-0.06061506271362305,6.569999999999904
-1.2460812330245972,-0.6558780670166016,-0.3153982162475586,6.579999999999904
-1.33965003490448,0.025366783142089844,-0.8429555892944336,6.589999999999904
-1.5643184185028076,0.8636379241943359,-1.4445921182632446,6.599999999999904
-1.8988664150238037,1.8688335418701172,-2.0099427700042725,6.6099999999999035
-2.13773775100708,2.952535629272461,-2.090636968612671,6.619999999999903
-2.3459136486053467,3.9591827392578125,-1.337944746017456,6.629999999999903
-2.5119733810424805,4.996149063110352,0.3444039821624756,6.639999999999903
-2.5595765113830566,6.010099411010742,2.6689488887786865,6.649999999999903
-2.401001214981079,6.9189605712890625,5.1676025390625,6.659999999999902
-2.0491626262664795,7.726734161376953,7.440203666687012,6.669999999999902
-1.3125971555709839,8.365240097045898,9.403629302978516,6.679999999999902
-0.9057783484458923,9.011056900024414,10.631031036376953,6.689999999999902
-0.3123220205307007,9.523294448852539,10.965347290039062,6.699999999999902
0.7487883567810059,9.447648048400879,10.322370529174805,6.709999999999901
1.8642598390579224,8.466444969177246,9.09558391571045,6.719999999999901
2.80332088470459,6.57083797454834,7.806495666503906,6.729999999999901
3.352778434753418,3.3982887268066406,6.368882179260254,6.739999999999901
3.5606260299682617,-0.040615081787109375,4.7906270027160645,6.7499999999999005
3.609837055206299,-2.782123565673828,3.6455748081207275,6.7599999999999
3.6732888221740723,-5.090494155883789,3.1206634044647217,6.7699999999999
3.4725289344787598,-6.985361576080322,2.7115767002105713,6.7799999999999
2.884660005569458,-8.16978645324707,1.681267261505127,6.7899999999999
2.2121741771698,-8.657842636108398,0.7564034461975098,6.7999999999998995
1.424734354019165,-8.523048400878906,-0.486492395401001,6.809999999999899
0.6802077293395996,-8.147289276123047,-1.835899829864502,6.819999999999899
-0.2528078556060791,-7.324256896972656,-2.890369415283203,6.829999999999899
-1.3818957805633545,-6.0996479988098145,-3.2908830642700195,6.839999999999899
-2.392024517059326,-4.706068992614746,-3.631094455718994,6.849999999999898
-2.9270381927490234,-2.9098544120788574,-3.9105048179626465,6.859999999999898
-2.6165881156921387,-1.5274362564086914,-4.129883766174316,6.869999999999898
-2.251115083694458,1.086268424987793,-4.798046112060547,6.879999999999898
-2.0956220626831055,5.103104591369629,-4.968179702758789,6.8899999999998975
-2.028247117996216,9.603611946105957,-4.629963397979736,6.899999999999897
-1.4509896039962769,15.321052551269531,-4.000324249267578,6.909999999999897
-1.2803994417190552,19.73572540283203,-3.674703598022461,6.919999999999897
-1.3062001466751099,23.03289031982422,-4.610401153564453,6.929999999999897
-1.8132500648498535,26.377002716064453,-6.561402320861816,6.9399999999998965
-1.872652530670166,27.524776458740234,-8.731269836425781,6.949999999999896
-0.017611384391784668,23.241636276245117,-9.612946510314941,6.959999999999896
-1.2949411869049072,15.11483383178711,-9.490534782409668,6.969999999999896
-1.9259902238845825,9.81358528137207,-8.008620262145996,6.979999999999896
-1.547743797302246,5.680719375610352,-5.347659111022949,6.989999999999895
-0.8537437915802002,1.9357671737670898,-2.0890722274780273,6.999999999999895
0.058571577072143555,-1.5523462295532227,0.6467134952545166,7.009999999999895
0.5660984516143799,-4.865871906280518,1.8011255264282227,7.019999999999895
1.1794922351837158,-7.507460594177246,1.5731639862060547,7.0299999999998946
1.6601742506027222,-9.654241561889648,0.2769205570220947,7.039999999999894
2.1546242237091064,-11.229888916015625,-1.0529214143753052,7.049999999999894
1.443089485168457,-11.507969856262207,-1.660200595855713,7.059999999999894
-0.5053309798240662,-10.879913330078125,-1.6509313583374023,7.069999999999894
-0.43369513750076294,-10.598637580871582,-1.9185256958007812,7.0799999999998935
0.10140872001647949,-10.280044555664062,-2.563464879989624,7.089999999999893
0.5924893617630005,-9.306389808654785,-3.4464519023895264,7.099999999999893
0.9814411401748657,-7.974172592163086,-4.164883136749268,7.109999999999893
1.3214515447616577,-6.818198204040527,-4.640514373779297,7.119999999999893
1.8984367847442627,-5.783695220947266,-5.0371928215026855,7.129999999999892
2.6767935752868652,-4.860515117645264,-5.353873252868652,7.139999999999892
3.2931439876556396,-3.7222838401794434,-5.69687032699585,7.149999999999892
3.6009397506713867,-1.5765109062194824,-6.148057460784912,7.159999999999892
3.3243250846862793,0.9241409301757812,-6.450446128845215,7.169999999999892
2.4675545692443848,3.096590042114258,-6.274237155914307,7.179999999999891
1.1644206047058105,4.631329536437988,-5.756583213806152,7.189999999999891
-0.2448444366455078,5.5657148361206055,-4.846028804779053,7.199999999999891
-1.8538583517074585,5.838852882385254,-3.779165267944336,7.209999999999891
-3.288606882095337,5.277386665344238,-2.701241970062256,7.2199999999998905
-3.4424307346343994,4.0664472579956055,-1.6262761354446411,7.22999999999989
-2.1886889934539795,2.1369504928588867,-0.40342211723327637,7.23999999999989
-1.5489789247512817,0.5296525955200195,0.21528923511505127,7.24999999999989
-1.5471311807632446,-0.5814075469970703,0.29640650749206543,7.25999999999989
-2.064133882522583,-1.4599847793579102,0.17708587646484375,7.269999999999889
-2.3861637115478516,-1.898411750793457,0.050511717796325684,7.279999999999889
-2.3138256072998047,-2.236997604370117,-0.15060031414031982,7.289999999999889
-1.8895747661590576,-2.8229570388793945,-0.056790828704833984,7.299999999999889
-1.7604811191558838,-3.204580307006836,0.006092250347137451,7.309999999999889
-1.818701982498169,-3.0957460403442383,-0.3173688054084778,7.319999999999888
-1.528771162033081,-3.0044679641723633,-0.6246751546859741,7.329999999999888
-0.9556573629379272,-2.900217056274414,-0.8821057081222534,7.339999999999888
-0.2339632511138916,-2.6590895652770996,-1.3440806865692139,7.349999999999888
0.023096084594726562,-2.7569894790649414,-1.5608574151992798,7.3599999999998875
0.2996915578842163,-2.810731887817383,-1.4498014450073242,7.369999999999887
0.4406123161315918,-2.8033447265625,-1.329920768737793,7.379999999999887
0.7501020431518555,-2.4356274604797363,-1.1481788158416748,7.389999999999887
0.9798941612243652,-2.004115104675293,-0.9170944690704346,7.399999999999887
1.2265652418136597,-1.5372190475463867,-0.6229232549667358,7.4099999999998865
1.3833590745925903,-1.252243995666504,-0.23498480021953583,7.419999999999886
1.542738437652588,-1.1296472549438477,0.136549711227417,7.429999999999886
1.7046235799789429,-1.1907434463500977,0.49444320797920227,7.439999999999886
1.7808032035827637,-1.2368907928466797,0.7530741691589355,7.449999999999886
1.709358811378479,-1.4259414672851562,0.8676047325134277,7.459999999999885
1.486282467842102,-1.7099838256835938,0.869560718536377,7.469999999999885
1.2204041481018066,-1.9145145416259766,0.8597664833068848,7.479999999999885
0.9509217739105225,-2.133014678955078,0.7902359366416931,7.489999999999885
0.7195652723312378,-2.3751955032348633,0.7230089902877808,7.4999999999998845
0.4503394365310669,-2.46893310546875,0.7656294107437134,7.509999999999884
0.2776970863342285,-2.459902286529541,0.7167111039161682,7.519999999999884
0.09177935123443604,-2.290853977203369,0.767280638217926,7.529999999999884
0.10782945156097412,-2.1245670318603516,0.8016014099121094,7.539999999999884
0.2156984806060791,-1.9969277381896973,0.8017897605895996,7.5499999999998835
0.2784155607223511,-1.781092643737793,0.8718172311782837,7.559999999999883
0.3625917434692383,-1.5775785446166992,0.9916138648986816,7.569999999999883
0.6765841245651245,-1.5323190689086914,1.4291355609893799,7.579999999999883
0.6723980903625488,-1.5255699157714844,1.4498038291931152,7.589999999999883
0.6390868425369263,-1.3515605926513672,1.5202577114105225,7.599999999999882
0.635680079460144,-1.1060171127319336,1.6431806087493896,7.609999999999882
0.8274092674255371,-1.2098731994628906,1.848107099533081,7.619999999999882
0.8788549900054932,-1.0241880416870117,1.8387633562088013,7.629999999999882
0.9931633472442627,-0.7931613922119141,1.7591328620910645,7.6399999999998816
1.203419804573059,-0.7056732177734375,1.860689401626587,7.649999999999881
1.2197413444519043,-0.3430900573730469,1.7026395797729492,7.659999999999881
1.3606300354003906,-0.2150897979736328,1.7781721353530884,7.669999999999881
1.5997556447982788,-0.04643440246582031,1.8406727313995361,7.679999999999881
1.834280252456665,0.22251415252685547,1.7149674892425537,7.6899999999998805
2.1650054454803467,0.4887256622314453,1.7430288791656494,7.69999999999988
2.285555839538574,0.7713346481323242,1.7165415287017822,7.70999999999988
2.442265748977661,1.0655364990234375,1.809969186782837,7.71999999999988
2.3880276679992676,1.526768684387207,1.6855592727661133,7.72999999999988
2.292506217956543,1.6862497329711914,1.7051711082458496,7.739999999999879
2.1025137901306152,1.7405576705932617,1.8501660823822021,7.749999999999879
1.7623398303985596,1.971940040588379,1.610175609588623,7.759999999999879
1.486864447593689,2.117091178894043,1.5110135078430176,7.769999999999879
1.1850721836090088,2.080423355102539,1.6002432107925415,7.779999999999879
0.9932422637939453,1.967336654663086,1.640864372253418,7.789999999999878
0.7939479351043701,1.8018426895141602,1.6810176372528076,7.799999999999878
0.8702042102813721,1.2851457595825195,1.855757236480713,7.809999999999878
0.9184160232543945,0.9390401840209961,2.1350443363189697,7.819999999999878
1.0702415704727173,0.7943706512451172,2.313117027282715,7.8299999999998775
1.4167802333831787,0.8388757705688477,2.51676607131958,7.839999999999877
1.7954094409942627,1.0101442337036133,2.8919928073883057,7.849999999999877
2.153736114501953,1.2171258926391602,3.2042949199676514,7.859999999999877
2.336290121078491,1.464529037475586,3.4295692443847656,7.869999999999877
2.295335292816162,1.7259273529052734,3.533860683441162,7.879999999999876
1.997497320175171,1.9749908447265625,3.43825626373291,7.889999999999876
1.4862509965896606,2.183110237121582,3.392302989959717,7.899999999999876
0.8793216347694397,2.0993404388427734,3.36081600189209,7.909999999999876
0.4692469835281372,1.9057292938232422,3.1789772510528564,7.919999999999876
0.10090649127960205,1.564065933227539,2.583681106567383,7.929999999999875
-0.23998671770095825,1.1582050323486328,1.8646700382232666,7.939999999999875
-0.3839261531829834,0.9966354370117188,0.9570585489273071,7.949999999999875
-0.30261361598968506,0.7681169509887695,-0.029692530632019043,7.959999999999875
-0.013361215591430664,0.6758298873901367,-0.8982685804367065,7.9699999999998745
0.49055933952331543,0.6644363403320312,-1.5735961198806763,7.979999999999874
0.9291697144508362,1.111435890197754,-2.160086154937744,7.989999999999874
