AccX,AccY,AccZ,SampleRate
-2.828723907470703,-0.33309268951416016,-0.8722713589668274,0
-2.4233498573303223,0.24755573272705078,-0.5265743732452393,0.01
-2.0439884662628174,0.972407341003418,0.005914337933063507,0.02
-1.7986397743225098,1.47991943359375,0.28111982345581055,0.03
-1.5672152042388916,1.6073055267333984,0.09177060425281525,0.04
-1.178439974784851,1.5988826751708984,0.11062392592430115,0.05
-0.8266043663024902,1.4882259368896484,-0.039901867508888245,0.060000000000000005
-0.3792067766189575,1.2824182510375977,-0.22154155373573303,0.07
0.009415388107299805,1.1680879592895508,-0.3266066610813141,0.08
0.2698814868927002,0.8771791458129883,0.005479574203491211,0.09
0.2655203342437744,0.3741455078125,0.14787793159484863,0.09999999999999999
-0.034469008445739746,-0.4842710494995117,0.2656962275505066,0.10999999999999999
-0.529112696647644,-1.882725715637207,0.010957002639770508,0.11999999999999998
-0.6911752820014954,-2.229391098022461,0.7049978971481323,0.12999999999999998
-0.9650110602378845,-2.384704113006592,0.5709503889083862,0.13999999999999999
-1.0584359169006348,-2.341327667236328,0.5064370632171631,0.15
-1.2672278881072998,-2.0849132537841797,0.6410873532295227,0.16
-1.3340444564819336,-1.888707160949707,0.7656108140945435,0.17
-1.4484634399414062,-1.6137347221374512,0.7373594045639038,0.18000000000000002
-1.370282530784607,-1.4708452224731445,0.7889145612716675,0.19000000000000003
-1.086780309677124,-1.6440672874450684,0.7230786085128784,0.20000000000000004
-0.8957821726799011,-1.805429458618164,0.7134149074554443,0.21000000000000005
-0.47878897190093994,-2.3574533462524414,0.6989145278930664,0.22000000000000006
-0.11646461486816406,-2.998378276824951,0.5237149000167847,0.23000000000000007
0.13588249683380127,-3.5206003189086914,0.7088710069656372,0.24000000000000007
0.36382555961608887,-3.960261821746826,1.0494384765625,0.25000000000000006
0.587497353553772,-3.989755630493164,1.3424937725067139,0.26000000000000006
0.7236685752868652,-3.4917469024658203,1.6683655977249146,0.2700000000000001
0.6728761196136475,-2.7457776069641113,1.8045272827148438,0.2800000000000001
0.76201331615448,-2.0143065452575684,1.6917496919631958,0.2900000000000001
0.780848503112793,-1.415604591369629,1.5729484558105469,0.3000000000000001
0.817325234413147,-0.7771663665771484,1.579898715019226,0.3100000000000001
0.8484113216400146,-0.3357963562011719,1.7418853044509888,0.3200000000000001
1.1075074672698975,0.19310379028320312,1.9256618022918701,0.3300000000000001
1.2656251192092896,0.5792713165283203,1.967055320739746,0.34000000000000014
1.250338077545166,0.5894250869750977,1.9295748472213745,0.35000000000000014
1.4642829895019531,1.5039167404174805,3.012643814086914,0.36000000000000015
1.408750057220459,1.8457069396972656,3.2689743041992188,0.37000000000000016
1.382120132446289,1.854909896850586,3.2490875720977783,0.38000000000000017
0.973764181137085,1.7884702682495117,3.7119994163513184,0.3900000000000002
0.7701112031936646,1.5388736724853516,3.776005268096924,0.4000000000000002
0.6892558336257935,1.074671745300293,3.6588761806488037,0.4100000000000002
0.3776872158050537,0.6542940139770508,3.514033317565918,0.4200000000000002
-0.029343724250793457,0.31502246856689453,3.4885807037353516,0.4300000000000002
-0.6642396450042725,0.6158933639526367,1.7020134925842285,0.4400000000000002
-0.8184993267059326,2.169677734375,-0.3034088611602783,0.45000000000000023
-0.6280645132064819,4.614689826965332,-0.09890604019165039,0.46000000000000024
0.6698703765869141,7.583658218383789,0.23491477966308594,0.47000000000000025
1.4566514492034912,8.47999382019043,-0.5173687934875488,0.48000000000000026
0.6048197746276855,6.295540809631348,-2.1319684982299805,0.49000000000000027
-2.4665122032165527,1.2477493286132812,-3.729825019836426,0.5000000000000002
-3.764228343963623,-2.115217685699463,-4.645316123962402,0.5100000000000002
-3.5008482933044434,-2.7971534729003906,-3.4175257682800293,0.5200000000000002
-2.0404722690582275,-2.811708927154541,-2.166438579559326,0.5300000000000002
-0.897413969039917,-2.2123727798461914,-1.7776951789855957,0.5400000000000003
-0.12359285354614258,-1.435892105102539,-1.5305265188217163,0.5500000000000003
0.36496829986572266,-0.6507329940795898,-1.6124540567398071,0.5600000000000003
0.6731007099151611,0.10691070556640625,-2.0377159118652344,0.5700000000000003
0.6611149311065674,0.4344625473022461,-2.3218882083892822,0.5800000000000003
0.3106440305709839,0.26039600372314453,-2.4105541706085205,0.5900000000000003
-0.2582923173904419,-0.28719425201416016,-2.2530436515808105,0.6000000000000003
-0.7432146072387695,-0.7327661514282227,-1.893903136253357,0.6100000000000003
-1.0951275825500488,-0.8140726089477539,-1.545811653137207,0.6200000000000003
-1.1313540935516357,-0.7764530181884766,-1.4389402866363525,0.6300000000000003
-1.3854526281356812,-0.6741485595703125,-1.3898733854293823,0.6400000000000003
-1.5040034055709839,-0.7896137237548828,-1.2512764930725098,0.6500000000000004
-1.4579529762268066,-1.134404182434082,-1.0112154483795166,0.6600000000000004
-1.4312667846679688,-1.4571552276611328,-0.7669317722320557,0.6700000000000004
-0.9708765745162964,-1.8279929161071777,-0.635288417339325,0.6800000000000004
-0.3437364101409912,-2.0628585815429688,-0.7035616040229797,0.6900000000000004
0.2661106586456299,-2.035411834716797,-0.7693466544151306,0.7000000000000004
1.1637203693389893,-1.7244882583618164,-0.8453741073608398,0.7100000000000004
1.8240207433700562,-1.3267784118652344,-0.8137404918670654,0.7200000000000004
2.366163969039917,-1.0294580459594727,-0.7218215465545654,0.7300000000000004
2.445946216583252,-0.9621658325195312,-0.618826150894165,0.7400000000000004
2.237092971801758,-1.2494392395019531,-0.40373730659484863,0.7500000000000004
1.985846996307373,-1.6013164520263672,-0.18252992630004883,0.7600000000000005
1.5874072313308716,-1.8286032676696777,0.08009707927703857,0.7700000000000005
1.2043064832687378,-1.8719024658203125,0.3038606643676758,0.7800000000000005
0.9159159660339355,-1.7170815467834473,0.5682458281517029,0.7900000000000005
0.8574874401092529,-1.6249589920043945,0.813869059085846,0.8000000000000005
0.9682292938232422,-1.4945745468139648,1.0332300662994385,0.8100000000000005
0.9227756261825562,-1.2276859283447266,1.2397524118423462,0.8200000000000005
1.6006999015808105,-1.4730501174926758,0.9526727795600891,0.8300000000000005
1.4959198236465454,-1.203291893005371,0.4491484463214874,0.8400000000000005
1.3387210369110107,-0.7275896072387695,0.10838332772254944,0.8500000000000005
0.9904792308807373,-0.0265045166015625,0.07585832476615906,0.8600000000000005
1.1087937355041504,0.45951271057128906,0.2812083959579468,0.8700000000000006
1.2441277503967285,0.8121929168701172,0.850995659828186,0.8800000000000006
1.897658109664917,0.986180305480957,1.386156678199768,0.8900000000000006
2.6757469177246094,1.084650993347168,1.6547069549560547,0.9000000000000006
3.2388834953308105,1.2057580947875977,1.594947099685669,0.9100000000000006
3.764479160308838,1.361246109008789,1.3713500499725342,0.9200000000000006
4.232669353485107,1.6012592315673828,1.5099905729293823,0.9300000000000006
4.288745403289795,1.9090795516967773,1.4216986894607544,0.9400000000000006
3.4947690963745117,2.366145133972168,1.5618380308151245,0.9500000000000006
2.0977766513824463,3.190199851989746,-0.6720689535140991,0.9600000000000006
1.4319968223571777,4.5083818435668945,-2.0407352447509766,0.9700000000000006
0.9962776303291321,5.028331756591797,-2.1419360637664795,0.9800000000000006
0.43385231494903564,3.648651123046875,-2.002589464187622,0.9900000000000007
-0.4935411512851715,2.2975215911865234,-2.1024458408355713,1.0000000000000007
-1.6029037237167358,1.1806974411010742,-2.1989805698394775,1.0100000000000007
-2.250325918197632,0.8535594940185547,-2.3125040531158447,1.0200000000000007
-2.495448112487793,1.3631839752197266,-2.5505847930908203,1.0300000000000007
-2.4687092304229736,2.1507787704467773,-2.2919981479644775,1.0400000000000007
-2.268634796142578,2.8757543563842773,-1.4571119546890259,1.0500000000000007
-2.121164321899414,3.1187477111816406,-1.293948769569397,1.0600000000000007
-2.0242233276367188,3.4233503341674805,-0.9738956689834595,1.0700000000000007
-1.8313175439834595,3.8354578018188477,-0.6076732873916626,1.0800000000000007
-1.6691133975982666,3.9892539978027344,-0.19686517119407654,1.0900000000000007
-1.403418779373169,3.6146278381347656,0.21897411346435547,1.1000000000000008
-1.086164951324463,2.7645301818847656,-0.007107079029083252,1.1100000000000008
-0.7991493940353394,1.853658676147461,-0.3817444443702698,1.1200000000000008
-0.584925651550293,0.6407241821289062,-0.6359109878540039,1.1300000000000008
-0.2918621301651001,-0.7780447006225586,-0.5208150148391724,1.1400000000000008
0.23596620559692383,-2.479520320892334,-0.23650819063186646,1.1500000000000008
0.6617507934570312,-4.170224666595459,-0.15851765871047974,1.1600000000000008
0.425429105758667,-5.294041156768799,-0.20265918970108032,1.1700000000000008
0.10154235363006592,-5.457808017730713,-0.3136392831802368,1.1800000000000008
0.08756518363952637,-5.528255462646484,-0.18952786922454834,1.1900000000000008
-0.17689847946166992,-5.031412124633789,0.0793386697769165,1.2000000000000008
-0.5262821912765503,-4.4678635597229,0.3685101270675659,1.2100000000000009
-1.2660459280014038,-3.6998367309570312,0.636673092842102,1.2200000000000009
-1.6440271139144897,-2.7265944480895996,0.8584839105606079,1.2300000000000009
-1.846842885017395,-2.27982759475708,0.9975334405899048,1.2400000000000009
-1.7747547626495361,-2.122196674346924,1.0841548442840576,1.2500000000000009
-1.5588304996490479,-2.1987385749816895,0.9933756589889526,1.260000000000001
-1.1101608276367188,-2.5747408866882324,0.9337106943130493,1.270000000000001
-0.5426348447799683,-3.2219748497009277,0.9516328573226929,1.280000000000001
0.18268847465515137,-3.990358352661133,1.0255711078643799,1.290000000000001
0.7958370447158813,-4.377747535705566,1.1288962364196777,1.300000000000001
1.4674975872039795,-4.298725605010986,1.2236613035202026,1.310000000000001
1.1618449687957764,-3.49080228805542,1.1022231578826904,1.320000000000001
1.0965158939361572,-2.639042377471924,1.5021816492080688,1.330000000000001
0.9613029956817627,-1.616365909576416,1.8981424570083618,1.340000000000001
0.7405085563659668,-0.2731475830078125,2.0127577781677246,1.350000000000001
0.5032041072845459,0.9726829528808594,2.0349831581115723,1.360000000000001
0.2935720682144165,2.500094413757324,2.020120620727539,1.370000000000001
0.39456379413604736,3.684877395629883,2.055088996887207,1.380000000000001
0.36543548107147217,4.384346961975098,2.3122398853302,1.390000000000001
0.07658529281616211,4.716113090515137,3.0204548835754395,1.400000000000001
-0.3847402334213257,4.505468368530273,3.5464837551116943,1.410000000000001
-0.8670015335083008,3.8810062408447266,3.7857584953308105,1.420000000000001
-1.3510864973068237,2.743565559387207,3.9926462173461914,1.430000000000001
-1.8537037372589111,1.5332164764404297,3.956573009490967,1.440000000000001
-1.6972205638885498,0.5794734954833984,2.089782953262329,1.450000000000001
-0.9584165811538696,0.9953689575195312,0.09162521362304688,1.460000000000001
-0.08288335800170898,3.6709747314453125,-0.9452300071716309,1.470000000000001
1.6628944873809814,5.929137229919434,-0.8359785079956055,1.480000000000001
2.6070454120635986,7.242009162902832,-2.0968806743621826,1.490000000000001
1.6758296489715576,7.427412033081055,-3.7791695594787598,1.500000000000001
-1.0309922695159912,4.58915901184082,-4.193853855133057,1.5100000000000011
-3.136437177658081,0.3969078063964844,-4.19737434387207,1.5200000000000011
-3.086829662322998,-2.615602970123291,-2.7484729290008545,1.5300000000000011
-2.630310535430908,-3.075141429901123,-1.5005662441253662,1.5400000000000011
-1.713587999343872,-2.6050853729248047,-0.818128228187561,1.5500000000000012
-0.8178046941757202,-1.876075267791748,-0.8339393138885498,1.5600000000000012
0.1610393524169922,-1.0827207565307617,-1.1916866302490234,1.5700000000000012
0.9715547561645508,-0.15655040740966797,-1.9422286748886108,1.5800000000000012
1.5979387760162354,0.35686683654785156,-2.679347515106201,1.5900000000000012
1.3554961681365967,0.38401222229003906,-2.800057888031006,1.6000000000000012
0.4248448610305786,0.36491870880126953,-2.7150373458862305,1.6100000000000012
-0.4064168930053711,0.3036956787109375,-2.3985178470611572,1.6200000000000012
-1.0401115417480469,0.2969198226928711,-2.0990512371063232,1.6300000000000012
-1.2134747505187988,-0.1124267578125,-1.7050460577011108,1.6400000000000012
-1.3414982557296753,-0.7931480407714844,-1.2206941843032837,1.6500000000000012
-1.4362212419509888,-1.5700273513793945,-0.9526048898696899,1.6600000000000013
-1.1839184761047363,-2.4600391387939453,-0.8515353798866272,1.6700000000000013
-1.0110368728637695,-3.1933140754699707,-0.8329105377197266,1.6800000000000013
-0.7271760702133179,-3.507481575012207,-0.9872384071350098,1.6900000000000013
-0.430919885635376,-3.4694018363952637,-1.0775172710418701,1.7000000000000013
0.23813855648040771,-3.007765293121338,-1.0338205099105835,1.7100000000000013
0.9040766954421997,-2.6656126976013184,-0.8900827169418335,1.7200000000000013
1.2914272546768188,-2.3399829864501953,-0.7618288993835449,1.7300000000000013
1.4151939153671265,-2.0002694129943848,-0.6287257075309753,1.7400000000000013
1.354102373123169,-1.6967754364013672,-0.5237246155738831,1.7500000000000013
1.176532506942749,-1.4728364944458008,-0.6982303261756897,1.7600000000000013
0.8047788143157959,-1.0246925354003906,-0.22021707892417908,1.7700000000000014
0.7816336154937744,-0.7301797866821289,0.24101954698562622,1.7800000000000014
0.8457909822463989,-0.7419557571411133,0.2815035581588745,1.7900000000000014
1.160966396331787,-0.4636211395263672,0.8286029100418091,1.8000000000000014
1.2410931587219238,-0.39573097229003906,0.6090788841247559,1.8100000000000014
1.3098241090774536,-0.40628814697265625,0.6515485048294067,1.8200000000000014
0.9990576505661011,-0.3706045150756836,0.3161793649196625,1.8300000000000014
0.7435767650604248,-0.4300727844238281,0.3748667538166046,1.8400000000000014
0.5544878244400024,-0.29739952087402344,0.6248332262039185,1.8500000000000014
0.5698753595352173,0.1042642593383789,0.9741953611373901,1.8600000000000014
1.0646085739135742,0.6103477478027344,1.2775987386703491,1.8700000000000014
2.049288272857666,0.8071365356445312,1.487642526626587,1.8800000000000014
3.208387613296509,0.6276311874389648,1.308049201965332,1.8900000000000015
3.741854667663574,0.6362476348876953,1.1447219848632812,1.9000000000000015
4.232053279876709,0.8897953033447266,1.2481755018234253,1.9100000000000015
4.731115341186523,1.1007442474365234,1.8998913764953613,1.9200000000000015
5.047756671905518,1.0319385528564453,1.8451277017593384,1.9300000000000015
4.643516540527344,1.1189956665039062,2.0403025150299072,1.9400000000000015
3.277804374694824,1.7785520553588867,0.5434828996658325,1.9500000000000015
2.5235166549682617,2.331162452697754,-2.519944667816162,1.9600000000000015
1.668652057647705,2.9907302856445312,-3.6554694175720215,1.9700000000000015
-0.1742897629737854,2.859203338623047,-3.233590841293335,1.9800000000000015
-1.815449833869934,2.3286361694335938,-2.6901919841766357,1.9900000000000015
-2.9454121589660645,2.3139915466308594,-2.8943026065826416,2.0000000000000013
-3.313244104385376,3.133894920349121,-2.819636106491089,2.010000000000001
-3.091792583465576,4.060250282287598,-2.502631425857544,2.020000000000001
-2.882626533508301,4.845829010009766,-2.0068180561065674,2.0300000000000007
-2.983476161956787,5.277043342590332,-1.7112644910812378,2.0400000000000005
-2.896343231201172,5.399543762207031,-1.3102178573608398,2.0500000000000003
-2.752150058746338,5.372293472290039,-1.076168179512024,2.06
-2.858919620513916,5.2363691329956055,-0.6434467434883118,2.07
-2.7446794509887695,4.756945610046387,-0.1712605059146881,2.0799999999999996
-2.3052279949188232,3.682392120361328,-0.0812065601348877,2.0899999999999994
-1.9257227182388306,1.9716377258300781,-0.13579052686691284,2.099999999999999
-1.4710543155670166,0.3453102111816406,-0.2055690884590149,2.109999999999999
-0.8313969969749451,-1.201085090637207,-0.12920886278152466,2.1199999999999988
-0.275604248046875,-2.770587921142578,0.17119598388671875,2.1299999999999986
0.010558605194091797,-3.9008779525756836,0.3820275068283081,2.1399999999999983
-0.13171768188476562,-4.362868309020996,0.31216275691986084,2.149999999999998
-0.13631737232208252,-4.4043049812316895,0.48490893840789795,2.159999999999998
0.09404182434082031,-4.370227336883545,0.45095956325531006,2.1699999999999977
-0.16184592247009277,-4.216178894042969,0.22822070121765137,2.1799999999999975
-0.3314157724380493,-3.938504219055176,0.10929417610168457,2.1899999999999973
-0.6563904285430908,-3.6259665489196777,0.09944307804107666,2.199999999999997
-1.235890507698059,-2.9979147911071777,0.23733174800872803,2.209999999999997
-1.3202183246612549,-2.6757731437683105,0.38023149967193604,2.2199999999999966
-1.3185027837753296,-2.7176403999328613,0.5138363838195801,2.2299999999999964
-1.0665007829666138,-3.020261764526367,0.5653098821640015,2.239999999999996
-0.6948263645172119,-3.3223838806152344,0.6515717506408691,2.249999999999996
-0.35518109798431396,-3.6553893089294434,0.8990359306335449,2.259999999999996
0.05959641933441162,-4.160877227783203,1.2903825044631958,2.2699999999999956
0.4955395460128784,-4.429405212402344,1.4267957210540771,2.2799999999999954
0.6463301181793213,-4.238277435302734,1.559394121170044,2.289999999999995
0.6278582811355591,-3.9925169944763184,1.86841881275177,2.299999999999995
0.6415631771087646,-3.5796656608581543,1.8296326398849487,2.3099999999999947
0.6990066766738892,-2.9805784225463867,1.7620313167572021,2.3199999999999945
0.6611610651016235,-1.8813362121582031,1.8177350759506226,2.3299999999999943
0.5128252506256104,-0.4947824478149414,1.914649248123169,2.339999999999994
0.509968638420105,0.9588069915771484,2.0099477767944336,2.349999999999994
0.5105379819869995,2.41709041595459,2.0616512298583984,2.3599999999999937
0.3241386413574219,3.6098461151123047,2.301527976989746,2.3699999999999934
0.16743850708007812,3.7791147232055664,2.484001636505127,2.3799999999999932
0.0887523889541626,3.2305431365966797,2.837916612625122,2.389999999999993
0.11501109600067139,2.1818714141845703,3.351400375366211,2.399999999999993
0.3714876174926758,0.9116430282592773,3.9312691688537598,2.4099999999999926
0.5941243171691895,-0.11501026153564453,3.8954367637634277,2.4199999999999924
-0.6257975101470947,0.8944330215454102,-0.0027006864547729492,2.429999999999992
-1.6202833652496338,4.316228866577148,-1.1389141082763672,2.439999999999992
-1.1584683656692505,8.449080467224121,-0.5532522201538086,2.4499999999999917
2.5099003314971924,11.75946044921875,0.2527196407318115,2.4599999999999915
3.7547786235809326,12.119510650634766,-0.6517895460128784,2.4699999999999913
1.2790324687957764,8.458702087402344,-2.939100503921509,2.479999999999991
-2.6361496448516846,1.1576299667358398,-4.744970798492432,2.489999999999991
-3.4127602577209473,-2.2966928482055664,-4.627361297607422,2.4999999999999907
-2.905853748321533,-4.212295055389404,-2.5810139179229736,2.5099999999999905
-1.5777552127838135,-4.5226731300354,-1.5544018745422363,2.5199999999999902
-0.28207504749298096,-3.567810535430908,-1.4286909103393555,2.52999999999999
0.6049954891204834,-2.0273046493530273,-1.6417970657348633,2.53999999999999
1.4221372604370117,-0.3275785446166992,-1.9724236726760864,2.5499999999999896
1.7711758613586426,0.868443489074707,-2.0723819732666016,2.5599999999999894
1.4841232299804688,2.0075254440307617,-2.2919185161590576,2.569999999999989
0.25492262840270996,1.983083724975586,-2.4465863704681396,2.579999999999989
-1.5052827596664429,1.3642568588256836,-2.343109130859375,2.5899999999999888
-2.5164458751678467,0.6318140029907227,-2.2423551082611084,2.5999999999999885
-2.642587900161743,-0.23617172241210938,-1.9693553447723389,2.6099999999999883
-2.282658100128174,-0.7924537658691406,-1.698279857635498,2.619999999999988
-2.225637435913086,-0.8162326812744141,-1.6071196794509888,2.629999999999988
-1.6131513118743896,-1.8757100105285645,-1.2536087036132812,2.6399999999999877
-1.3417109251022339,-2.4706177711486816,-1.2258166074752808,2.6499999999999875
-0.9391829967498779,-3.0663342475891113,-1.2855676412582397,2.6599999999999873
-0.6621529459953308,-3.3053746223449707,-1.2830300331115723,2.669999999999987
-0.22919940948486328,-3.2495388984680176,-1.2804756164550781,2.679999999999987
0.3536182641983032,-2.8687663078308105,-1.217926025390625,2.6899999999999866
0.9195703268051147,-2.374204635620117,-1.1304290294647217,2.6999999999999864
1.211641550064087,-1.9572649002075195,-0.9336695671081543,2.709999999999986
1.3037657737731934,-1.8017034530639648,-0.6801548004150391,2.719999999999986
1.2531276941299438,-1.7968249320983887,-0.32771652936935425,2.7299999999999858
1.1890268325805664,-1.8060050010681152,-0.17621761560440063,2.7399999999999856
1.2017937898635864,-1.7340097427368164,-0.10563349723815918,2.7499999999999853
1.0357364416122437,-1.516556739807129,0.3022388815879822,2.759999999999985
1.0914913415908813,-1.526991844177246,0.3531741499900818,2.769999999999985
1.1469035148620605,-0.9483041763305664,0.9029937982559204,2.7799999999999847
1.4548723697662354,-0.7475624084472656,0.7246677279472351,2.7899999999999845
1.4676499366760254,-0.6923704147338867,0.6451336145401001,2.7999999999999843
1.2555224895477295,-0.7397060394287109,0.3255244493484497,2.809999999999984
0.8428232073783875,-0.7937850952148438,-0.09492246806621552,2.819999999999984
0.5355811715126038,-0.4763631820678711,-0.18491387367248535,2.8299999999999836
0.6125028133392334,-0.48393917083740234,-0.1554364264011383,2.8399999999999834
0.9922643303871155,0.7976522445678711,0.9295409917831421,2.849999999999983
1.710242509841919,1.156707763671875,1.201012372970581,2.859999999999983
2.6032874584198,1.4051313400268555,1.505416750907898,2.869999999999983
3.340139865875244,1.442173957824707,1.8493237495422363,2.8799999999999826
3.9333786964416504,1.3655033111572266,1.938797950744629,2.8899999999999824
4.386839389801025,1.3039588928222656,1.855891466140747,2.899999999999982
4.5576019287109375,1.2595529556274414,1.3684386014938354,2.909999999999982
3.985623598098755,1.5050458908081055,1.3022949695587158,2.9199999999999817
2.8257081508636475,2.124260902404785,-0.6147173047065735,2.9299999999999815
1.9813541173934937,2.9020605087280273,-3.6288533210754395,2.9399999999999813
0.5543811917304993,3.39376163482666,-3.8235645294189453,2.949999999999981
-1.544312834739685,2.96744441986084,-2.314420223236084,2.959999999999981
-3.0951805114746094,1.8746309280395508,-2.05356764793396,2.9699999999999807
-3.379587173461914,1.4066753387451172,-2.0068039894104004,2.9799999999999804
-3.069998264312744,1.5760555267333984,-2.0119166374206543,2.9899999999999802
-2.434447765350342,2.298417091369629,-2.526221990585327,2.99999999999998
-1.9179573059082031,3.271134376525879,-2.083754777908325,3.00999999999998
-1.8931798934936523,4.170007705688477,-1.3879146575927734,3.0199999999999796
-1.5978190898895264,4.649553298950195,-0.7976642847061157,3.0299999999999794
-1.3524798154830933,4.9637298583984375,-0.5117352604866028,3.039999999999979
-1.2739062309265137,5.2587480545043945,-0.44830214977264404,3.049999999999979
-1.056989312171936,4.998196601867676,-0.11932390928268433,3.0599999999999787
-0.8928068280220032,4.279308319091797,-0.05163758993148804,3.0699999999999785
-0.859996497631073,3.074047088623047,-0.2020491361618042,3.0799999999999783
-0.6293177604675293,1.4621171951293945,0.011778831481933594,3.089999999999978
-0.39552879333496094,0.20160388946533203,0.14366185665130615,3.099999999999978
-0.18078601360321045,-1.5945091247558594,0.11929118633270264,3.1099999999999777
-0.1490243673324585,-3.465017795562744,0.11724710464477539,3.1199999999999775
-0.5228782892227173,-4.3156914710998535,0.01662886142730713,3.1299999999999772
-0.5323977470397949,-4.6426310539245605,0.08503985404968262,3.139999999999977
-0.30099451541900635,-4.893810272216797,0.13239872455596924,3.149999999999977
-0.16695475578308105,-4.9896955490112305,0.14892375469207764,3.1599999999999766
-0.37707436084747314,-4.6230950355529785,0.05593562126159668,3.1699999999999764
-0.8334629535675049,-3.9836983680725098,0.18956172466278076,3.179999999999976
-0.8098249435424805,-3.980085849761963,0.12913799285888672,3.189999999999976
-1.1044249534606934,-2.8338561058044434,0.7319988012313843,3.1999999999999758
-1.1065492630004883,-2.4138598442077637,0.7498650550842285,3.2099999999999755
-0.9801348447799683,-2.379180908203125,0.6938556432723999,3.2199999999999753
-1.017661213874817,-2.5186476707458496,0.6215590238571167,3.229999999999975
-0.9303196668624878,-2.9685544967651367,0.7817186117172241,3.239999999999975
-0.8382270336151123,-3.6666455268859863,0.9850715398788452,3.2499999999999747
-0.5626615285873413,-4.350012302398682,1.0069748163223267,3.2599999999999745
-0.16739773750305176,-4.612260818481445,1.1101161241531372,3.2699999999999743
0.03375554084777832,-4.492248058319092,1.2727391719818115,3.279999999999974
0.30422377586364746,-4.2104082107543945,1.439967155456543,3.289999999999974
0.5792789459228516,-3.599074363708496,1.5014909505844116,3.2999999999999736
0.6567842960357666,-2.3446168899536133,1.2743415832519531,3.3099999999999734
0.7842519283294678,-0.6792106628417969,0.9082598686218262,3.319999999999973
0.8975825309753418,1.6894454956054688,0.6415042877197266,3.329999999999973
0.9115540981292725,1.6872234344482422,0.6374942064285278,3.3399999999999728
0.9234751462936401,3.4861040115356445,1.0519390106201172,3.3499999999999726
0.8519359827041626,5.983306884765625,2.3925557136535645,3.3599999999999723
0.6183497905731201,6.133241653442383,2.7294223308563232,3.369999999999972
0.445239782333374,5.050260543823242,2.8716530799865723,3.379999999999972
0.021858930587768555,2.769585609436035,3.174389362335205,3.3899999999999717
-0.18024253845214844,0.4364156723022461,3.414496898651123,3.3999999999999715
-0.3597177267074585,-1.8667573928833008,3.170741558074951,3.4099999999999713
-1.2524516582489014,-1.727674961090088,0.3330608606338501,3.419999999999971
-1.8964617252349854,1.4593944549560547,-0.5055087804794312,3.429999999999971
-0.6737291812896729,5.8300275802612305,-0.1640017032623291,3.4399999999999706
1.4332489967346191,10.212961196899414,-0.7397572994232178,3.4499999999999704
1.3578462600708008,10.881684303283691,-1.0330146551132202,3.45999999999997
-0.8630160093307495,8.40129280090332,-1.8301690816879272,3.46999999999997
-3.862668991088867,2.1270999908447266,-3.7431435585021973,3.47999999999997
-4.33616828918457,-1.2351455688476562,-4.054914474487305,3.4899999999999696
-3.682399272918701,-3.0926308631896973,-2.436908721923828,3.4999999999999694
-2.254422426223755,-3.674668788909912,-1.2899633646011353,3.509999999999969
-0.9680908918380737,-3.0324692726135254,-1.1221115589141846,3.519999999999969
0.5877952575683594,-1.972590446472168,-1.2677319049835205,3.5299999999999687
1.7391583919525146,-0.962193489074707,-1.6774828433990479,3.5399999999999685
2.5625388622283936,-0.09159278869628906,-2.1336896419525146,3.5499999999999683
2.5937516689300537,0.5463123321533203,-2.3521552085876465,3.559999999999968
1.5566747188568115,0.4038267135620117,-2.4088945388793945,3.569999999999968
0.13880324363708496,0.15054893493652344,-2.2718565464019775,3.5799999999999677
-1.2001992464065552,-4.892349243164062E-4,-1.9344311952590942,3.5899999999999674
-2.201138496398926,0.07717704772949219,-1.6389541625976562,3.5999999999999672
-2.6936521530151367,-0.056380271911621094,-1.2645530700683594,3.609999999999967
-2.7354860305786133,-0.401519775390625,-0.9646798372268677,3.619999999999967
-2.343278169631958,-1.0337200164794922,-0.9012866020202637,3.6299999999999666
-1.8475462198257446,-1.6461834907531738,-0.9114128351211548,3.6399999999999664
-1.3786821365356445,-2.3538618087768555,-0.9840377569198608,3.649999999999966
-0.7740373611450195,-2.6053714752197266,-1.0927660465240479,3.659999999999966
-0.15930724143981934,-2.5584464073181152,-1.1483196020126343,3.6699999999999657
0.5604840517044067,-2.245640277862549,-1.0847818851470947,3.6799999999999655
1.2061185836791992,-1.7611756324768066,-0.8994019031524658,3.6899999999999653
1.6776281595230103,-1.5888519287109375,-0.8556191325187683,3.699999999999965
2.0547990798950195,-1.5393571853637695,-0.6733279824256897,3.709999999999965
2.072666645050049,-1.552638053894043,-0.3466029167175293,3.7199999999999647
1.923211693763733,-1.625981330871582,0.19061458110809326,3.7299999999999645
1.7199385166168213,-1.7234110832214355,0.6387900710105896,3.7399999999999642
1.4521993398666382,-1.7231268882751465,0.9230090975761414,3.749999999999964
1.1774945259094238,-1.5541858673095703,0.9898088574409485,3.759999999999964
1.0088738203048706,-1.5028448104858398,1.1781408786773682,3.7699999999999636
0.9684548377990723,-1.6545467376708984,1.2983111143112183,3.7799999999999634
0.9494285583496094,-1.923001766204834,1.2199968099594116,3.789999999999963
0.8667047023773193,-2.4568657875061035,0.8995935916900635,3.799999999999963
0.5061750411987305,-2.832683563232422,0.5366135835647583,3.8099999999999627
0.2272939682006836,-2.566835880279541,0.18111202120780945,3.8199999999999625
0.14903974533081055,-1.534658432006836,0.2566966712474823,3.8299999999999623
0.3436380624771118,-0.2167043685913086,0.45497214794158936,3.839999999999962
1.086716651916504,0.8132724761962891,0.6317622661590576,3.849999999999962
2.388728141784668,1.3524017333984375,0.8943108320236206,3.8599999999999617
3.661681652069092,1.6328678131103516,1.2310878038406372,3.8699999999999615
4.245024681091309,1.7879533767700195,1.4450243711471558,3.8799999999999613
4.320276737213135,1.735306739807129,1.6821199655532837,3.889999999999961
4.035073280334473,1.6132259368896484,1.7753735780715942,3.899999999999961
3.648510217666626,1.6057586669921875,1.5628407001495361,3.9099999999999606
3.3475093841552734,1.6123943328857422,1.4070649147033691,3.9199999999999604
2.1006438732147217,1.9447307586669922,1.125152587890625,3.92999999999996
0.9057338833808899,2.1078100204467773,-1.7605987787246704,3.93999999999996
-0.34776943922042847,2.2558441162109375,-3.226768970489502,3.9499999999999598
-1.3673125505447388,2.0560054779052734,-2.145037889480591,3.9599999999999596
-2.156975269317627,1.6062355041503906,-1.8462246656417847,3.9699999999999593
-2.4307503700256348,1.10821533203125,-2.609116792678833,3.979999999999959
-1.5748306512832642,0.7855110168457031,-2.972766876220703,3.989999999999959
-1.0337989330291748,1.483107566833496,-2.8225808143615723,3.9999999999999587
-0.9464060664176941,2.9318466186523438,-2.459697723388672,4.009999999999959
-1.0750566720962524,4.429194450378418,-1.9807041883468628,4.019999999999959
-1.3245420455932617,5.732961654663086,-1.1601457595825195,4.0299999999999585
-1.3672350645065308,6.799947738647461,-0.815243661403656,4.039999999999958
-1.3330953121185303,7.4216461181640625,-0.608176052570343,4.049999999999958
-1.4669111967086792,7.1781110763549805,-0.23771870136260986,4.059999999999958
-1.7024810314178467,6.342137336730957,0.13271796703338623,4.069999999999958
-1.7390286922454834,4.780118942260742,0.08477544784545898,4.079999999999957
-1.5065170526504517,2.8207035064697266,0.18827348947525024,4.089999999999957
-1.032711386680603,1.0324325561523438,0.2994734048843384,4.099999999999957
-0.49255669116973877,-1.1625490188598633,0.4060959815979004,4.109999999999957
0.15004873275756836,-3.028360366821289,0.6265906691551208,4.119999999999957
0.5529279708862305,-4.922737121582031,0.6902071237564087,4.129999999999956
0.36322593688964844,-5.316154956817627,0.5551761388778687,4.139999999999956
0.35448741912841797,-5.2022809982299805,0.4110633134841919,4.149999999999956
0.5523636341094971,-5.112729549407959,0.157501220703125,4.159999999999956
-0.1243748664855957,-4.610560894012451,-0.23047709465026855,4.1699999999999555
-0.5708842277526855,-4.099366188049316,-0.31448471546173096,4.179999999999955
-1.0565932989120483,-3.6355538368225098,-0.13804233074188232,4.189999999999955
-1.3842891454696655,-3.2656636238098145,0.39323127269744873,4.199999999999955
-1.6220641136169434,-2.997925281524658,0.7592841386795044,4.209999999999955
-1.6089320182800293,-3.0135726928710938,0.7480101585388184,4.2199999999999545
-1.5738756656646729,-3.0150413513183594,0.7118744850158691,4.229999999999954
-1.316636323928833,-3.4953088760375977,0.6497669219970703,4.239999999999954
-1.1866509914398193,-3.7982912063598633,0.9124414920806885,4.249999999999954
-0.8854106664657593,-4.081932544708252,1.2366212606430054,4.259999999999954
-0.5134296417236328,-4.157284736633301,1.6589094400405884,4.269999999999953
-0.1576845645904541,-3.96224308013916,1.926537036895752,4.279999999999953
-0.1514883041381836,-3.963932991027832,1.9285284280776978,4.289999999999953
0.5810432434082031,-2.864774227142334,1.619001030921936,4.299999999999953
0.8098405599594116,-1.636793613433838,0.750409722328186,4.3099999999999525
1.0242031812667847,0.1369171142578125,0.4215736389160156,4.319999999999952
1.2264599800109863,2.188652992248535,0.9554126262664795,4.329999999999952
1.403069257736206,4.250295639038086,1.3591482639312744,4.339999999999952
1.243518352508545,5.405109405517578,1.5928953886032104,4.349999999999952
0.6758633852005005,5.644048690795898,1.9970604181289673,4.3599999999999515
0.06859159469604492,5.290079116821289,2.5614705085754395,4.369999999999951
-0.38932573795318604,4.219764709472656,2.9763524532318115,4.379999999999951
-1.2038161754608154,2.703993797302246,3.4752798080444336,4.389999999999951
-2.0911519527435303,1.9151639938354492,1.3947292566299438,4.399999999999951
-2.142582416534424,2.833433151245117,-0.33634042739868164,4.40999999999995
-2.141634702682495,5.719529151916504,-0.9568077325820923,4.41999999999995
-0.4438730478286743,8.883322715759277,-0.21200454235076904,4.42999999999995
0.8797650337219238,8.925354957580566,-0.4474177360534668,4.43999999999995
-0.4383513927459717,5.32728385925293,-1.9892877340316772,4.4499999999999496
-2.702648401260376,0.5216407775878906,-2.922213077545166,4.459999999999949
-2.8630127906799316,-1.7212319374084473,-3.6026649475097656,4.469999999999949
-2.0223491191864014,-2.5458641052246094,-2.869614601135254,4.479999999999949
-0.9921858310699463,-3.1173691749572754,-2.077230215072632,4.489999999999949
-0.05638563632965088,-2.955275058746338,-2.117769241333008,4.4999999999999485
1.0160775184631348,-2.046243667602539,-2.210702657699585,4.509999999999948
1.7115604877471924,-0.8732318878173828,-2.4738175868988037,4.519999999999948
1.995229721069336,-0.0048923492431640625,-2.4853739738464355,4.529999999999948
1.8659782409667969,0.284698486328125,-2.427495002746582,4.539999999999948
0.9573931694030762,0.3510160446166992,-2.45535945892334,4.549999999999947
-0.3506375551223755,0.1613330841064453,-2.455354928970337,4.559999999999947
-1.4918495416641235,0.023347854614257812,-2.239919662475586,4.569999999999947
-2.3588383197784424,-0.08038806915283203,-1.7454618215560913,4.579999999999947
-2.8760199546813965,-0.5027971267700195,-1.4439153671264648,4.589999999999947
-2.9412715435028076,-1.0547895431518555,-1.313933253288269,4.599999999999946
-2.744063138961792,-1.7640204429626465,-1.209314227104187,4.609999999999946
-2.279923439025879,-2.4317851066589355,-1.1326169967651367,4.619999999999946
-1.6413062810897827,-2.7049484252929688,-1.2104766368865967,4.629999999999946
-1.0520415306091309,-2.6550135612487793,-1.382638931274414,4.6399999999999455
-0.5770401358604431,-2.0921740531921387,-1.4553523063659668,4.649999999999945
-0.048134803771972656,-1.5823450088500977,-1.2889962196350098,4.659999999999945
0.6852061748504639,-1.3050947189331055,-1.0414443016052246,4.669999999999945
1.504150152206421,-1.538081169128418,-0.9029032588005066,4.679999999999945
1.9338314533233643,-1.8932037353515625,-0.5913876891136169,4.689999999999944
2.074155807495117,-2.247971534729004,-0.21486246585845947,4.699999999999944
1.818013310432434,-2.5615015029907227,0.1399102807044983,4.709999999999944
1.5994017124176025,-2.661740779876709,0.2520864009857178,4.719999999999944
1.455021858215332,-2.5395073890686035,0.42850959300994873,4.729999999999944
1.3731850385665894,-1.9199376106262207,0.7052995562553406,4.739999999999943
1.5835241079330444,-1.3107995986938477,0.7697608470916748,4.749999999999943
1.7721023559570312,-0.8407678604125977,0.7879475355148315,4.759999999999943
1.9546397924423218,-0.672119140625,0.70209801197052,4.769999999999943
1.8277108669281006,-0.7016639709472656,0.5693351626396179,4.7799999999999425
1.4809280633926392,-0.7596235275268555,0.3547203242778778,4.789999999999942
1.1153322458267212,-0.7073507308959961,0.1874532699584961,4.799999999999942
0.6106396913528442,-0.2098226547241211,0.3251985013484955,4.809999999999942
0.428926944732666,0.4793415069580078,0.7939820885658264,4.819999999999942
0.9415217638015747,1.0473155975341797,0.9285466074943542,4.8299999999999415
1.9159269332885742,1.090214729309082,1.0038785934448242,4.839999999999941
3.130547523498535,0.9914541244506836,1.0071574449539185,4.849999999999941
4.1569695472717285,0.9828472137451172,1.0901265144348145,4.859999999999941
4.588376522064209,1.2145042419433594,1.059028148651123,4.869999999999941
4.756172180175781,1.3626022338867188,0.913325309753418,4.87999999999994
4.691041946411133,1.161198616027832,1.1064914464950562,4.88999999999994
4.390980243682861,0.9215059280395508,1.0027310848236084,4.89999999999994
3.2783308029174805,1.0698175430297852,1.0349037647247314,4.90999999999994
3.273085117340088,1.0699739456176758,1.0502111911773682,4.9199999999999395
0.4175557494163513,2.828531265258789,-2.807755708694458,4.929999999999939
-0.4262165427207947,3.4877805709838867,-3.1693358421325684,4.939999999999939
-1.5851401090621948,3.258448600769043,-2.9407427310943604,4.949999999999939
-2.2911763191223145,2.4781455993652344,-2.7122716903686523,4.959999999999939
-2.473282814025879,1.539886474609375,-2.968113660812378,4.9699999999999385
-2.448437213897705,1.7080507278442383,-2.9652316570281982,4.979999999999938
-2.185788869857788,2.665975570678711,-2.4796388149261475,4.989999999999938
-1.955315113067627,3.576968193054199,-1.6492857933044434,4.999999999999938
-2.114990711212158,4.334662437438965,-1.1228439807891846,5.009999999999938
-2.0338337421417236,4.62238883972168,-1.0158748626708984,5.019999999999937
-2.0314464569091797,4.890337944030762,-0.6952832937240601,5.029999999999937
-2.119539737701416,5.076266288757324,-0.3537829518318176,5.039999999999937
-1.9574947357177734,4.663161277770996,-0.07513362169265747,5.049999999999937
-1.6790049076080322,3.7589149475097656,-0.060183167457580566,5.0599999999999365
-1.2975966930389404,2.1457815170288086,-0.05750584602355957,5.069999999999936
-1.066503643989563,1.009202003479004,-0.1367957592010498,5.079999999999936
-0.7581682205200195,-0.30147647857666016,-0.31201452016830444,5.089999999999936
-0.24198806285858154,-1.7374367713928223,-0.2839537262916565,5.099999999999936
0.32724666595458984,-3.3219804763793945,0.03638803958892822,5.1099999999999355
0.5695176124572754,-4.612490653991699,0.2596702575683594,5.119999999999935
0.42444324493408203,-5.558143615722656,0.1220177412033081,5.129999999999935
0.2475736141204834,-5.5671706199646,0.17255330085754395,5.139999999999935
0.29651403427124023,-5.433350563049316,0.4227175712585449,5.149999999999935
-0.08214974403381348,-4.987836837768555,0.5756714344024658,5.159999999999934
-1.1024893522262573,-3.9702820777893066,0.5481996536254883,5.169999999999934
-1.6850810050964355,-3.0686559677124023,0.704360842704773,5.179999999999934
-2.0550460815429688,-2.323368549346924,0.9874664545059204,5.189999999999934
-2.042926549911499,-1.8627052307128906,1.054627537727356,5.199999999999934
-1.8482121229171753,-1.6306366920471191,1.1145122051239014,5.209999999999933
-1.6451563835144043,-1.6889896392822266,1.1949464082717896,5.219999999999933
-1.2602267265319824,-2.1836838722229004,1.2319724559783936,5.229999999999933
-0.8358500003814697,-2.92087459564209,1.2511701583862305,5.239999999999933
-0.2292400598526001,-3.6902403831481934,1.485013484954834,5.2499999999999325
0.11646556854248047,-4.004236698150635,1.5857881307601929,5.259999999999932
0.4134030342102051,-4.00081729888916,1.7171573638916016,5.269999999999932
0.7641165256500244,-3.7383742332458496,1.845316767692566,5.279999999999932
1.0863981246948242,-3.1068649291992188,1.638271689414978,5.289999999999932
1.3128809928894043,-1.998368263244629,1.0401791334152222,5.299999999999931
1.5400891304016113,-0.14659500122070312,0.8092491626739502,5.309999999999931
1.5527691841125488,-0.14852333068847656,0.8047723770141602,5.319999999999931
1.836688756942749,3.426433563232422,1.3176499605178833,5.329999999999931
1.8628809452056885,4.401546478271484,1.9554572105407715,5.339999999999931
1.543335199356079,4.683318138122559,2.3650972843170166,5.34999999999993
1.0151662826538086,4.528531074523926,2.734027624130249,5.35999999999993
0.4600064754486084,3.507936477661133,3.491640090942383,5.36999999999993
-0.10268092155456543,2.281587600708008,3.640596628189087,5.37999999999993
-1.0075730085372925,1.0077991485595703,2.689699649810791,5.3899999999999295
-1.721643090248108,1.1815929412841797,-0.6297123432159424,5.399999999999929
-1.9027535915374756,3.4931745529174805,-0.13788104057312012,5.409999999999929
-0.42251670360565186,7.068692207336426,-0.3950873613357544,5.419999999999929
1.0196404457092285,9.613234519958496,-0.16740036010742188,5.429999999999929
0.8807127475738525,8.62082576751709,-0.66136634349823,5.4399999999999284
-1.409361720085144,4.014150619506836,-2.0678722858428955,5.449999999999928
-3.1348578929901123,-0.44138526916503906,-3.60850191116333,5.459999999999928
-3.51310658454895,-2.496535301208496,-3.845508575439453,5.469999999999928
-2.9545834064483643,-3.426072597503662,-2.5265026092529297,5.479999999999928
-1.6986082792282104,-3.640292167663574,-2.0465469360351562,5.489999999999927
-0.6063597202301025,-2.9671125411987305,-2.210324764251709,5.499999999999927
0.4704556465148926,-1.670884132385254,-2.4447717666625977,5.509999999999927
1.1410863399505615,-0.4253530502319336,-2.683701753616333,5.519999999999927
1.3877220153808594,0.42272090911865234,-2.5430002212524414,5.5299999999999265
0.9859557151794434,0.5611295700073242,-2.217003107070923,5.539999999999926
-0.3313732147216797,0.19762134552001953,-2.245696783065796,5.549999999999926
-1.1946368217468262,0.008096694946289062,-2.1392927169799805,5.559999999999926
-2.0293948650360107,0.1725139617919922,-1.8807976245880127,5.569999999999926
-2.4594907760620117,0.2916069030761719,-1.5226768255233765,5.5799999999999255
-2.532092571258545,0.16501998901367188,-1.277461051940918,5.589999999999925
-2.238414764404297,-0.32945919036865234,-1.073225498199463,5.599999999999925
-1.554535984992981,-1.1409311294555664,-1.0836607217788696,5.609999999999925
-1.2326602935791016,-1.4775629043579102,-1.054833173751831,5.619999999999925
-1.0524531602859497,-1.8155484199523926,-1.2494735717773438,5.629999999999924
-0.6084156036376953,-2.042217254638672,-1.2539924383163452,5.639999999999924
-0.1785038709640503,-2.2494874000549316,-1.2223562002182007,5.649999999999924
0.11646747589111328,-2.210634231567383,-1.196962833404541,5.659999999999924
0.6104583740234375,-1.9619078636169434,-1.0078247785568237,5.6699999999999235
1.0956134796142578,-1.8693561553955078,-0.7585377097129822,5.679999999999923
1.4137433767318726,-1.7964320182800293,-0.5692933201789856,5.689999999999923
1.5187323093414307,-1.6308784484863281,-0.35004571080207825,5.699999999999923
1.512485384941101,-1.4922361373901367,-0.13015544414520264,5.709999999999923
1.4109753370285034,-1.4213409423828125,0.03177684545516968,5.7199999999999225
1.1884944438934326,-1.0138654708862305,0.20894426107406616,5.729999999999922
1.2110618352890015,-0.7224245071411133,0.35115116834640503,5.739999999999922
1.2952539920806885,-0.5105161666870117,0.6305893659591675,5.749999999999922
1.5668681859970093,-0.6384677886962891,0.7502788305282593,5.759999999999922
1.6700873374938965,-0.8523616790771484,0.7650920748710632,5.769999999999921
1.5605051517486572,-1.0375032424926758,0.7456927299499512,5.779999999999921
1.3301687240600586,-1.234705924987793,0.6733405590057373,5.789999999999921
1.1898767948150635,-1.2692451477050781,0.5976739525794983,5.799999999999921
1.0883852243423462,-0.9995651245117188,0.8194767236709595,5.809999999999921
1.0856531858444214,-0.46356678009033203,1.094506025314331,5.81999999999992
1.2560360431671143,0.15980148315429688,1.3426533937454224,5.82999999999992
1.5725284814834595,0.5512609481811523,1.5297138690948486,5.83999999999992
2.428828239440918,0.5116434097290039,1.4132168292999268,5.84999999999992
3.1439967155456543,0.3805570602416992,0.9757403135299683,5.8599999999999195
3.739675998687744,0.4779653549194336,0.7108544111251831,5.869999999999919
4.164621353149414,0.7074604034423828,0.7127437591552734,5.879999999999919
4.416012763977051,0.8078632354736328,0.8689054250717163,5.889999999999919
4.321930885314941,0.7360544204711914,0.7395598292350769,5.899999999999919
3.1354172229766846,1.0235052108764648,0.9799982309341431,5.909999999999918
1.569989800453186,1.5649900436401367,0.06580452620983124,5.919999999999918
0.29172205924987793,2.3903093338012695,-2.2617969512939453,5.929999999999918
-0.7552759647369385,3.151047706604004,-2.603026866912842,5.939999999999918
-1.7511825561523438,3.1744747161865234,-2.6099236011505127,5.949999999999918
-2.385286808013916,2.247774124145508,-2.2407455444335938,5.959999999999917
-2.3055458068847656,1.1422204971313477,-2.884420156478882,5.969999999999917
-2.268455982208252,1.492849349975586,-2.9658336639404297,5.979999999999917
-2.138363838195801,2.8580007553100586,-2.1923160552978516,5.989999999999917
-2.125246047973633,4.345907211303711,-1.3927011489868164,5.9999999999999165
-2.2386040687561035,5.419650077819824,-1.2585053443908691,6.009999999999916
-2.3321175575256348,6.150495529174805,-1.091435194015503,6.019999999999916
-2.4748528003692627,6.645674705505371,-0.6295278668403625,6.029999999999916
-2.450723648071289,6.3880510330200195,-0.29317447543144226,6.039999999999916
-2.334698438644409,5.507292747497559,-0.11560970544815063,6.0499999999999154
-2.1292333602905273,4.140387535095215,0.025747358798980713,6.059999999999915
-1.9229307174682617,2.380716323852539,-0.07390475273132324,6.069999999999915
-1.6654601097106934,0.8580112457275391,0.00361478328704834,6.079999999999915
-1.0627022981643677,-0.8356714248657227,-0.08793556690216064,6.089999999999915
-0.5801922082901001,-1.992380142211914,-0.13210523128509521,6.099999999999914
0.24703264236450195,-3.431027412414551,-0.016844511032104492,6.109999999999914
0.940673828125,-4.735540866851807,-0.002924799919128418,6.119999999999914
0.9231009483337402,-5.245234966278076,0.049779295921325684,6.129999999999914
0.8990213871002197,-5.327293872833252,0.3279130458831787,6.1399999999999135
0.7708137035369873,-5.0927324295043945,0.46928322315216064,6.149999999999913
0.5655488967895508,-4.61178731918335,0.2652357816696167,6.159999999999913
0.13625144958496094,-3.916170597076416,0.3350412845611572,6.169999999999913
-0.7460821866989136,-3.0147581100463867,0.4807436466217041,6.179999999999913
-1.338361144065857,-2.1021666526794434,0.6389679908752441,6.1899999999999125
-1.5727713108062744,-1.5445137023925781,0.8189600706100464,6.199999999999912
-1.6128644943237305,-1.591435432434082,0.9098168611526489,6.209999999999912
-1.6210858821868896,-1.8565936088562012,0.8179715871810913,6.219999999999912
-1.6751294136047363,-2.2421231269836426,1.1414024829864502,6.229999999999912
-1.3838012218475342,-2.7172536849975586,1.6389330625534058,6.239999999999911
-1.0135142803192139,-3.179612159729004,1.8515374660491943,6.249999999999911
-0.7541141510009766,-3.3095831871032715,1.6608762741088867,6.259999999999911
-0.29110705852508545,-3.2497830390930176,1.2299344539642334,6.269999999999911
0.0575408935546875,-2.8927016258239746,0.8343034982681274,6.2799999999999105
0.4108881950378418,-2.2048964500427246,0.5942965745925903,6.28999999999991
0.7043130397796631,-1.3201684951782227,0.6303818225860596,6.29999999999991
0.9558088779449463,-0.3680143356323242,0.7629144191741943,6.30999999999991
1.080244779586792,0.5318431854248047,0.7493934631347656,6.31999999999991
0.8811526298522949,1.3297100067138672,0.5757037401199341,6.3299999999999095
0.4880828857421875,1.772791862487793,0.8790857791900635,6.339999999999909
-0.060799598693847656,2.123135566711426,1.4891281127929688,6.349999999999909
-0.3842531442642212,2.2527503967285156,2.104458808898926,6.359999999999909
-0.5084801912307739,2.184490203857422,2.605656623840332,6.369999999999909
-0.5862364768981934,1.9287023544311523,2.736988067626953,6.379999999999908
-0.7840592861175537,1.3685722351074219,2.8587794303894043,6.389999999999908
-0.9304300546646118,0.7095909118652344,2.756254196166992,6.399999999999908
-1.0449693202972412,-0.12406539916992188,2.574331521987915,6.409999999999908
-1.4475188255310059,-0.40460777282714844,2.160982131958008,6.419999999999908
-0.7649036645889282,0.9672527313232422,-0.5177602767944336,6.429999999999907
-0.426383376121521,4.089108467102051,-1.4969446659088135,6.439999999999907
-0.07773447036743164,9.315150260925293,-1.3199613094329834,6.449999999999907
0.05519223213195801,12.877999305725098,-0.5679347515106201,6.459999999999907
0.33159852027893066,14.280691146850586,-0.9881845712661743,6.4699999999999065
-0.43950212001800537,10.970075607299805,-1.9075086116790771,6.479999999999906
-2.460143804550171,2.5708494186401367,-3.696347713470459,6.489999999999906
-3.046656370162964,-3.5655555725097656,-4.595945358276367,6.499999999999906
-2.349513053894043,-6.436270236968994,-3.2737197875976562,6.509999999999906
-2.211871385574341,-6.242408275604248,-2.426238775253296,6.519999999999905
-1.3015426397323608,-5.814047813415527,-2.2048165798187256,6.529999999999905
0.3202667236328125,-4.801794052124023,-2.354509115219116,6.539999999999905
1.4209051132202148,-2.846010684967041,-2.432009220123291,6.549999999999905
1.9045765399932861,-0.7466344833374023,-2.657229423522949,6.559999999999905
1.7999789714813232,1.2685461044311523,-2.8000004291534424,6.569999999999904
1.168759822845459,2.2028675079345703,-3.097386598587036,6.579999999999904
-0.3820524215698242,2.456082344055176,-3.053283929824829,6.589999999999904
-1.7237823009490967,1.856358528137207,-2.51725435256958,6.599999999999904
-2.762190341949463,0.7728376388549805,-1.9659572839736938,6.6099999999999035
-3.627007484436035,-0.26493263244628906,-1.5359342098236084,6.619999999999903
-3.950356960296631,-1.160675048828125,-1.250394344329834,6.629999999999903
-3.7023158073425293,-1.4832172393798828,-1.163834571838379,6.639999999999903
-2.8373570442199707,-1.5302042961120605,-1.355434536933899,6.649999999999903
-1.699833869934082,-1.276616096496582,-1.4075008630752563,6.659999999999902
-0.8010770082473755,-1.1915006637573242,-1.5128657817840576,6.669999999999902
-0.12387025356292725,-1.1709775924682617,-1.5080410242080688,6.679999999999902
0.5426919460296631,-1.2055730819702148,-1.323222041130066,6.689999999999902
1.0306569337844849,-1.2065706253051758,-1.2224411964416504,6.699999999999902
1.6194111108779907,-0.9921474456787109,-1.1661577224731445,6.709999999999901
1.9059498310089111,-0.6463508605957031,-1.0376588106155396,6.719999999999901
1.808071494102478,-0.36560916900634766,-0.9775465726852417,6.729999999999901
1.5380058288574219,-0.3529806137084961,-0.8661815524101257,6.739999999999901
1.1038156747817993,-0.5648574829101562,-0.7483658790588379,6.7499999999999005
0.9036563634872437,-0.7407951354980469,-0.6744892597198486,6.7599999999999
0.6509941816329956,-0.8862590789794922,-0.5595598816871643,6.7699999999999
0.6865206956863403,-1.0759258270263672,-0.4708137512207031,6.7799999999999
0.6558597087860107,-1.0465974807739258,-0.45947301387786865,6.7899999999999
0.6863948106765747,-0.8316936492919922,-0.42584556341171265,6.7999999999998995
0.8272976875305176,-0.6867160797119141,-0.4283057451248169,6.809999999999899
0.8492106199264526,-0.6230916976928711,-0.3816000819206238,6.819999999999899
0.7316560745239258,-0.6431035995483398,-0.260753870010376,6.829999999999899
0.6954008340835571,-0.7298154830932617,-0.08842170238494873,6.839999999999899
0.6951547861099243,-0.8278646469116211,-0.012407302856445312,6.849999999999898
0.7968329191207886,-0.901310920715332,0.0855712890625,6.859999999999898
0.9666789770126343,-0.8615446090698242,-0.01010286808013916,6.869999999999898
1.2431037425994873,-0.8452386856079102,-0.16892492771148682,6.879999999999898
1.6791034936904907,-0.7590818405151367,-0.3815164566040039,6.8899999999998975
1.9963518381118774,-0.5193281173706055,-0.5275517702102661,6.899999999999897
2.3122997283935547,-0.29862403869628906,-0.6131361722946167,6.909999999999897
2.610287666320801,-0.35097694396972656,-0.7395291328430176,6.919999999999897
2.7347702980041504,-0.7198057174682617,-0.7462557554244995,6.929999999999897
2.8200795650482178,-0.9837789535522461,-0.5179693698883057,6.9399999999998965
2.8033623695373535,-1.1139163970947266,-0.17076027393341064,6.949999999999896
2.238924026489258,-0.7245998382568359,0.5414161682128906,6.959999999999896
1.0047366619110107,0.12423038482666016,0.40337133407592773,6.969999999999896
0.17351233959197998,1.300816535949707,-1.7106130123138428,6.979999999999896
-0.28483402729034424,3.0213470458984375,-2.1828980445861816,6.989999999999895
-0.9176651835441589,3.788606643676758,-2.094168186187744,6.999999999999895
-1.2403769493103027,3.7873802185058594,-2.8747036457061768,7.009999999999895
-1.4456449747085571,3.8171424865722656,-3.984278678894043,7.019999999999895
-2.0437982082366943,4.524272918701172,-3.6744017601013184,7.0299999999998946
-2.8770217895507812,4.9202070236206055,-2.6365816593170166,7.039999999999894
-3.6124088764190674,4.45439338684082,-1.3796658515930176,7.049999999999894
-4.002452850341797,3.866621971130371,-0.4717472493648529,7.059999999999894
-4.305112361907959,3.3690900802612305,-0.10863858461380005,7.069999999999894
-4.250969886779785,3.0902462005615234,-0.12469381093978882,7.0799999999998935
-3.6860344409942627,2.7810373306274414,-0.22102326154708862,7.089999999999893
-2.706623077392578,2.414762496948242,-0.45689159631729126,7.099999999999893
-1.6150293350219727,1.7968196868896484,-0.3937099575996399,7.109999999999893
-0.7272894382476807,1.185689926147461,-0.318520724773407,7.119999999999893
0.04683184623718262,0.5408048629760742,-0.17395484447479248,7.129999999999892
0.47644007205963135,0.019807815551757812,0.03168487548828125,7.139999999999892
0.539043664932251,-0.3867225646972656,0.1185840368270874,7.149999999999892
0.3291376829147339,-0.8029394149780273,0.26532185077667236,7.159999999999892
-0.37299811840057373,-1.152653694152832,0.3514854907989502,7.169999999999892
-0.8109927177429199,-1.5419154167175293,0.3495591878890991,7.179999999999891
-1.2606098651885986,-1.8443799018859863,0.36984026432037354,7.189999999999891
-1.6155747175216675,-1.8857803344726562,0.32213664054870605,7.199999999999891
-1.9093550443649292,-1.5444769859313965,0.24617350101470947,7.209999999999891
-1.9486234188079834,-1.1114988327026367,0.09426331520080566,7.2199999999998905
-1.9569480419158936,-0.4820594787597656,0.021404385566711426,7.22999999999989
-1.871911644935608,-0.11753463745117188,-0.011825203895568848,7.23999999999989
-1.594934105873108,0.17956829071044922,0.07683730125427246,7.24999999999989
-1.2772002220153809,0.17544078826904297,0.16144728660583496,7.25999999999989
-1.037811279296875,0.05498790740966797,0.1401059627532959,7.269999999999889
-0.9352782368659973,-0.33717918395996094,0.17300474643707275,7.279999999999889
-0.77306067943573,-0.8982582092285156,0.2558102607727051,7.289999999999889
-0.7184736728668213,-1.2786827087402344,0.2874622344970703,7.299999999999889
-0.6694221496582031,-1.6628952026367188,0.3194761276245117,7.309999999999889
-0.8215892314910889,-1.780806541442871,0.3989201784133911,7.319999999999888
-0.8676733374595642,-1.7881932258605957,0.4156886339187622,7.329999999999888
-0.8044952154159546,-1.6156678199768066,0.4436302185058594,7.339999999999888
-0.6847411394119263,-1.2277002334594727,0.43467843532562256,7.349999999999888
-0.7021082639694214,-0.8279991149902344,0.3129093647003174,7.3599999999998875
-0.6725317239761353,-0.39742469787597656,0.19836044311523438,7.369999999999887
-0.6426477432250977,-0.03173637390136719,0.01548159122467041,7.379999999999887
-0.5228400230407715,0.12561988830566406,-0.15644729137420654,7.389999999999887
-0.46444010734558105,0.1488018035888672,-0.30689728260040283,7.399999999999887
-0.3731764554977417,0.15693283081054688,-0.3954704999923706,7.4099999999998865
-0.4134387969970703,0.19044017791748047,-0.4644167423248291,7.419999999999886
-0.4876542091369629,0.4985847473144531,-0.6988931894302368,7.429999999999886
-0.3711283206939697,1.046030044555664,-0.7640022039413452,7.439999999999886
-0.4874734878540039,1.502364158630371,-0.4473581314086914,7.449999999999886
-0.5811783075332642,1.6969385147094727,-0.35072171688079834,7.459999999999885
-0.5059922933578491,1.6627588272094727,-0.5576983690261841,7.469999999999885
-0.47039175033569336,1.5609025955200195,-0.6456146240234375,7.479999999999885
-0.644654393196106,1.2081966400146484,-0.6375386714935303,7.489999999999885
-0.8479973077774048,0.5523233413696289,-0.6897757053375244,7.4999999999998845
-1.0020419359207153,-0.24879837036132812,-0.7693463563919067,7.509999999999884
-1.1639399528503418,-0.8101320266723633,-0.78034508228302,7.519999999999884
-1.2943905591964722,-0.9245014190673828,-0.8205599188804626,7.529999999999884
-1.3429837226867676,-0.480621337890625,-0.854824960231781,7.539999999999884
-1.3395968675613403,0.29381752014160156,-0.8351758718490601,7.5499999999998835
-1.28277587890625,0.7294473648071289,-0.7826342582702637,7.559999999999883
-0.8586201071739197,0.607539176940918,-0.8401406407356262,7.569999999999883
-0.7629991173744202,0.5160493850708008,-0.6689767837524414,7.579999999999883
-0.6367605924606323,0.2159862518310547,-0.8657917976379395,7.589999999999883
-0.683730959892273,-0.01264190673828125,-0.8287883400917053,7.599999999999882
-0.6667964458465576,-0.1588602066040039,-0.7058438658714294,7.609999999999882
-0.7913476228713989,-0.20423603057861328,-0.7088612914085388,7.619999999999882
-0.787433385848999,-0.20453262329101562,-0.711208164691925,7.629999999999882
-0.901997447013855,0.07477760314941406,-0.7812458276748657,7.6399999999998816
-1.0375730991363525,0.3391389846801758,-0.8437243700027466,7.649999999999881
-1.0170986652374268,0.4379138946533203,-0.9186529517173767,7.659999999999881
-0.9257146120071411,0.405181884765625,-0.9865127801895142,7.669999999999881
-0.7815277576446533,0.3323507308959961,-0.9933006167411804,7.679999999999881
-0.9948482513427734,0.5090522766113281,-0.9304526448249817,7.6899999999998805
-0.5819792747497559,0.0994100570678711,-0.8536056280136108,7.69999999999988
-0.47727322578430176,0.6454734802246094,-0.7222192883491516,7.70999999999988
-0.7091524600982666,0.6479654312133789,-0.6010074615478516,7.71999999999988
-0.588898777961731,0.34473705291748047,-0.7739827036857605,7.72999999999988
-0.5278012752532959,0.30828094482421875,-0.6014333963394165,7.739999999999879
-0.573232889175415,0.3227853775024414,-0.5297383069992065,7.749999999999879
-0.4875302314758301,0.24907970428466797,-0.5408875942230225,7.759999999999879
-0.5849820375442505,0.2714071273803711,-0.6026253700256348,7.769999999999879
-0.4834167957305908,0.12146663665771484,-0.6507713794708252,7.779999999999879
-0.43197011947631836,-0.004492759704589844,-0.5532336235046387,7.789999999999878
-0.10606443881988525,-0.0922536849975586,-0.38704586029052734,7.799999999999878
-0.08743822574615479,0.10232925415039062,-0.31473731994628906,7.809999999999878
-0.07405900955200195,0.22461700439453125,-0.39979350566864014,7.819999999999878
-0.10167741775512695,0.23425865173339844,-0.3257718086242676,7.8299999999998775
-0.024860262870788574,0.18664169311523438,-0.2925691604614258,7.839999999999877
-1.1866660118103027,-0.880671501159668,-0.07804226875305176,7.849999999999877
0.7422717809677124,-0.15683364868164062,0.6790556907653809,7.859999999999877
-0.7567760944366455,0.8830938339233398,-0.757756233215332,7.869999999999877
0.2727940082550049,0.6338520050048828,-0.24029207229614258,7.879999999999876
0.23701584339141846,0.5181198120117188,-0.6254450082778931,7.889999999999876
0.09142899513244629,0.3041543960571289,-0.4503108263015747,7.899999999999876
0.21405065059661865,-0.28546810150146484,-0.5109214782714844,7.909999999999876
0.517922043800354,-0.181243896484375,-0.3024526834487915,7.919999999999876
0.3501952886581421,-0.2023172378540039,-0.5351178646087646,7.929999999999875
0.9919565916061401,0.15401554107666016,-0.356464147567749,7.939999999999875
0.42343997955322266,0.11499309539794922,-0.01930069923400879,7.949999999999875
0.22385454177856445,0.03692913055419922,-0.19340217113494873,7.959999999999875
0.07708442211151123,-0.14451217651367188,-0.11868667602539062,7.9699999999998745
-0.09808540344238281,-0.20642757415771484,0.021201014518737793,7.979999999999874
-0.04471611976623535,-0.28543853759765625,0.1378570795059204,7.989999999999874
-0.02573418617248535,-0.31903839111328125,0.24150896072387695,7.999999999999874
