AccX,AccY,AccZ,SampleRate
1.3885518312454224,-0.7607431411743164,1.0514514446258545,0
1.7405236959457397,-0.7896833419799805,1.1221923828125,0.01
2.042541027069092,-0.7248439788818359,1.1740999221801758,0.02
2.1545662879943848,-0.5735654830932617,1.239436149597168,0.03
2.3175573348999023,-0.47490501403808594,1.2833255529403687,0.04
2.366508960723877,-0.3978080749511719,1.3598194122314453,0.05
2.301980495452881,-0.2417888641357422,1.4257934093475342,0.060000000000000005
2.318638801574707,0.0026845932006835938,1.3929808139801025,0.07
2.1721677780151367,0.34280967712402344,1.2610447406768799,0.08
2.155550241470337,0.6563701629638672,1.3670580387115479,0.09
2.2579400539398193,0.7973155975341797,1.4789016246795654,0.09999999999999999
2.589081287384033,0.7968368530273438,1.551077961921692,0.10999999999999999
2.9623308181762695,0.6669273376464844,1.8307243585586548,0.11999999999999998
3.36580228805542,0.5344762802124023,1.9799232482910156,0.12999999999999998
3.6969287395477295,0.5216197967529297,1.8447763919830322,0.13999999999999999
3.9720664024353027,0.6309137344360352,1.7422089576721191,0.15
4.283483982086182,0.66845703125,1.822991132736206,0.16
4.432694911956787,0.8595848083496094,2.026310920715332,0.17
4.058102130889893,1.4605646133422852,1.9974836111068726,0.18000000000000002
3.2800254821777344,2.7638025283813477,1.0050276517868042,0.19000000000000003
2.760469436645508,4.31025505065918,-0.6890738010406494,0.20000000000000004
2.243361234664917,5.178038597106934,-0.8521554470062256,0.21000000000000005
1.3785165548324585,4.851656913757324,-0.5323048233985901,0.22000000000000006
0.5019537806510925,3.8915224075317383,-0.7420536875724792,0.23000000000000007
-0.22115015983581543,2.891439437866211,-1.510061264038086,0.24000000000000007
-0.9452711343765259,2.0832042694091797,-1.9015847444534302,0.25000000000000006
-1.6317058801651,1.4185829162597656,-2.238546848297119,0.26000000000000006
-2.371338367462158,0.5358037948608398,-2.3552496433258057,0.2700000000000001
-2.8317041397094727,-0.11499595642089844,-2.122401475906372,0.2800000000000001
-2.8662829399108887,-0.4354209899902344,-2.0227177143096924,0.2900000000000001
-2.5132176876068115,-0.3007841110229492,-1.4608519077301025,0.3000000000000001
-1.9975024461746216,-0.22838687896728516,-0.5890735387802124,0.3100000000000001
-1.4418127536773682,-0.24683284759521484,-0.0826338529586792,0.3200000000000001
-1.0074282884597778,-0.1332406997680664,0.1664804369211197,0.3300000000000001
-0.9033501744270325,-0.01444244384765625,0.2534106969833374,0.34000000000000014
-0.988316535949707,0.18122577667236328,0.07645217329263687,0.35000000000000014
-1.1141762733459473,0.35793399810791016,-0.2608855068683624,0.36000000000000015
-0.8756237030029297,0.4459362030029297,-0.4356576204299927,0.37000000000000016
-0.6514098048210144,0.3684225082397461,-0.4785922169685364,0.38000000000000017
0.025112032890319824,-0.06862258911132812,-0.2619865834712982,0.3900000000000002
0.442920446395874,-0.44365501403808594,-0.2878253757953644,0.4000000000000002
0.6338790655136108,-1.053481101989746,-0.2657841444015503,0.4100000000000002
0.4548628330230713,-1.6393842697143555,-0.12685155868530273,0.4200000000000002
0.07979285717010498,-2.332864761352539,0.1406131088733673,0.4300000000000002
-0.25650179386138916,-2.869988441467285,0.4106849730014801,0.4400000000000002
-0.2895714044570923,-3.1836910247802734,0.7266761064529419,0.45000000000000023
-0.2866925001144409,-3.0992345809936523,0.9505684971809387,0.46000000000000024
-0.1930532455444336,-2.772617816925049,1.1213767528533936,0.47000000000000025
-0.36974668502807617,-2.252056121826172,1.1043154001235962,0.48000000000000026
-0.4977259039878845,-1.6312122344970703,1.086057186126709,0.49000000000000027
-0.4835866093635559,-1.1418581008911133,1.1981697082519531,0.5000000000000002
-0.29972827434539795,-0.7454404830932617,1.4519314765930176,0.5100000000000002
-0.16105246543884277,-0.8177375793457031,1.5348484516143799,0.5200000000000002
-0.04583430290222168,-1.2221431732177734,1.5639917850494385,0.5300000000000002
0.1701509952545166,-1.9781885147094727,1.4972859621047974,0.5400000000000003
0.5888684988021851,-2.952186107635498,1.4478479623794556,0.5500000000000003
0.8367477655410767,-3.57688570022583,1.5068926811218262,0.5600000000000003
1.0565828084945679,-3.792848587036133,1.7463586330413818,0.5700000000000003
0.7649197578430176,-3.267601490020752,1.887076497077942,0.5800000000000003
0.6299982070922852,-2.5831737518310547,1.7818704843521118,0.5900000000000003
0.5352598428726196,-2.0141310691833496,1.391878604888916,0.6000000000000003
0.5622291564941406,-1.3946380615234375,1.1077721118927002,0.6100000000000003
0.5712685585021973,-0.661590576171875,1.182214617729187,0.6200000000000003
0.7341842651367188,-0.027772903442382812,1.4100548028945923,0.6300000000000003
0.8661143779754639,0.3606834411621094,1.6010358333587646,0.6400000000000003
1.057555913925171,0.7331657409667969,2.036670207977295,0.6500000000000004
1.1401121616363525,1.1126232147216797,2.3489646911621094,0.6600000000000004
1.1685365438461304,1.390233039855957,2.3777127265930176,0.6700000000000004
1.1509250402450562,1.4294376373291016,2.3257312774658203,0.6800000000000004
1.2565838098526,1.3696584701538086,2.469778060913086,0.6900000000000004
1.3131515979766846,1.3669757843017578,2.706329345703125,0.7000000000000004
1.2727609872817993,1.6203994750976562,3.1484792232513428,0.7100000000000004
0.9192548990249634,1.9771385192871094,3.4949607849121094,0.7200000000000004
0.03195953369140625,2.770322799682617,3.308835983276367,0.7300000000000004
-1.346623420715332,4.617613792419434,1.12813138961792,0.7400000000000004
-2.288210391998291,7.235085487365723,1.337236762046814,0.7500000000000004
-1.2268154621124268,8.681013107299805,2.419602870941162,0.7600000000000005
1.9319536685943604,8.277909278869629,2.7193667888641357,0.7700000000000005
2.955855369567871,5.163715362548828,1.1312133073806763,0.7800000000000005
0.5371723175048828,0.8908567428588867,-0.5310176610946655,0.7900000000000005
-2.065906286239624,-1.8851165771484375,-2.5706369876861572,0.8000000000000005
-3.2489967346191406,-2.475283622741699,-2.792349100112915,0.8100000000000005
-2.673863410949707,-2.800199508666992,-1.533848762512207,0.8200000000000005
-2.3238067626953125,-3.122831344604492,-1.1322815418243408,0.8300000000000005
-1.7674603462219238,-3.2161731719970703,-1.4631460905075073,0.8400000000000005
-0.9039354920387268,-2.738506317138672,-2.0149455070495605,0.8500000000000005
-0.13108551502227783,-1.7053656578063965,-2.777719020843506,0.8600000000000005
0.17034828662872314,-0.3785438537597656,-3.3527987003326416,0.8700000000000006
-0.30913591384887695,0.4080085754394531,-3.1816654205322266,0.8800000000000006
-1.1789952516555786,0.6823492050170898,-2.478452682495117,0.8900000000000006
-1.4131072759628296,0.10111618041992188,-1.7613065242767334,0.9000000000000006
-1.3405133485794067,-0.6094379425048828,-1.244175672531128,0.9100000000000006
-1.2798659801483154,-1.0576047897338867,-0.9835795760154724,0.9200000000000006
-1.4791024923324585,-1.2457447052001953,-0.8929101228713989,0.9300000000000006
-1.6667324304580688,-1.4041881561279297,-0.8460772037506104,0.9400000000000006
-1.6570026874542236,-1.7293100357055664,-0.9209412336349487,0.9500000000000006
-1.3990840911865234,-2.1085944175720215,-0.9101992249488831,0.9600000000000006
-1.0029329061508179,-2.6239824295043945,-0.9307277798652649,0.9700000000000006
-0.5856328010559082,-2.6304078102111816,-0.9749871492385864,0.9800000000000006
0.05821633338928223,-2.1291470527648926,-1.226412057876587,0.9900000000000007
0.5166604518890381,-1.4800786972045898,-1.1688872575759888,1.0000000000000007
0.7145944833755493,-0.8149080276489258,-1.1786991357803345,1.0100000000000007
1.1762126684188843,-0.6934719085693359,-1.1709436178207397,1.0200000000000007
1.6064530611038208,-1.076909065246582,-0.7073975801467896,1.0300000000000007
1.8042511940002441,-1.4454927444458008,-0.5879378318786621,1.0400000000000007
1.89621901512146,-1.6201057434082031,-0.28974267840385437,1.0500000000000007
1.8582186698913574,-1.7730960845947266,0.0889969915151596,1.0600000000000007
1.6722137928009033,-1.8663287162780762,0.4271681308746338,1.0700000000000007
1.4423515796661377,-1.6941118240356445,0.6747218370437622,1.0800000000000007
1.2633646726608276,-1.3428316116333008,0.9432402849197388,1.0900000000000007
1.1548010110855103,-0.9346046447753906,1.3177552223205566,1.1000000000000008
1.193716287612915,-0.7732429504394531,1.5967236757278442,1.1100000000000008
1.1843901872634888,-0.7145357131958008,1.4714962244033813,1.1200000000000008
1.167144536972046,-0.5307531356811523,1.094127893447876,1.1300000000000008
1.0040584802627563,-0.2075967788696289,0.838861346244812,1.1400000000000008
0.7842038869857788,0.2069387435913086,0.8573125600814819,1.1500000000000008
0.7415048480033875,0.8924226760864258,0.9467458128929138,1.1600000000000008
1.1446083784103394,1.7748889923095703,1.108987808227539,1.1700000000000008
1.8921244144439697,2.1217784881591797,1.2632341384887695,1.1800000000000008
3.080653667449951,1.9217185974121094,1.574001669883728,1.1900000000000008
4.016142845153809,1.4877033233642578,1.9399446249008179,1.2000000000000008
4.470473289489746,1.1378440856933594,1.9734151363372803,1.2100000000000009
5.091641902923584,0.7522144317626953,1.5656238794326782,1.2200000000000009
5.69528341293335,0.3691215515136719,1.307486653327942,1.2300000000000009
5.293631553649902,0.07726573944091797,1.2456892728805542,1.2400000000000009
3.354844093322754,0.25273704528808594,1.3239476680755615,1.2500000000000009
0.9363101720809937,1.123514175415039,-2.212965488433838,1.260000000000001
-0.6198862791061401,2.2331361770629883,-4.46656608581543,1.270000000000001
-1.4095085859298706,2.7624568939208984,-3.5697011947631836,1.280000000000001
-2.811039924621582,2.7084484100341797,-2.1596317291259766,1.290000000000001
-3.243945837020874,2.6002206802368164,-1.9417788982391357,1.300000000000001
-2.7550454139709473,2.627657890319824,-2.4045186042785645,1.310000000000001
-2.743368148803711,3.317612648010254,-2.480952024459839,1.320000000000001
-2.4919753074645996,4.266661643981934,-2.299253225326538,1.330000000000001
-2.1326475143432617,5.177096366882324,-2.105266571044922,1.340000000000001
-1.8959736824035645,5.921712875366211,-1.261904239654541,1.350000000000001
-1.4920612573623657,6.014657020568848,-1.0225579738616943,1.360000000000001
-1.0229754447937012,5.650604248046875,-0.9593906998634338,1.370000000000001
-1.0785185098648071,5.660793304443359,-1.0408291816711426,1.380000000000001
-0.3647104501724243,3.679931640625,-0.28949201107025146,1.390000000000001
-0.0727241039276123,1.9635734558105469,0.004408985376358032,1.400000000000001
-0.026341557502746582,-0.09923267364501953,0.12660831212997437,1.410000000000001
-0.07680797576904297,-0.08597946166992188,0.04747575521469116,1.420000000000001
-0.25939786434173584,-2.605764865875244,0.11281388998031616,1.430000000000001
-0.46303272247314453,-3.6557488441467285,0.28561902046203613,1.440000000000001
-0.711625337600708,-4.371025562286377,0.4163401126861572,1.450000000000001
-0.9574312567710876,-4.7210187911987305,0.31545716524124146,1.460000000000001
-1.1103780269622803,-4.730620861053467,0.15608203411102295,1.470000000000001
-1.310270071029663,-4.49376106262207,0.09711849689483643,1.480000000000001
-1.187206506729126,-4.089334964752197,0.21316885948181152,1.490000000000001
-1.4670772552490234,-3.5982117652893066,0.36476612091064453,1.500000000000001
-1.8192354440689087,-3.032042980194092,0.45907318592071533,1.5100000000000011
-1.911996603012085,-2.559662342071533,0.5241845846176147,1.5200000000000011
-1.7827293872833252,-2.254384994506836,0.6659641265869141,1.5300000000000011
-1.535500168800354,-2.2163825035095215,0.8274179697036743,1.5400000000000011
-0.9613265991210938,-2.45967960357666,1.0322514772415161,1.5500000000000012
-0.31438708305358887,-3.0245609283447266,1.4797148704528809,1.5600000000000012
0.5580308437347412,-3.74345064163208,1.8663036823272705,1.5700000000000012
1.3761110305786133,-4.186158180236816,1.849096655845642,1.5800000000000012
1.5230270624160767,-3.9135007858276367,1.5138804912567139,1.5900000000000012
1.4226921796798706,-3.601897716522217,1.4776511192321777,1.6000000000000012
1.391343116760254,-3.1771469116210938,1.7160673141479492,1.6100000000000012
1.3960639238357544,-2.597810745239258,1.6565797328948975,1.6200000000000012
1.356150507926941,-1.5762896537780762,1.0908375978469849,1.6300000000000012
1.0246684551239014,0.07640552520751953,1.0210604667663574,1.6400000000000012
0.5834625959396362,2.170985221862793,1.2872799634933472,1.6500000000000012
0.4501383304595947,3.568267822265625,1.7781952619552612,1.6600000000000013
0.44204044342041016,4.834408760070801,2.5648627281188965,1.6700000000000013
0.21810543537139893,5.529575347900391,2.619457721710205,1.6800000000000013
0.0626610517501831,5.083763122558594,2.6061172485351562,1.6900000000000013
-0.1831984519958496,3.527266502380371,2.856397867202759,1.7000000000000013
-0.30336999893188477,0.8561267852783203,3.7650723457336426,1.7100000000000013
0.05792665481567383,-1.2088842391967773,4.4434051513671875,1.7200000000000013
-0.16231966018676758,-2.219571113586426,3.6654787063598633,1.7300000000000013
-0.8068902492523193,-0.6913948059082031,-0.947169840335846,1.7400000000000013
-1.1056997776031494,2.6753883361816406,-2.4338316917419434,1.7500000000000013
-0.32319486141204834,8.151888847351074,-2.0290136337280273,1.7600000000000013
0.6902866363525391,11.179636001586914,-2.375187873840332,1.7700000000000014
0.927337646484375,10.605935096740723,-3.543884038925171,1.7800000000000014
-1.7247462272644043,6.119328498840332,-4.596041202545166,1.7900000000000014
-3.9454472064971924,0.14248371124267578,-4.525308609008789,1.8000000000000014
-4.142228126525879,-2.8989906311035156,-3.099759578704834,1.8100000000000014
-3.8382961750030518,-3.404536724090576,-1.2052016258239746,1.8200000000000014
-2.2482876777648926,-2.6054635047912598,0.06574273109436035,1.8300000000000014
-0.7615470886230469,-1.7487101554870605,-0.12047934532165527,1.8400000000000014
0.8011233806610107,-0.7647333145141602,-0.8400872945785522,1.8500000000000014
1.9311795234680176,0.06320762634277344,-1.7932273149490356,1.8600000000000014
2.233243465423584,0.45586585998535156,-2.32857346534729,1.8700000000000014
1.7807269096374512,0.3018951416015625,-2.5991179943084717,1.8800000000000014
0.7122093439102173,-0.21037864685058594,-2.864842176437378,1.8900000000000015
-0.25743424892425537,-0.5590600967407227,-2.68203067779541,1.9000000000000015
-1.4720261096954346,-0.7487001419067383,-2.216921806335449,1.9100000000000015
-2.3178162574768066,-0.9326133728027344,-1.8111764192581177,1.9200000000000015
-2.8291730880737305,-1.2040596008300781,-1.2700852155685425,1.9300000000000015
-2.891684055328369,-1.8351874351501465,-0.9174031019210815,1.9400000000000015
-2.803865671157837,-2.4361090660095215,-0.9352911710739136,1.9500000000000015
-2.4113168716430664,-2.7280445098876953,-1.0481908321380615,1.9600000000000015
-1.8863294124603271,-2.7456531524658203,-1.2283838987350464,1.9700000000000015
-1.310909628868103,-2.6117868423461914,-1.1367261409759521,1.9800000000000015
-0.36514192819595337,-2.6445093154907227,-1.0702855587005615,1.9900000000000015
0.5523818731307983,-2.7187795639038086,-0.9761626124382019,2.0000000000000013
1.1000131368637085,-2.7224345207214355,-0.7510898113250732,2.010000000000001
1.191386103630066,-2.6801252365112305,-0.5680922865867615,2.020000000000001
1.1691967248916626,-2.6404924392700195,-0.1688084900379181,2.0300000000000007
1.1317071914672852,-2.551333427429199,0.38341397047042847,2.0400000000000005
1.267086386680603,-2.5132675170898438,0.6009798049926758,2.0500000000000003
1.2391289472579956,-2.2864866256713867,0.6196770071983337,2.06
1.1330927610397339,-1.834885597229004,0.5040584802627563,2.07
0.8308478593826294,-1.2994375228881836,0.21137070655822754,2.0799999999999996
0.49429023265838623,-0.517338752746582,-0.16021177172660828,2.0899999999999994
0.24545401334762573,0.10214996337890625,-0.3217812180519104,2.099999999999999
0.2234143614768982,0.5329580307006836,0.011983275413513184,2.109999999999999
0.23112893104553223,0.8495597839355469,0.6658676862716675,2.1199999999999988
0.5500084757804871,1.2293367385864258,0.989944577217102,2.1299999999999986
1.2535452842712402,1.4069442749023438,1.0114306211471558,2.1399999999999983
2.4718942642211914,1.2006950378417969,1.1387073993682861,2.149999999999998
3.6992294788360596,0.9816360473632812,1.3966896533966064,2.159999999999998
4.5620951652526855,0.8809671401977539,1.8516157865524292,2.1699999999999977
5.1858906745910645,1.0729789733886719,1.6862754821777344,2.1799999999999975
5.174111843109131,1.0736799240112305,1.6943892240524292,2.1899999999999973
5.392672538757324,1.4095706939697266,1.2864398956298828,2.199999999999997
5.195285320281982,1.1540288925170898,0.7259085178375244,2.209999999999997
4.501284122467041,0.8099994659423828,0.7271853089332581,2.2199999999999966
2.00620698928833,1.2300081253051758,0.5709336996078491,2.2299999999999964
1.9831568002700806,1.231668472290039,0.5995869636535645,2.239999999999996
-2.3378102779388428,2.137650489807129,-4.215329647064209,2.249999999999996
-3.2163779735565186,2.3170976638793945,-3.638601541519165,2.259999999999996
-3.341123580932617,2.1742753982543945,-2.2295403480529785,2.2699999999999956
-2.2203164100646973,1.635636329650879,-2.3810229301452637,2.2799999999999954
-0.9840155243873596,1.9901304244995117,-3.1836490631103516,2.289999999999995
-0.8669289946556091,3.3595046997070312,-2.8242263793945312,2.299999999999995
-0.9664098620414734,3.372068405151367,-2.8846888542175293,2.3099999999999947
-1.5526772737503052,5.977225303649902,-1.7764065265655518,2.3199999999999945
-1.6218688488006592,6.769474029541016,-0.8270059823989868,2.3299999999999943
-1.887915849685669,7.209914207458496,-0.7243422269821167,2.339999999999994
-2.3016562461853027,7.111802101135254,-0.4730031490325928,2.349999999999994
-2.2394909858703613,6.104036331176758,0.19107472896575928,2.3599999999999937
-2.2926909923553467,6.116396903991699,0.12014883756637573,2.3699999999999934
-1.9035494327545166,2.541940689086914,0.4584415555000305,2.3799999999999932
-1.175384283065796,0.47846412658691406,0.7673668265342712,2.389999999999993
-0.40009868144989014,-1.3945255279541016,1.022489309310913,2.399999999999993
0.04217708110809326,-2.9351139068603516,0.9955102801322937,2.4099999999999926
0.3484863042831421,-4.052597522735596,0.9579916000366211,2.4199999999999924
0.298925518989563,-4.59414005279541,0.6775808334350586,2.429999999999992
0.23544096946716309,-4.676246643066406,0.36789125204086304,2.439999999999992
0.09010195732116699,-4.583088397979736,-0.023945927619934082,2.4499999999999917
-0.06944048404693604,-4.119308948516846,-0.01770460605621338,2.4599999999999915
-0.33190441131591797,-3.805072784423828,0.21416783332824707,2.4699999999999913
-0.5326309204101562,-3.5537281036376953,0.4669872522354126,2.479999999999991
-0.807389497756958,-3.35245943069458,0.6103041172027588,2.489999999999991
-0.8937376737594604,-3.1861400604248047,0.6707615852355957,2.4999999999999907
-0.9902116656303406,-3.139937400817871,0.7114835977554321,2.5099999999999905
-0.9775173664093018,-3.344686508178711,0.5818355083465576,2.5199999999999902
-0.949499249458313,-3.807032585144043,0.4511721134185791,2.52999999999999
-0.8575822114944458,-4.292211532592773,0.46873676776885986,2.53999999999999
-0.665868878364563,-4.453329563140869,0.745552659034729,2.5499999999999896
-0.3199528455734253,-4.405503749847412,0.9117735624313354,2.5599999999999894
-0.025021672248840332,-4.214349746704102,1.1389333009719849,2.569999999999989
0.3728588819503784,-3.8902292251586914,1.334173560142517,2.579999999999989
0.676437497138977,-3.2589073181152344,1.2278178930282593,2.5899999999999888
0.9426909685134888,-2.174837589263916,0.9042004346847534,2.5999999999999885
1.175727128982544,-0.3172016143798828,0.8713587522506714,2.6099999999999883
1.1708905696868896,1.396653175354004,0.998143196105957,2.619999999999988
0.8764835596084595,3.3543882369995117,0.9471526145935059,2.629999999999988
0.5869300365447998,4.321812629699707,1.1983673572540283,2.6399999999999877
-0.02329885959625244,4.576488494873047,1.8339468240737915,2.6499999999999875
-0.5924491882324219,4.270992279052734,2.6600584983825684,2.6599999999999873
-1.0217711925506592,3.5487051010131836,3.348693609237671,2.669999999999987
-1.3197920322418213,2.827606201171875,3.556485414505005,2.679999999999987
-1.5004063844680786,1.6572446823120117,3.6999151706695557,2.6899999999999866
-1.6502429246902466,0.21467876434326172,3.6519267559051514,2.6999999999999864
-1.989564061164856,0.31587886810302734,0.4074908494949341,2.709999999999986
-1.963403344154358,2.200399398803711,-1.9448214769363403,2.719999999999986
-0.5196030139923096,6.412428855895996,-1.6840314865112305,2.7299999999999858
1.6673328876495361,9.185259819030762,-1.1646082401275635,2.7399999999999856
2.7436375617980957,9.730259895324707,-2.152129888534546,2.7499999999999853
1.5980772972106934,7.587919235229492,-3.1528215408325195,2.759999999999985
-1.2394790649414062,2.6347179412841797,-3.7923123836517334,2.769999999999985
-2.539668560028076,-1.1553678512573242,-4.754035949707031,2.7799999999999847
-2.65775990486145,-2.660032272338867,-3.2092125415802,2.7899999999999845
-2.502146005630493,-2.557636260986328,-1.8363007307052612,2.7999999999999843
-1.9474101066589355,-1.9484820365905762,-1.1505855321884155,2.809999999999984
-1.207315444946289,-1.0870609283447266,-1.4214996099472046,2.819999999999984
-0.2024521827697754,-0.4040241241455078,-2.0957632064819336,2.8299999999999836
0.6249895095825195,0.06244182586669922,-2.453416347503662,2.8399999999999834
0.6405602693557739,0.04469013214111328,-2.3877692222595215,2.849999999999983
0.2948063611984253,-0.34662914276123047,-2.231450319290161,2.859999999999983
-0.2869398593902588,-0.5531187057495117,-1.9773393869400024,2.869999999999983
-0.8743007779121399,-0.5953855514526367,-1.6287058591842651,2.8799999999999826
-1.4415674209594727,-0.5189123153686523,-1.5295467376708984,2.8899999999999824
-1.886857509613037,-0.5784339904785156,-1.5418102741241455,2.899999999999982
-1.9684275388717651,-0.9926185607910156,-1.2144259214401245,2.909999999999982
-1.6664612293243408,-1.6074886322021484,-1.0369021892547607,2.9199999999999817
-1.2234992980957031,-2.3016185760498047,-0.8418161869049072,2.9299999999999815
-0.8574486970901489,-2.760727882385254,-0.9321866631507874,2.9399999999999813
-0.47797703742980957,-2.8050594329833984,-1.1318224668502808,2.949999999999981
-0.05618119239807129,-2.557602882385254,-1.1562671661376953,2.959999999999981
0.5641471147537231,-2.3798117637634277,-1.0086429119110107,2.9699999999999807
1.0885522365570068,-2.50571346282959,-0.8353241682052612,2.9799999999999804
1.4549167156219482,-2.6334962844848633,-0.6662945747375488,2.9899999999999802
1.569046139717102,-2.5575966835021973,-0.4057289958000183,2.99999999999998
1.3689571619033813,-2.299746036529541,-0.19056326150894165,3.00999999999998
1.1084529161453247,-2.054539680480957,0.0987159013748169,3.0199999999999796
0.6951339244842529,-1.8511757850646973,0.4303972125053406,3.0299999999999794
0.4799081087112427,-1.7807025909423828,0.5993860960006714,3.039999999999979
0.4114493131637573,-1.7134909629821777,0.5623393654823303,3.049999999999979
0.42740583419799805,-1.5242595672607422,0.49312347173690796,3.0599999999999787
0.43021059036254883,-1.2628517150878906,0.3104585111141205,3.0699999999999785
0.3858398199081421,-1.0200376510620117,0.09589236974716187,3.0799999999999783
0.2557952404022217,-0.6568374633789062,-0.08725112676620483,3.089999999999978
0.3427478075027466,-0.25215911865234375,-0.024714231491088867,3.099999999999978
0.6038172841072083,0.4599189758300781,0.23890092968940735,3.1099999999999777
1.0973726511001587,0.969721794128418,0.6403284072875977,3.1199999999999775
1.6688597202301025,1.1818532943725586,1.1225394010543823,3.1299999999999772
2.318877696990967,1.323826789855957,1.2376807928085327,3.139999999999977
3.3178834915161133,1.4623966217041016,1.23215913772583,3.149999999999977
4.1695098876953125,1.5349922180175781,1.351902723312378,3.1599999999999766
5.1112236976623535,1.517378807067871,1.5299839973449707,3.1699999999999764
5.467966079711914,1.5051298141479492,1.5886746644973755,3.179999999999976
5.387223720550537,1.5194997787475586,1.5554271936416626,3.189999999999976
5.381753921508789,1.5196418762207031,1.5751577615737915,3.1999999999999758
2.9001667499542236,2.640496253967285,0.17108970880508423,3.2099999999999755
2.169290781021118,3.843379020690918,-2.6017873287200928,3.2199999999999753
0.9792550802230835,4.777256011962891,-3.477248430252075,3.229999999999975
-0.420825719833374,4.201780319213867,-3.5541763305664062,3.239999999999975
-1.7365137338638306,2.600618362426758,-3.1998348236083984,3.2499999999999747
-2.642195701599121,1.3277807235717773,-2.9103360176086426,3.2599999999999745
-3.076198101043701,1.4000577926635742,-2.877840518951416,3.2699999999999743
-3.2490506172180176,2.2706050872802734,-2.4872751235961914,3.279999999999974
-2.8619260787963867,3.2608261108398438,-2.035956382751465,3.289999999999974
-2.6926445960998535,4.0207719802856445,-1.58551824092865,3.2999999999999736
-2.7132010459899902,4.492526054382324,-1.243378758430481,3.3099999999999734
-2.490617036819458,4.690642356872559,-0.7853186130523682,3.319999999999973
-2.2150959968566895,4.811673164367676,-0.4820476174354553,3.329999999999973
-2.030413866043091,4.542181015014648,-0.22345483303070068,3.3399999999999728
-1.6034129858016968,3.7101144790649414,-0.25972551107406616,3.3499999999999726
-1.2159744501113892,2.3301897048950195,-0.2837412357330322,3.3599999999999723
-1.253299355506897,2.339468002319336,-0.3482116758823395,3.369999999999972
-0.289304256439209,-0.6314373016357422,-0.0497623085975647,3.379999999999972
0.04526317119598389,-2.0641322135925293,-0.049379706382751465,3.3899999999999717
0.06159412860870361,-2.964580535888672,0.012069880962371826,3.3999999999999715
0.2357637882232666,-3.8190741539001465,0.09501242637634277,3.4099999999999713
0.14866602420806885,-4.393473148345947,0.0643918514251709,3.419999999999971
0.0971304178237915,-4.772607803344727,0.13646084070205688,3.429999999999971
0.15543913841247559,-4.918762683868408,0.17541563510894775,3.4399999999999706
0.35499894618988037,-4.804087162017822,0.289306640625,3.4499999999999704
0.05453848838806152,-4.632621765136719,0.426607608795166,3.45999999999997
0.08513474464416504,-4.631853103637695,0.3723773956298828,3.46999999999997
-1.1753816604614258,-3.622704029083252,0.4758492708206177,3.47999999999997
-1.4843480587005615,-2.9562387466430664,0.5351153612136841,3.4899999999999696
-1.446932077407837,-2.4825806617736816,0.6307730674743652,3.4999999999999694
-1.472731351852417,-2.2272024154663086,0.8151376247406006,3.509999999999969
-1.4054179191589355,-2.3361005783081055,1.0322251319885254,3.519999999999969
-1.3281748294830322,-2.809541702270508,1.2740857601165771,3.5299999999999687
-1.1452662944793701,-3.272482395172119,1.5455940961837769,3.5399999999999685
-0.8391018509864807,-3.534386157989502,1.6456924676895142,3.5499999999999683
-0.40954554080963135,-3.4999632835388184,1.6938114166259766,3.559999999999968
-0.23490095138549805,-2.9948172569274902,1.502729058265686,3.569999999999968
-0.17901265621185303,-2.253849983215332,1.234377145767212,3.5799999999999677
0.0034793615341186523,-1.2094736099243164,1.3127765655517578,3.5899999999999674
0.34044480323791504,-0.045159339904785156,1.656865119934082,3.5999999999999672
0.826522707939148,1.0553293228149414,2.1680564880371094,3.609999999999967
1.301592230796814,1.9890947341918945,2.778815746307373,3.619999999999967
1.5694842338562012,2.7434282302856445,2.8659377098083496,3.6299999999999666
1.722049355506897,3.07089900970459,2.857004165649414,3.6399999999999664
1.7429091930389404,3.1969175338745117,3.1661572456359863,3.649999999999966
1.8713518381118774,2.92144775390625,3.4379801750183105,3.659999999999966
1.8547323942184448,2.9277877807617188,3.4195656776428223,3.6699999999999657
2.1243460178375244,1.303384780883789,2.9552536010742188,3.6799999999999655
1.7940970659255981,0.48319530487060547,2.8095531463623047,3.6899999999999653
1.0661779642105103,0.11727333068847656,2.7397022247314453,3.699999999999965
0.023035168647766113,1.1358556747436523,-0.6585506200790405,3.709999999999965
-1.2068817615509033,3.6789932250976562,-1.6342155933380127,3.7199999999999647
-1.1002991199493408,7.959657669067383,-1.405282735824585,3.7299999999999645
-0.2708238363265991,11.07425594329834,-0.1581655740737915,3.7399999999999642
-0.4143037796020508,10.85410213470459,-1.343552589416504,3.749999999999964
-2.2598955631256104,6.67081356048584,-2.867889881134033,3.759999999999964
-4.694061279296875,-0.12526321411132812,-4.313811302185059,3.7699999999999636
-4.59814453125,-3.785935878753662,-4.474318981170654,3.7799999999999634
-4.1210126876831055,-4.304600715637207,-2.128095865249634,3.789999999999963
-2.9975805282592773,-3.764796257019043,-0.367698073387146,3.799999999999963
-1.3740705251693726,-2.569361686706543,-0.2914159297943115,3.8099999999999627
0.1875830888748169,-1.4625988006591797,-1.1325974464416504,3.8199999999999625
1.6303766965866089,0.04989814758300781,-1.9193463325500488,3.8299999999999623
2.3945302963256836,1.415217399597168,-2.439479351043701,3.839999999999962
1.9587743282318115,1.7115478515625,-2.745151996612549,3.849999999999962
0.5780435800552368,0.9428482055664062,-2.785759687423706,3.8599999999999617
0.6341266632080078,0.9141559600830078,-2.6920456886291504,3.8699999999999615
-1.9573380947113037,-0.5511436462402344,-2.5199990272521973,3.8799999999999613
-2.6285462379455566,-0.8301906585693359,-2.066451072692871,3.889999999999961
-2.651219606399536,-1.0295820236206055,-1.6065031290054321,3.899999999999961
-2.274193525314331,-1.1908626556396484,-1.3515275716781616,3.9099999999999606
-1.6323871612548828,-1.787642478942871,-1.124930500984192,3.9199999999999604
-0.8479059338569641,-2.69118070602417,-1.0003494024276733,3.92999999999996
-0.4926391839981079,-3.172053813934326,-1.089113473892212,3.93999999999996
-0.07291638851165771,-3.4066882133483887,-1.2118055820465088,3.9499999999999598
0.497245192527771,-3.1868462562561035,-1.2971664667129517,3.9599999999999596
1.066622257232666,-2.7450413703918457,-1.1749954223632812,3.9699999999999593
1.434178352355957,-2.3394923210144043,-0.9180446863174438,3.979999999999959
1.6772353649139404,-2.0514683723449707,-0.730162501335144,3.989999999999959
1.7233288288116455,-1.9047956466674805,-0.5950928926467896,3.9999999999999587
1.4896118640899658,-1.6599788665771484,-0.20184999704360962,4.009999999999959
1.2238693237304688,-1.4536285400390625,0.2153691053390503,4.019999999999959
1.006376028060913,-1.3070316314697266,0.5396877527236938,4.0299999999999585
0.929436206817627,-1.2917346954345703,0.6888953447341919,4.039999999999958
1.0211846828460693,-1.3190336227416992,0.7294574975967407,4.049999999999958
1.1728801727294922,-1.2739677429199219,0.8030259013175964,4.059999999999958
1.2744041681289673,-1.1277179718017578,0.7112854719161987,4.069999999999958
1.4633073806762695,-1.057708740234375,0.4505312442779541,4.079999999999957
1.3221144676208496,-0.8988990783691406,0.3041095733642578,4.089999999999957
1.1734517812728882,-0.6418819427490234,0.4223998188972473,4.099999999999957
1.1072328090667725,-0.0279541015625,0.4865598976612091,4.109999999999957
1.2249743938446045,0.6654415130615234,0.5460132956504822,4.119999999999957
1.7349309921264648,1.2880878448486328,0.6912421584129333,4.129999999999956
2.675881862640381,1.4979753494262695,0.9565526247024536,4.139999999999956
3.588257312774658,1.4219560623168945,1.3159254789352417,4.149999999999956
4.1095685958862305,1.3564863204956055,1.4687806367874146,4.159999999999956
4.543637275695801,1.2365636825561523,1.6277867555618286,4.1699999999999555
4.510659694671631,1.0260257720947266,1.7197972536087036,4.179999999999955
4.364675045013428,0.5930767059326172,1.733818531036377,4.189999999999955
4.220561981201172,0.10522937774658203,1.5743588209152222,4.199999999999955
2.5831916332244873,0.14198780059814453,1.874556541442871,4.209999999999955
-0.3519513010978699,0.6339225769042969,-0.34424102306365967,4.2199999999999545
-2.4643895626068115,1.4665842056274414,-3.5856542587280273,4.229999999999954
-3.167085647583008,2.365266799926758,-3.515906572341919,4.239999999999954
-3.2100937366485596,2.6714344024658203,-2.734210968017578,4.249999999999954
-2.6588363647460938,2.5242109298706055,-2.721531867980957,4.259999999999954
-1.6533222198486328,2.833934783935547,-3.1715402603149414,4.269999999999953
-1.2325823307037354,4.009891510009766,-3.04994797706604,4.279999999999953
-1.4180008172988892,5.663356781005859,-3.1065194606781006,4.289999999999953
-1.576638102531433,6.584604263305664,-2.9680163860321045,4.299999999999953
-1.597313404083252,7.130205154418945,-2.1984739303588867,4.3099999999999525
-1.4399291276931763,7.1039533615112305,-1.5504212379455566,4.319999999999952
-1.5199671983718872,6.6641035079956055,-0.9146881699562073,4.329999999999952
-1.969604730606079,5.762393951416016,-0.5670098066329956,4.339999999999952
-2.3127410411834717,4.101430892944336,-0.12988507747650146,4.349999999999952
-2.306480884552002,2.081512451171875,0.10302543640136719,4.3599999999999515
-2.0518712997436523,-0.07415580749511719,0.2960948944091797,4.369999999999951
-1.5681109428405762,-1.7931900024414062,0.13388711214065552,4.379999999999951
-0.8519136905670166,-3.245830535888672,0.3314751982688904,4.389999999999951
0.04079437255859375,-4.358109951019287,0.6374591588973999,4.399999999999951
0.5765433311462402,-5.168063640594482,0.48683738708496094,4.40999999999995
0.7201311588287354,-5.52822732925415,0.1293504238128662,4.41999999999995
0.6254040002822876,-5.639049053192139,-0.09750592708587646,4.42999999999995
0.34801554679870605,-5.547719955444336,-0.21164458990097046,4.43999999999995
0.030753612518310547,-5.073169231414795,-0.2816535234451294,4.4499999999999496
-0.4437727928161621,-4.363727569580078,-0.3174135684967041,4.459999999999949
-1.4996757507324219,-3.2340269088745117,-0.07942616939544678,4.469999999999949
-2.1039984226226807,-2.484510898590088,0.15407216548919678,4.479999999999949
-2.495187282562256,-1.9264588356018066,0.6655493974685669,4.489999999999949
-2.538923978805542,-1.6824579238891602,1.007101058959961,4.4999999999999485
-2.4516777992248535,-1.644239902496338,1.140159010887146,4.509999999999948
-2.143279790878296,-2.166196346282959,1.4961460828781128,4.519999999999948
-1.4719003438949585,-3.2315549850463867,2.024193286895752,4.529999999999948
-0.6896712779998779,-3.895399570465088,1.9757360219955444,4.539999999999948
0.3449341058731079,-4.180376052856445,1.7183773517608643,4.549999999999947
1.0952333211898804,-3.89097261428833,1.6041213274002075,4.559999999999947
1.537517786026001,-3.3564887046813965,1.6130845546722412,4.569999999999947
2.097269058227539,-2.5993781089782715,1.5112197399139404,4.579999999999947
2.525475025177002,-1.3132028579711914,1.4109783172607422,4.589999999999947
2.4412500858306885,0.08368396759033203,1.502861499786377,4.599999999999946
2.1077756881713867,1.8791999816894531,1.819349765777588,4.609999999999946
1.7582775354385376,3.301065444946289,2.2076222896575928,4.619999999999946
1.4949043989181519,4.168440818786621,2.4085121154785156,4.629999999999946
0.9674676656723022,4.653083801269531,2.269153594970703,4.6399999999999455
0.45377910137176514,4.64455509185791,2.5357396602630615,4.649999999999945
0.20443272590637207,4.244196891784668,2.95827054977417,4.659999999999945
0.23102104663848877,3.3374404907226562,3.298781156539917,4.669999999999945
0.22647905349731445,2.1089210510253906,3.6172292232513428,4.679999999999945
0.18733012676239014,2.125870704650879,3.566889762878418,4.689999999999944
-0.13714957237243652,-0.6106843948364258,2.9068808555603027,4.699999999999944
-0.26011931896209717,0.2990884780883789,-1.0475822687149048,4.709999999999944
-0.7658599615097046,2.485714912414551,-1.7726523876190186,4.719999999999944
-0.33374500274658203,6.34865665435791,-2.290250062942505,4.729999999999944
0.20597541332244873,9.255047798156738,-2.390361785888672,4.739999999999943
0.5044721364974976,10.113795280456543,-2.919602870941162,4.749999999999943
-1.0752028226852417,7.42387580871582,-3.5914034843444824,4.759999999999943
-4.340411186218262,0.4020833969116211,-5.214568614959717,4.769999999999943
-4.2335896492004395,-3.2069296836853027,-4.80263614654541,4.7799999999999425
-4.078804969787598,-4.00845193862915,-2.5841941833496094,4.789999999999942
-3.223346710205078,-3.185641288757324,-1.035958170890808,4.799999999999942
-1.9948982000350952,-2.152437686920166,-0.8109421730041504,4.809999999999942
-0.30627012252807617,-1.0832748413085938,-1.4506914615631104,4.819999999999942
1.0165259838104248,0.05243110656738281,-2.045832395553589,4.8299999999999415
1.5208642482757568,0.393890380859375,-2.3244590759277344,4.839999999999941
1.1649820804595947,0.12331485748291016,-2.691887855529785,4.849999999999941
0.23160016536712646,-0.4368133544921875,-2.5859861373901367,4.859999999999941
-0.7219668626785278,-0.7815589904785156,-2.124082565307617,4.869999999999941
-1.6092822551727295,-0.7971792221069336,-1.8188291788101196,4.87999999999994
-2.4038658142089844,-0.6844606399536133,-1.6660645008087158,4.88999999999994
-2.6672468185424805,-0.6402378082275391,-1.4131940603256226,4.89999999999994
-2.36569881439209,-1.0821847915649414,-1.2009577751159668,4.90999999999994
-1.9630582332611084,-1.962195873260498,-1.2283200025558472,4.9199999999999395
-1.3782976865768433,-2.828951835632324,-1.37152898311615,4.929999999999939
-0.8630608320236206,-3.226925849914551,-1.3284703493118286,4.939999999999939
-0.24451124668121338,-3.1508331298828125,-1.4472846984863281,4.949999999999939
0.2403125762939453,-2.7112069129943848,-1.2765297889709473,4.959999999999939
0.845460057258606,-2.3360443115234375,-1.0628266334533691,4.9699999999999385
1.5346636772155762,-2.09426212310791,-0.8293899893760681,4.979999999999938
1.9347208738327026,-1.8421134948730469,-0.585405707359314,4.989999999999938
1.9023182392120361,-1.6015701293945312,-0.3053587079048157,4.999999999999938
1.629811406135559,-1.456862449645996,-0.021821796894073486,5.009999999999938
1.3061901330947876,-1.3148975372314453,0.2538954019546509,5.019999999999937
1.1565691232681274,-1.2642040252685547,0.677794873714447,5.029999999999937
1.3527342081069946,-1.3380498886108398,0.8927443027496338,5.039999999999937
1.7241098880767822,-1.2658443450927734,0.7794690132141113,5.049999999999937
1.923056721687317,-0.9275321960449219,0.6092268824577332,5.0599999999999365
1.9137808084487915,-0.7157535552978516,0.4097999334335327,5.069999999999936
1.7768281698226929,-0.7792673110961914,0.22869420051574707,5.079999999999936
1.4542700052261353,-0.8693943023681641,0.4005815386772156,5.089999999999936
1.2021920680999756,-0.6822834014892578,0.5928072333335876,5.099999999999936
1.0417494773864746,-0.04549694061279297,0.6826969385147095,5.1099999999999355
1.0659644603729248,0.7325963973999023,0.8503168821334839,5.119999999999935
1.8460769653320312,1.0041885375976562,1.0933011770248413,5.129999999999935
2.9021291732788086,0.657689094543457,1.2050416469573975,5.139999999999935
3.91795015335083,0.32275390625,1.2037949562072754,5.149999999999935
4.484958648681641,0.3096771240234375,0.9800781011581421,5.159999999999934
4.663966178894043,0.4835023880004883,0.8337262868881226,5.169999999999934
4.684579849243164,0.5113105773925781,0.9526963233947754,5.179999999999934
4.476768970489502,0.4746265411376953,0.8935308456420898,5.189999999999934
3.3414816856384277,1.0369081497192383,1.0824635028839111,5.199999999999934
1.388308048248291,1.973219871520996,-0.9330280423164368,5.209999999999933
-0.1876763105392456,2.841289520263672,-3.2732009887695312,5.219999999999933
-1.1436148881912231,3.268521308898926,-3.0904123783111572,5.229999999999933
-1.9392982721328735,2.879042625427246,-2.7998695373535156,5.239999999999933
-2.5972237586975098,2.0176172256469727,-3.1573076248168945,5.2499999999999325
-2.666555643081665,1.5989704132080078,-3.3820927143096924,5.259999999999932
-2.4710545539855957,2.082901954650879,-3.1895010471343994,5.269999999999932
-2.0941877365112305,3.245846748352051,-2.3359503746032715,5.279999999999932
-1.954845905303955,4.2581787109375,-1.638263463973999,5.289999999999932
-2.1833696365356445,5.133318901062012,-1.4892278909683228,5.299999999999931
-2.1072473526000977,5.794187545776367,-1.1074063777923584,5.309999999999931
-1.991887092590332,6.047319412231445,-0.8696326017379761,5.319999999999931
-2.085308074951172,5.931587219238281,-0.6359107494354248,5.329999999999931
-1.958311676979065,5.079934120178223,-0.37778621912002563,5.339999999999931
-1.619201898574829,3.5890073776245117,-0.3887118101119995,5.34999999999993
-1.3573668003082275,1.7126846313476562,-0.27270036935806274,5.35999999999993
-0.8767210245132446,-0.30472373962402344,0.0912250280380249,5.36999999999993
-0.5052089691162109,-1.6435856819152832,0.25977563858032227,5.37999999999993
-0.11205399036407471,-2.980950355529785,0.450114369392395,5.3899999999999295
0.05980026721954346,-4.15411376953125,0.5680702328681946,5.399999999999929
0.06782329082489014,-4.903092384338379,0.5997490882873535,5.409999999999929
-0.12979614734649658,-5.282157897949219,0.607723593711853,5.419999999999929
-0.4397919178009033,-5.026876449584961,0.4547234773635864,5.429999999999929
-0.7038675546646118,-4.549977779388428,0.3098675012588501,5.4399999999999284
-0.8625044822692871,-3.755845546722412,0.3438103199005127,5.449999999999928
-1.3403699398040771,-3.014819622039795,0.5677201747894287,5.459999999999928
-1.723060131072998,-2.3761162757873535,0.8249754905700684,5.469999999999928
-1.959137201309204,-1.9941139221191406,1.012514352798462,5.479999999999928
-1.8963885307312012,-1.8872547149658203,1.1585744619369507,5.489999999999927
-1.6588488817214966,-2.0862417221069336,1.3007930517196655,5.499999999999927
-1.169134497642517,-2.552597999572754,1.4158892631530762,5.509999999999927
-0.6007382869720459,-3.2268357276916504,1.380063772201538,5.519999999999927
-0.1467750072479248,-3.781348705291748,1.2093499898910522,5.5299999999999265
0.2750192880630493,-3.9076523780822754,1.1290627717971802,5.539999999999926
0.6129233837127686,-3.4477710723876953,1.1424592733383179,5.549999999999926
0.931576132774353,-2.89241886138916,1.1765308380126953,5.559999999999926
1.1598680019378662,-1.9324259757995605,1.209083914756775,5.569999999999926
1.2676615715026855,-0.8238630294799805,1.3339934349060059,5.5799999999999255
1.42149019241333,0.4885673522949219,1.5705097913742065,5.589999999999925
1.5205551385879517,1.674616813659668,1.8060685396194458,5.599999999999925
1.4309664964675903,2.6573524475097656,1.8417997360229492,5.609999999999925
1.1078250408172607,3.0750484466552734,1.7934459447860718,5.619999999999925
0.4271829128265381,3.2753658294677734,1.9760452508926392,5.629999999999924
-0.0888209342956543,3.0943708419799805,2.3964905738830566,5.639999999999924
-0.37262988090515137,2.4548072814941406,2.845829486846924,5.649999999999924
-0.5795766115188599,1.5034265518188477,3.193794012069702,5.659999999999924
-1.1307088136672974,0.3878755569458008,2.859043598175049,5.6699999999999235
-1.801086187362671,0.7555904388427734,-0.523390531539917,5.679999999999923
-2.05268931388855,3.035022735595703,-1.7934188842773438,5.689999999999923
-1.4712488651275635,7.549800872802734,-2.3719887733459473,5.699999999999923
-0.4895361661911011,11.9835205078125,-1.2302377223968506,5.709999999999923
0.8834612369537354,12.590620040893555,0.6963666677474976,5.7199999999999225
-0.7289716005325317,7.908432960510254,-2.1062254905700684,5.729999999999922
-2.5525379180908203,1.2411775588989258,-4.281798362731934,5.739999999999922
-2.64743709564209,-3.153393268585205,-4.883657932281494,5.749999999999922
-2.5339841842651367,-4.678018569946289,-3.431652069091797,5.759999999999922
-2.081526279449463,-4.1713714599609375,-1.8780012130737305,5.769999999999921
-0.774343729019165,-3.4278788566589355,-1.2510008811950684,5.779999999999921
0.5152301788330078,-2.519176959991455,-1.2480928897857666,5.789999999999921
1.0775219202041626,-1.7043704986572266,-1.5395092964172363,5.799999999999921
1.1906739473342896,-0.7533941268920898,-1.7196078300476074,5.809999999999921
0.5448369979858398,-0.05218219757080078,-1.7188347578048706,5.81999999999992
-0.629360556602478,0.3372917175292969,-1.9149246215820312,5.82999999999992
-1.5227727890014648,0.7400112152099609,-1.9798657894134521,5.83999999999992
-2.17441463470459,1.0622587203979492,-1.9137526750564575,5.84999999999992
-2.349721908569336,0.8867969512939453,-1.8440109491348267,5.8599999999999195
-2.295214891433716,0.2781963348388672,-1.6688705682754517,5.869999999999919
-2.180131435394287,-0.5637979507446289,-1.1830463409423828,5.879999999999919
-1.8749511241912842,-1.830904483795166,-1.0215169191360474,5.889999999999919
-1.6035693883895874,-3.0068769454956055,-1.1430611610412598,5.899999999999919
-1.1399469375610352,-3.624739170074463,-1.438218355178833,5.909999999999918
-0.8016805648803711,-3.3682990074157715,-1.5259437561035156,5.919999999999918
-0.3446621894836426,-2.68680477142334,-1.335802435874939,5.929999999999918
0.2834566831588745,-1.9655094146728516,-1.2261238098144531,5.939999999999918
0.953269362449646,-1.4933300018310547,-1.1063677072525024,5.949999999999918
0.9514948129653931,-1.4996833801269531,-1.0400595664978027,5.959999999999917
1.9276007413864136,-1.3283195495605469,-0.7537229061126709,5.969999999999917
1.9306303262710571,-1.3338336944580078,-0.6958003044128418,5.979999999999917
1.689310073852539,-1.454514503479004,-0.14938879013061523,5.989999999999917
1.4918618202209473,-1.5852899551391602,0.08660614490509033,5.9999999999999165
1.3863379955291748,-1.5395517349243164,0.3627152442932129,6.009999999999916
1.5968669652938843,-1.3243989944458008,0.5625507831573486,6.019999999999916
1.918993592262268,-1.0738849639892578,0.5518959164619446,6.029999999999916
2.0333428382873535,-0.9430789947509766,0.4789760112762451,6.039999999999916
2.0114665031433105,-0.9486656188964844,0.3217819929122925,6.0499999999999154
1.7791475057601929,-1.0260963439941406,0.13961464166641235,6.059999999999915
1.3871843814849854,-0.7588348388671875,0.10066241025924683,6.069999999999915
1.0201823711395264,-0.07735157012939453,0.30942830443382263,6.079999999999915
1.043049931526184,0.7219390869140625,0.8896995782852173,6.089999999999915
1.11831533908844,0.9862775802612305,1.1169235706329346,6.099999999999914
1.5637069940567017,0.9579257965087891,1.3045634031295776,6.109999999999914
2.0178608894348145,0.7518796920776367,1.2383475303649902,6.119999999999914
2.5703623294830322,0.5830326080322266,1.0695898532867432,6.129999999999914
3.0437026023864746,0.5945348739624023,0.9638882875442505,6.1399999999999135
3.666779041290283,0.5537509918212891,0.9205126762390137,6.149999999999913
3.8427305221557617,0.5898151397705078,0.9483498334884644,6.159999999999913
3.502577781677246,0.9636716842651367,1.1552197933197021,6.169999999999913
2.3882503509521484,1.9267187118530273,0.6511589288711548,6.179999999999913
1.5229129791259766,3.266267776489258,-2.141437530517578,6.1899999999999125
1.0438249111175537,4.418180465698242,-2.7415542602539062,6.199999999999912
-0.47225522994995117,4.633523941040039,-2.722797393798828,6.209999999999912
-1.2831997871398926,3.8619441986083984,-2.8674404621124268,6.219999999999912
-1.829824447631836,2.3769607543945312,-3.6041789054870605,6.229999999999912
-2.49794340133667,1.600712776184082,-3.535932779312134,6.239999999999911
-3.115145206451416,1.5109758377075195,-2.835829734802246,6.249999999999911
-2.9599199295043945,1.5564556121826172,-1.8841917514801025,6.259999999999911
-2.663064479827881,1.8468246459960938,-1.1683623790740967,6.269999999999911
-2.6337480545043945,2.2592716217041016,-0.784041166305542,6.2799999999999105
-2.7100610733032227,2.9152708053588867,-0.6002451181411743,6.28999999999991
-2.688401460647583,3.4840879440307617,-0.22696414589881897,6.29999999999991
-2.397643804550171,3.611416816711426,-0.06957191228866577,6.30999999999991
-1.8106317520141602,3.3428096771240234,-0.023202598094940186,6.31999999999991
-1.0341805219650269,2.654496192932129,-0.0958508849143982,6.3299999999999095
-1.0636578798294067,2.6650705337524414,-0.15360808372497559,6.339999999999909
0.3668546676635742,0.9567203521728516,-0.16252636909484863,6.349999999999909
0.7706043720245361,-0.025511741638183594,-0.2196129560470581,6.359999999999909
1.17171049118042,-1.0883398056030273,-0.14757990837097168,6.369999999999909
1.4974195957183838,-2.3370471000671387,0.18925833702087402,6.379999999999908
1.2280089855194092,-3.6216063499450684,0.32246172428131104,6.389999999999908
0.7024402618408203,-4.3404035568237305,0.2809431552886963,6.399999999999908
0.16038155555725098,-4.839318752288818,0.3124905824661255,6.409999999999908
-0.3592801094055176,-4.6185479164123535,0.5593280792236328,6.419999999999908
-0.846820592880249,-3.963294506072998,0.8485136032104492,6.429999999999907
-1.6020911931991577,-2.91409969329834,1.198239803314209,6.439999999999907
-2.1116156578063965,-1.893754482269287,1.3638677597045898,6.449999999999907
-2.3046469688415527,-1.2644014358520508,1.4408470392227173,6.459999999999907
-2.417147159576416,-0.8357753753662109,1.5243613719940186,6.4699999999999065
-2.098214626312256,-0.9017333984375,1.5869781970977783,6.479999999999906
-1.8005526065826416,-1.1716384887695312,1.580143928527832,6.489999999999906
-1.4608107805252075,-1.722365379333496,1.5562729835510254,6.499999999999906
-0.8809412717819214,-2.5876903533935547,1.6351088285446167,6.509999999999906
-0.36314165592193604,-3.226654052734375,1.351427435874939,6.519999999999905
0.306331992149353,-3.6544785499572754,0.9439201354980469,6.529999999999905
0.550795316696167,-3.546393394470215,0.8544282913208008,6.539999999999905
0.6922063827514648,-3.125631809234619,0.91133713722229,6.549999999999905
0.7725224494934082,-2.3467493057250977,0.7491745948791504,6.559999999999905
0.6254985332489014,-1.1425590515136719,0.471160888671875,6.569999999999904
0.3868905305862427,-0.0850667953491211,0.5437308549880981,6.579999999999904
-0.046326518058776855,1.0132026672363281,0.5274205207824707,6.589999999999904
-0.5455236434936523,1.7406864166259766,0.6279937028884888,6.599999999999904
-0.7395519018173218,2.0257749557495117,0.787436842918396,6.6099999999999035
-0.729968786239624,2.0155134201049805,0.8433084487915039,6.619999999999903
-0.699338436126709,1.755824089050293,1.2080068588256836,6.629999999999903
-0.4885237216949463,1.3810205459594727,1.5699008703231812,6.639999999999903
-0.09328830242156982,0.769780158996582,1.8269774913787842,6.649999999999903
0.18231868743896484,0.051835060119628906,1.9605894088745117,6.659999999999902
0.1042928695678711,-0.7088422775268555,2.2544193267822266,6.669999999999902
-0.12971675395965576,-1.4279193878173828,2.6165213584899902,6.679999999999902
-0.5936306715011597,-0.8792600631713867,1.921015977859497,6.689999999999902
-0.864129900932312,1.1366767883300781,-1.329204797744751,6.699999999999902
-1.2213430404663086,6.045356750488281,-3.315258502960205,6.709999999999901
-1.5724222660064697,12.63891315460205,-3.128464937210083,6.719999999999901
-0.9561930894851685,16.223901748657227,-0.5607147216796875,6.729999999999901
0.41478657722473145,14.86723518371582,-1.0115605592727661,6.739999999999901
-2.396232843399048,5.518584251403809,-4.026253700256348,6.7499999999999005
-3.19059681892395,-1.383775234222412,-5.162784576416016,6.7599999999999
-2.5083489418029785,-5.51251220703125,-4.301586151123047,6.7699999999999
-1.898255705833435,-5.74083137512207,-2.399284839630127,6.7799999999999
-0.5743685960769653,-4.199721336364746,-1.2023943662643433,6.7899999999999
0.7148997783660889,-2.539196014404297,-1.0091406106948853,6.7999999999998995
0.6132636070251465,-1.029296875,-1.4778876304626465,6.809999999999899
0.09076714515686035,-0.087005615234375,-1.4772155284881592,6.819999999999899
-0.49455344676971436,0.49753475189208984,-1.6613999605178833,6.829999999999899
-1.1750307083129883,0.6443395614624023,-2.132753610610962,6.839999999999899
-2.24204683303833,0.9612722396850586,-2.109356641769409,6.849999999999898
-3.109449863433838,1.2934303283691406,-1.7070056200027466,6.859999999999898
-3.3411948680877686,1.3689680099487305,-1.5504454374313354,6.869999999999898
-2.847233295440674,0.8879051208496094,-1.726599097251892,6.879999999999898
-2.1357715129852295,0.20957374572753906,-1.8487986326217651,6.8899999999998975
-1.531367540359497,-0.22781944274902344,-1.997348427772522,6.899999999999897
-1.0317769050598145,-0.4815196990966797,-2.017444133758545,6.909999999999897
-0.7781124114990234,-0.6804256439208984,-1.829007625579834,6.919999999999897
-0.5038249492645264,-0.8140878677368164,-1.6700798273086548,6.929999999999897
-0.20291376113891602,-0.8187437057495117,-1.5778825283050537,6.9399999999998965
0.20984125137329102,-0.7760353088378906,-1.3365545272827148,6.949999999999896
0.7138943672180176,-0.6810321807861328,-1.0384706258773804,6.959999999999896
1.1715171337127686,-0.648472785949707,-0.8745175004005432,6.969999999999896
1.3929708003997803,-0.766942024230957,-0.7624176740646362,6.979999999999896
1.3518710136413574,-0.9285564422607422,-0.5762122869491577,6.989999999999895
1.221440076828003,-1.094883918762207,-0.4403199553489685,6.999999999999895
1.1432379484176636,-1.318497657775879,-0.34427791833877563,7.009999999999895
1.0335712432861328,-1.3934078216552734,-0.33438754081726074,7.019999999999895
0.9867235422134399,-1.3245868682861328,-0.2962110638618469,7.0299999999998946
0.9458807706832886,-1.2172889709472656,-0.1953214406967163,7.039999999999894
0.8849663734436035,-0.9687013626098633,0.14110338687896729,7.049999999999894
0.8231112957000732,-0.8208236694335938,0.34856414794921875,7.059999999999894
0.7731646299362183,-0.8167543411254883,0.3820216655731201,7.069999999999894
0.7263885736465454,-0.9062786102294922,0.3020496368408203,7.0799999999998935
0.7298482656478882,-1.0414934158325195,0.39467763900756836,7.089999999999893
0.7495614290237427,-1.197871208190918,0.3255060911178589,7.099999999999893
0.7897413969039917,-1.3131208419799805,0.16183578968048096,7.109999999999893
0.824923038482666,-1.3968925476074219,0.12192404270172119,7.119999999999893
0.9698948860168457,-1.5158843994140625,-0.023517727851867676,7.129999999999892
1.1873083114624023,-1.4854726791381836,-0.2101355791091919,7.139999999999892
1.3520454168319702,-1.3083667755126953,-0.395094633102417,7.149999999999892
1.3867632150650024,-1.030538558959961,-0.3543301820755005,7.159999999999892
1.386060357093811,-0.7360391616821289,-0.40094053745269775,7.169999999999892
1.1121147871017456,-0.5564985275268555,-0.4012133479118347,7.179999999999891
0.2361375093460083,-0.1998434066772461,0.09282171726226807,7.189999999999891
-0.9851359724998474,0.06346607208251953,-0.5519422292709351,7.199999999999891
-1.7776144742965698,0.38167476654052734,-1.0594414472579956,7.209999999999891
-2.2368950843811035,0.8755941390991211,-0.7912558317184448,7.2199999999998905
-2.6648201942443848,1.7084932327270508,-2.9909205436706543,7.22999999999989
-2.8395957946777344,2.9567394256591797,-3.799161434173584,7.23999999999989
-2.6104705333709717,4.365320205688477,-2.810511589050293,7.24999999999989
-1.8935120105743408,4.709663391113281,-2.327249765396118,7.25999999999989
-1.6390725374221802,4.461189270019531,-1.1185367107391357,7.269999999999889
-1.8795039653778076,4.066716194152832,-0.2818758487701416,7.279999999999889
-1.8739421367645264,3.4319000244140625,-0.6071716547012329,7.289999999999889
-1.9348866939544678,3.447218894958496,-0.6360576152801514,7.299999999999889
-1.3049824237823486,3.0588388442993164,-0.6785276532173157,7.309999999999889
-0.6185120344161987,2.759463310241699,-0.6048681139945984,7.319999999999888
0.004970550537109375,2.5408811569213867,-0.9331893920898438,7.329999999999888
0.49386119842529297,2.3944501876831055,-1.2242698669433594,7.339999999999888
0.5688505172729492,1.9530153274536133,-1.1123114824295044,7.349999999999888
0.5209879875183105,1.4926557540893555,-0.7791029214859009,7.3599999999998875
0.19472265243530273,0.7915420532226562,-0.2512582540512085,7.369999999999887
-0.326312780380249,-0.0755167007446289,0.20806968212127686,7.379999999999887
-0.8387265205383301,-1.057551383972168,0.227264404296875,7.389999999999887
-1.2331422567367554,-1.9011402130126953,0.023397088050842285,7.399999999999887
-1.6926716566085815,-2.359496593475342,0.07910716533660889,7.4099999999998865
-1.721041202545166,-2.6308445930480957,0.2686971426010132,7.419999999999886
-1.664034128189087,-2.760456085205078,0.3980903625488281,7.429999999999886
-1.600398063659668,-2.5784077644348145,0.36412739753723145,7.439999999999886
-1.5966496467590332,-2.1109142303466797,0.2780759334564209,7.449999999999886
-1.7019526958465576,-1.5514845848083496,0.22519338130950928,7.459999999999885
-1.8089380264282227,-1.2871532440185547,0.08462870121002197,7.469999999999885
-1.9450879096984863,-1.2881689071655273,-0.07566368579864502,7.479999999999885
-2.041109800338745,-1.3644886016845703,-0.37066686153411865,7.489999999999885
-1.9390389919281006,-1.4673757553100586,-0.7307729125022888,7.4999999999998845
-1.9234211444854736,-1.552903652191162,-1.0148460865020752,7.509999999999884
-1.6325443983078003,-1.4377975463867188,-1.0402133464813232,7.519999999999884
-1.430631399154663,-0.4719533920288086,-0.8932628035545349,7.529999999999884
-1.2948486804962158,1.0960111618041992,-0.9500667452812195,7.539999999999884
-1.184564471244812,3.2294158935546875,-0.8981080055236816,7.5499999999998835
-0.42858994007110596,4.076544761657715,-0.10922658443450928,7.559999999999883
0.014481067657470703,4.064614295959473,0.6200141906738281,7.569999999999883
0.6613290309906006,3.498406410217285,-0.007465720176696777,7.579999999999883
1.034271240234375,2.101515769958496,-0.7068269848823547,7.589999999999883
0.6438655853271484,0.9185476303100586,-1.3443020582199097,7.599999999999882
0.6130256652832031,0.926722526550293,-1.3519697189331055,7.609999999999882
0.24866294860839844,-1.4869370460510254,-1.4454704523086548,7.619999999999882
0.01792740821838379,-2.1018738746643066,-1.3066447973251343,7.629999999999882
-0.2741703987121582,-1.7117156982421875,-1.3310734033584595,7.6399999999998816
-0.8642317056655884,0.07692146301269531,-1.604034662246704,7.649999999999881
-1.1487438678741455,1.0709114074707031,-1.5910038948059082,7.659999999999881
-1.1733527183532715,1.2650957107543945,-1.3994513750076294,7.669999999999881
-1.0635913610458374,0.5393123626708984,-1.0413296222686768,7.679999999999881
-1.1922413110733032,0.04611968994140625,-1.1384282112121582,7.6899999999998805
-1.7283614873886108,-0.1775798797607422,-1.1241459846496582,7.69999999999988
-2.294512987136841,-0.5930013656616211,-0.9079816937446594,7.70999999999988
-2.436548948287964,-0.7488498687744141,-0.9164597988128662,7.71999999999988
-2.2432894706726074,-0.35019683837890625,-0.9156541228294373,7.72999999999988
-2.200861930847168,0.5355167388916016,-0.955316960811615,7.739999999999879
-1.728667140007019,0.9014463424682617,-0.9364511370658875,7.749999999999879
-1.2318520545959473,0.8159618377685547,-1.1166884899139404,7.759999999999879
-1.0186686515808105,0.8731498718261719,-1.1056089401245117,7.769999999999879
-0.8233956098556519,0.6727657318115234,-0.8637893199920654,7.779999999999879
0.10791993141174316,-0.4868955612182617,-0.5602281093597412,7.789999999999878
-0.6497664451599121,0.6732816696166992,-0.6042494773864746,7.799999999999878
0.606001615524292,0.6246843338012695,-0.6088777184486389,7.809999999999878
0.23383474349975586,0.7469940185546875,-1.16107177734375,7.819999999999878
1.20109224319458,0.19202136993408203,-0.5072157382965088,7.8299999999998775
0.6615204811096191,-0.4591531753540039,-0.6895004510879517,7.839999999999877
1.0294020175933838,-0.600285530090332,0.015299677848815918,7.849999999999877
1.2590606212615967,-0.7014989852905273,-0.38531994819641113,7.859999999999877
1.1312503814697266,-0.8208961486816406,-0.13132989406585693,7.869999999999877
1.071183204650879,-0.5532684326171875,0.09492599964141846,7.879999999999876
0.6578764915466309,-0.04723548889160156,-0.16086232662200928,7.889999999999876
0.4861021041870117,0.2282724380493164,-0.1472088098526001,7.899999999999876
-0.022344350814819336,0.4636058807373047,-6.818771362304688E-4,7.909999999999876
-0.5059151649475098,-0.3061332702636719,0.10629057884216309,7.919999999999876
-0.17147505283355713,0.5100536346435547,0.3939518928527832,7.929999999999875
-0.23921453952789307,0.7301387786865234,-0.06841278076171875,7.939999999999875
-0.12835276126861572,0.3298349380493164,0.06130814552307129,7.949999999999875
-0.1493309736251831,0.28960227966308594,-0.08899927139282227,7.959999999999875
-0.14950335025787354,0.1654796600341797,-0.1213231086730957,7.9699999999998745
0.01906609535217285,-0.025598526000976562,-0.20377075672149658,7.979999999999874
0.05400800704956055,-0.05619049072265625,0.002545475959777832,7.989999999999874
