AccX,AccY,AccZ,SampleRate
1.0521236658096313,-1.9266295433044434,1.190464735031128,0
1.097894549369812,-1.8974661827087402,0.9862073659896851,0.01
1.1854618787765503,-1.7245402336120605,0.9153834581375122,0.02
1.2570915222167969,-1.5036802291870117,0.7465720176696777,0.03
1.2244586944580078,-1.306631088256836,0.4948229193687439,0.04
1.219281554222107,-1.202596664428711,0.3814140558242798,0.05
1.1291835308074951,-1.0096244812011719,0.3356892168521881,0.060000000000000005
0.9565024971961975,-0.9955511093139648,0.14974898099899292,0.07
0.7972670197486877,-1.0117683410644531,0.15655910968780518,0.08
0.6037814617156982,-0.9792232513427734,0.26766127347946167,0.09
0.2947236895561218,-0.905095100402832,0.3965797424316406,0.09999999999999999
0.04236340522766113,-0.775050163269043,0.6959389448165894,0.10999999999999999
-0.05033355951309204,-0.5771255493164062,1.0529097318649292,0.11999999999999998
-0.08871495723724365,-0.21574974060058594,1.5314891338348389,0.12999999999999998
-0.06550383567810059,0.21083450317382812,2.0543136596679688,0.13999999999999999
-0.035536885261535645,0.6738224029541016,2.5296645164489746,0.15
0.11143457889556885,1.0726356506347656,2.8535308837890625,0.16
0.370697021484375,1.390411376953125,2.9575388431549072,0.17
0.658534049987793,1.6341619491577148,2.8905508518218994,0.18000000000000002
1.1187564134597778,1.6603078842163086,2.818875789642334,0.19000000000000003
1.246208906173706,1.9469642639160156,2.6743102073669434,0.20000000000000004
1.3463716506958008,2.2304468154907227,2.60695481300354,0.21000000000000005
1.2839601039886475,2.4555015563964844,2.6814141273498535,0.22000000000000006
1.23457670211792,2.767881393432617,2.802635431289673,0.23000000000000007
1.3193377256393433,3.0884904861450195,2.8923568725585938,0.24000000000000007
1.6744167804718018,3.2642784118652344,2.9222235679626465,0.25000000000000006
2.230530023574829,3.2452001571655273,2.8611855506896973,0.26000000000000006
2.7774152755737305,3.191591262817383,2.6275460720062256,0.2700000000000001
3.2482070922851562,3.15828800201416,2.266252040863037,0.2800000000000001
3.661777973175049,3.2191877365112305,1.8631542921066284,0.2900000000000001
4.017689228057861,3.4242610931396484,1.485316514968872,0.3000000000000001
4.267158031463623,3.553365707397461,1.2867244482040405,0.3100000000000001
4.397345542907715,3.609189033508301,1.3813436031341553,0.3200000000000001
4.496246814727783,3.5204057693481445,1.6512593030929565,0.3300000000000001
4.537367820739746,3.3926563262939453,2.016357183456421,0.34000000000000014
4.235874176025391,3.3862485885620117,2.3600127696990967,0.35000000000000014
3.7595996856689453,3.3718700408935547,2.670088768005371,0.36000000000000015
3.267451286315918,3.433304786682129,3.0706663131713867,0.37000000000000016
2.6263370513916016,3.410379409790039,3.5471839904785156,0.38000000000000017
1.9927078485488892,3.3175811767578125,3.9507551193237305,0.3900000000000002
1.3844935894012451,3.2123565673828125,4.177550792694092,0.4000000000000002
0.6925849318504333,3.161423683166504,4.19002628326416,0.4100000000000002
0.013624310493469238,3.236140251159668,3.9695115089416504,0.4200000000000002
-0.5631847381591797,3.3739633560180664,3.5767292976379395,0.4300000000000002
-0.9950590133666992,3.488621711730957,3.1426398754119873,0.4400000000000002
-1.1959384679794312,3.4103879928588867,2.6978416442871094,0.45000000000000023
-0.9908431768417358,3.1323394775390625,2.2675013542175293,0.46000000000000024
-0.4729956388473511,2.4992570877075195,1.8619046211242676,0.47000000000000025
0.17328011989593506,1.6431427001953125,1.5204700231552124,0.48000000000000026
0.9286021590232849,0.9158563613891602,1.0077084302902222,0.49000000000000027
1.4956039190292358,0.14280223846435547,0.2941596508026123,0.5000000000000002
1.6983397006988525,-0.9961109161376953,-0.5074291229248047,0.5100000000000002
1.8785204887390137,-1.9357247352600098,-1.2942466735839844,0.5200000000000002
1.8402786254882812,-2.599475860595703,-1.7892444133758545,0.5300000000000002
1.609241008758545,-2.843724250793457,-2.0477728843688965,0.5400000000000003
1.3610987663269043,-2.7322421073913574,-1.947580099105835,0.5500000000000003
1.270638346672058,-2.3929624557495117,-1.879741907119751,0.5600000000000003
1.2167017459869385,-1.2438182830810547,-1.8893753290176392,0.5700000000000003
0.7326216101646423,0.8414173126220703,-1.748663306236267,0.5800000000000003
0.34563666582107544,2.500430107116699,-1.3745092153549194,0.5900000000000003
0.28547465801239014,3.517416000366211,-1.2602341175079346,0.6000000000000003
0.4509248733520508,4.157493591308594,-1.5831592082977295,0.6100000000000003
0.49429476261138916,4.614035606384277,-2.1083714962005615,0.6200000000000003
0.2278519868850708,4.865413665771484,-2.712838649749756,0.6300000000000003
0.12066221237182617,4.766613006591797,-2.9896183013916016,0.6400000000000003
-0.2099909782409668,4.916413307189941,-2.7236146926879883,0.6500000000000004
-1.0630550384521484,5.402981758117676,-2.0635600090026855,0.6600000000000004
-2.3638057708740234,5.974521636962891,-1.1648049354553223,0.6700000000000004
-3.6030611991882324,6.468027114868164,-0.46046459674835205,0.6800000000000004
-4.083427429199219,6.620416641235352,-0.16152119636535645,0.6900000000000004
-3.933732509613037,6.336400985717773,-0.1754082441329956,0.7000000000000004
-3.7397959232330322,5.898624420166016,-0.34280455112457275,0.7100000000000004
-3.718904733657837,5.496211051940918,-0.4809303283691406,0.7200000000000004
-3.8796021938323975,5.033492088317871,-0.5953934192657471,0.7300000000000004
-4.024115562438965,4.6013898849487305,-0.6839330196380615,0.7400000000000004
-4.155275821685791,4.326519012451172,-0.6863548755645752,0.7500000000000004
-4.105484485626221,4.1368408203125,-0.6450120210647583,0.7600000000000005
-3.8523921966552734,3.946051597595215,-0.6450674533843994,0.7700000000000005
-3.5839505195617676,3.6295318603515625,-0.7520592212677002,0.7800000000000005
-3.2067692279815674,3.2873764038085938,-0.9380965232849121,0.7900000000000005
-2.6082637310028076,2.8069400787353516,-1.2072067260742188,0.8000000000000005
-1.90834641456604,2.5658273696899414,-1.8545894622802734,0.8100000000000005
-1.33476984500885,2.740964889526367,-3.014734983444214,0.8200000000000005
-0.4448475241661072,2.4506702423095703,-3.9323925971984863,0.8300000000000005
0.5429806113243103,1.8518905639648438,-5.4804840087890625,0.8400000000000005
1.0756776332855225,1.3317527770996094,-7.227964401245117,0.8500000000000005
0.9893393516540527,0.7204990386962891,-8.448169708251953,0.8600000000000005
0.7354156970977783,0.24425697326660156,-9.171967506408691,0.8700000000000006
0.3866676986217499,-0.0710439682006836,-8.83067512512207,0.8800000000000006
0.5904853940010071,-0.553309440612793,-7.968188285827637,0.8900000000000006
1.1915171146392822,-0.9601612091064453,-7.064774513244629,0.9000000000000006
1.711783766746521,-1.358170509338379,-6.255181312561035,0.9100000000000006
1.7279112339019775,-1.47505521774292,-5.791933059692383,0.9200000000000006
1.7383744716644287,-1.6685256958007812,-5.325469017028809,0.9300000000000006
2.059008836746216,-1.9395675659179688,-4.977758407592773,0.9400000000000006
2.062328577041626,-2.4230146408081055,-4.744060516357422,0.9500000000000006
1.81327223777771,-2.837034225463867,-5.070147514343262,0.9600000000000006
1.2973867654800415,-3.1628708839416504,-5.2903876304626465,0.9700000000000006
0.14405953884124756,-3.4173736572265625,-5.577392101287842,0.9800000000000006
0.46769556403160095,-4.386169910430908,-6.5809454917907715,0.9900000000000007
0.49993446469306946,-5.152874946594238,-6.234053134918213,1.0000000000000007
0.5222206115722656,-5.541630744934082,-5.761479377746582,1.0100000000000007
0.6445033550262451,-5.6351799964904785,-5.298243999481201,1.0200000000000007
1.0135915279388428,-5.513138771057129,-5.0925068855285645,1.0300000000000007
0.7690117955207825,-5.28369140625,-5.657641887664795,1.0400000000000007
-0.15220093727111816,-5.499147415161133,-4.601486682891846,1.0500000000000007
-0.4093351364135742,-5.474100112915039,-3.8757548332214355,1.0600000000000007
-0.7899014949798584,-5.415157794952393,-3.60139799118042,1.0700000000000007
-1.0928181409835815,-5.557043075561523,-3.4548869132995605,1.0800000000000007
-1.1341602802276611,-5.799145221710205,-3.249768018722534,1.0900000000000007
-1.2182443141937256,-5.966806411743164,-3.1417884826660156,1.1000000000000008
-1.3605167865753174,-6.119941711425781,-2.901609182357788,1.1100000000000008
-1.4806170463562012,-6.296905994415283,-2.4793686866760254,1.1200000000000008
-1.533468246459961,-6.485527038574219,-2.1506214141845703,1.1300000000000008
-1.66973078250885,-6.680472373962402,-2.047461986541748,1.1400000000000008
-1.8989982604980469,-6.759480953216553,-2.038435220718384,1.1500000000000008
-2.0755410194396973,-6.691248416900635,-2.0186092853546143,1.1600000000000008
-2.108736515045166,-6.544700622558594,-2.0245656967163086,1.1700000000000008
-1.9774527549743652,-6.541446685791016,-2.0741240978240967,1.1800000000000008
-1.818320631980896,-6.3984575271606445,-2.1011312007904053,1.1900000000000008
-1.7794501781463623,-6.182404518127441,-1.952951192855835,1.2000000000000008
-1.9086809158325195,-5.847654819488525,-1.7925901412963867,1.2100000000000009
-1.8857471942901611,-5.413380146026611,-1.3593311309814453,1.2200000000000009
-1.82558012008667,-4.900951385498047,-0.8567967414855957,1.2300000000000009
-1.8213578462600708,-4.197482109069824,-0.38131141662597656,1.2400000000000009
-1.7077256441116333,-3.29990816116333,0.10662841796875,1.2500000000000009
-1.686954379081726,-2.228884696960449,0.5433964729309082,1.260000000000001
-1.5921690464019775,-0.9473786354064941,1.0752906799316406,1.270000000000001
-1.517107605934143,0.40038108825683594,1.5792841911315918,1.280000000000001
-1.4406193494796753,2.046243667602539,2.2417702674865723,1.290000000000001
-1.391104817390442,4.005921363830566,3.185408592224121,1.300000000000001
-1.4718877077102661,5.831230163574219,4.277639389038086,1.310000000000001
-1.6714307069778442,7.310703277587891,4.775449752807617,1.320000000000001
-2.0327296257019043,8.212839126586914,4.732285022735596,1.330000000000001
-2.6926026344299316,8.445651054382324,4.608405590057373,1.340000000000001
-3.178046226501465,8.605524063110352,4.8780388832092285,1.350000000000001
-3.4277102947235107,8.979293823242188,5.214816093444824,1.360000000000001
-3.604879379272461,9.338888168334961,5.435123443603516,1.370000000000001
-3.6817703247070312,9.159708023071289,5.47099494934082,1.380000000000001
-3.4082353115081787,8.168774604797363,5.33365535736084,1.390000000000001
-2.962131977081299,6.770041465759277,5.108708381652832,1.400000000000001
-2.5462045669555664,5.343027114868164,4.860538482666016,1.410000000000001
-2.062849521636963,3.958599090576172,4.624533176422119,1.420000000000001
-1.552403211593628,2.6928319931030273,4.461445331573486,1.430000000000001
-1.146026611328125,1.7176427841186523,4.4886555671691895,1.440000000000001
-0.760063648223877,0.8867826461791992,4.665231704711914,1.450000000000001
-0.37329769134521484,-0.07742118835449219,4.787872314453125,1.460000000000001
0.2414463758468628,-1.2802715301513672,4.675539970397949,1.470000000000001
0.7089443802833557,-2.549830436706543,4.3466572761535645,1.480000000000001
1.0426478385925293,-3.6973042488098145,3.7163684368133545,1.490000000000001
0.8444898128509521,-4.285303592681885,2.940958023071289,1.500000000000001
0.24786889553070068,-4.142514705657959,2.1002938747406006,1.5100000000000011
-0.44938230514526367,-3.4591903686523438,1.3678913116455078,1.5200000000000011
-0.8433990478515625,-2.471027374267578,0.7832412719726562,1.5300000000000011
-1.005202054977417,-1.382608413696289,0.20911502838134766,1.5400000000000011
-0.9008976221084595,-0.331298828125,-0.3361845016479492,1.5500000000000012
-0.8579483032226562,0.8808021545410156,-0.8757205009460449,1.5600000000000012
-0.9150525331497192,2.270298957824707,-1.397489309310913,1.5700000000000012
-1.051756739616394,3.7233619689941406,-2.1853904724121094,1.5800000000000012
-1.4673776626586914,5.024662017822266,-3.2650628089904785,1.5900000000000012
-1.932106375694275,6.129365921020508,-4.381078720092773,1.6000000000000012
-2.6820855140686035,7.137979507446289,-5.310703277587891,1.6100000000000012
-3.426804780960083,8.047032356262207,-5.936850070953369,1.6200000000000012
-3.8382365703582764,8.58689022064209,-6.387312889099121,1.6300000000000012
-3.8303685188293457,8.578900337219238,-6.271057605743408,1.6400000000000012
-3.5689897537231445,8.15976619720459,-5.689662933349609,1.6500000000000012
-3.227846384048462,6.953564643859863,-5.335725784301758,1.6600000000000013
-2.8743910789489746,5.002497673034668,-5.847741603851318,1.6700000000000013
-2.4885809421539307,2.7594261169433594,-6.230267524719238,1.6800000000000013
-2.5824081897735596,0.5403470993041992,-6.53204870223999,1.6900000000000013
-2.8774945735931396,-1.421964168548584,-7.198868751525879,1.7000000000000013
-3.0474750995635986,-2.958786964416504,-7.454017162322998,1.7100000000000013
-2.7209129333496094,-4.001515865325928,-7.335803031921387,1.7200000000000013
-2.077582359313965,-4.54086446762085,-7.098418712615967,1.7300000000000013
-1.327972650527954,-4.8229265213012695,-6.934627532958984,1.7400000000000013
-0.7936266660690308,-4.861573696136475,-6.511190891265869,1.7500000000000013
-0.4405512809753418,-4.740223407745361,-5.946998596191406,1.7600000000000013
-0.10630953311920166,-4.468479633331299,-5.254709243774414,1.7700000000000014
0.31382280588150024,-3.9675889015197754,-4.312771320343018,1.7800000000000014
0.9371424913406372,-3.158733367919922,-3.4949440956115723,1.7900000000000014
1.604119896888733,-2.018177032470703,-2.918416738510132,1.8000000000000014
2.170638084411621,-0.8542985916137695,-2.6552844047546387,1.8100000000000014
2.5614609718322754,0.0350189208984375,-2.7931535243988037,1.8200000000000014
2.483212947845459,0.5028953552246094,-3.218291759490967,1.8300000000000014
2.2050724029541016,0.6630172729492188,-3.907341480255127,1.8400000000000014
2.0114359855651855,0.7320718765258789,-4.682896614074707,1.8500000000000014
1.7165343761444092,0.7900505065917969,-5.363853454589844,1.8600000000000014
1.4122848510742188,0.6581239700317383,-5.86230993270874,1.8700000000000014
1.34122633934021,0.8699254989624023,-6.242618083953857,1.8800000000000014
1.4415371417999268,1.1382989883422852,-6.636842250823975,1.8900000000000015
1.717031478881836,1.3006258010864258,-7.124688625335693,1.9000000000000015
1.5508718490600586,1.631474494934082,-7.06583309173584,1.9100000000000015
1.1126434803009033,1.9241361618041992,-6.478801250457764,1.9200000000000015
0.6458348035812378,2.043583869934082,-4.829140663146973,1.9300000000000015
0.673366367816925,1.9789419174194336,-1.0962637662887573,1.9400000000000015
0.6038578748703003,1.5644292831420898,2.854323625564575,1.9500000000000015
0.3863927721977234,1.2026443481445312,3.322938919067383,1.9600000000000015
0.5589766502380371,0.9040164947509766,2.388784408569336,1.9700000000000015
0.7052690982818604,0.4896211624145508,1.9564273357391357,1.9800000000000015
0.5588042736053467,0.045706748962402344,1.7037737369537354,1.9900000000000015
0.3818426728248596,-0.5044307708740234,1.516869068145752,2.0000000000000013
0.5568704605102539,-0.9815845489501953,1.4225797653198242,2.010000000000001
0.8860762119293213,-1.4528942108154297,1.4075121879577637,2.020000000000001
1.037609577178955,-1.6841678619384766,1.3416810035705566,2.0300000000000007
0.9903514385223389,-1.7906208038330078,1.1912193298339844,2.0400000000000005
0.7706303596496582,-1.722334861755371,0.9174768924713135,2.0500000000000003
0.61350417137146,-1.8501486778259277,0.6438984870910645,2.06
0.501039981842041,-1.936981201171875,0.2779386043548584,2.07
0.3559539318084717,-1.8368496894836426,-0.06067997217178345,2.0799999999999996
0.2271748185157776,-1.7674684524536133,-0.12576259672641754,2.0899999999999994
0.06245136260986328,-1.549428939819336,0.08457940816879272,2.099999999999999
-0.10702383518218994,-1.068136215209961,0.6074821352958679,2.109999999999999
-0.013228416442871094,-0.8021373748779297,1.4719082117080688,2.1199999999999988
0.04868346452713013,-0.9449100494384766,1.9946846961975098,2.1299999999999986
0.38931071758270264,-1.3764019012451172,2.1235668659210205,2.1399999999999983
0.7069962024688721,-1.6706342697143555,1.8004868030548096,2.149999999999998
1.1771485805511475,-1.9448719024658203,1.6115082502365112,2.159999999999998
1.5154320001602173,-2.1130213737487793,1.4872634410858154,2.1699999999999977
1.774436593055725,-2.12740421295166,1.444554090499878,2.1799999999999975
1.5732934474945068,-1.8687481880187988,1.293803334236145,2.1899999999999973
1.5387585163116455,-1.7128686904907227,0.9552842974662781,2.199999999999997
1.785540223121643,-1.738530158996582,0.8552123308181763,2.209999999999997
1.7340333461761475,-1.6610116958618164,0.5704808235168457,2.2199999999999966
1.7283668518066406,-1.5641698837280273,0.25949007272720337,2.2299999999999964
1.7040348052978516,-1.323683738708496,-0.08972007036209106,2.239999999999996
1.6204884052276611,-1.0496950149536133,-0.2902575731277466,2.249999999999996
1.3943207263946533,-0.7469158172607422,-0.27896249294281006,2.259999999999996
1.20243501663208,-0.5443916320800781,-0.12172126770019531,2.2699999999999956
1.0065470933914185,-0.41793346405029297,0.11563855409622192,2.2799999999999954
0.7538048028945923,-0.3864164352416992,0.46763548254966736,2.289999999999995
0.6118206977844238,-0.40173912048339844,0.8342028856277466,2.299999999999995
0.523249089717865,-0.43979454040527344,1.2583584785461426,2.3099999999999947
0.3926742672920227,-0.34981727600097656,1.6606266498565674,2.3199999999999945
0.28240156173706055,-0.1175851821899414,2.0784902572631836,2.3299999999999943
0.202151358127594,0.2447805404663086,2.4823572635650635,2.339999999999994
0.19558918476104736,0.5793142318725586,2.8591723442077637,2.349999999999994
0.23932337760925293,0.8381805419921875,3.171849250793457,2.3599999999999937
0.3000514507293701,1.0046329498291016,3.3883068561553955,2.3699999999999934
0.46614938974380493,1.1096525192260742,3.4523322582244873,2.3799999999999932
0.7182234525680542,1.2080154418945312,3.3960976600646973,2.389999999999993
1.0777233839035034,1.2563695907592773,3.290031909942627,2.399999999999993
1.5640051364898682,1.1756095886230469,3.2788798809051514,2.4099999999999926
1.7311711311340332,1.4317474365234375,3.2157716751098633,2.4199999999999924
1.7815759181976318,1.8159809112548828,3.229614496231079,2.429999999999992
1.8816523551940918,2.335062026977539,3.272599697113037,2.439999999999992
1.9612419605255127,2.821300506591797,3.275754928588867,2.4499999999999917
2.1080470085144043,3.1478567123413086,3.272965669631958,2.4599999999999915
2.4270436763763428,3.3484134674072266,3.1644020080566406,2.4699999999999913
2.849071741104126,3.5378522872924805,2.983543634414673,2.479999999999991
3.228431224822998,3.653933525085449,2.7756540775299072,2.489999999999991
3.5794177055358887,3.7373123168945312,2.6507294178009033,2.4999999999999907
3.6812314987182617,3.840470314025879,2.5585579872131348,2.5099999999999905
3.671914577484131,3.9489898681640625,2.561933755874634,2.5199999999999902
3.6656880378723145,4.039070129394531,2.6714229583740234,2.52999999999999
3.6166326999664307,4.065578460693359,2.8382973670959473,2.53999999999999
3.522273063659668,3.978652000427246,2.9992318153381348,2.5499999999999896
3.2799415588378906,3.874239921569824,3.083169460296631,2.5599999999999894
2.839824914932251,3.7236557006835938,3.1569294929504395,2.569999999999989
2.389583110809326,3.507831573486328,3.2342092990875244,2.579999999999989
2.1579909324645996,3.303438186645508,3.2949881553649902,2.5899999999999888
1.7585749626159668,3.1413936614990234,3.2493138313293457,2.5999999999999885
1.2756972312927246,3.1361083984375,3.0573058128356934,2.6099999999999883
0.8122605681419373,3.2080726623535156,2.7435760498046875,2.619999999999988
0.3057621717453003,3.2014331817626953,2.3306996822357178,2.629999999999988
-0.011526226997375488,3.1209421157836914,1.996957778930664,2.6399999999999877
-0.22561132907867432,2.8973188400268555,1.7101861238479614,2.6499999999999875
-0.25282561779022217,2.5163679122924805,1.4764405488967896,2.6599999999999873
-0.11498427391052246,2.085831642150879,1.1842567920684814,2.669999999999987
0.3860936164855957,1.4814634323120117,0.7605099678039551,2.679999999999987
0.9126154184341431,0.9858484268188477,0.1709376573562622,2.6899999999999866
1.198540449142456,0.12599658966064453,-0.4206806421279907,2.6999999999999864
1.210529088973999,-0.5565700531005859,-1.0420039892196655,2.709999999999986
0.955479621887207,-1.3843460083007812,-1.4079817533493042,2.719999999999986
0.8679323792457581,-1.8619122505187988,-1.462937355041504,2.7299999999999858
1.0268102884292603,-1.967414379119873,-1.0876123905181885,2.7399999999999856
1.1176575422286987,-1.5805034637451172,-0.5520898103713989,2.7499999999999853
1.094550371170044,-0.8775463104248047,-0.2205408215522766,2.759999999999985
0.8835248351097107,0.7107000350952148,-0.30463317036628723,2.769999999999985
0.6365321278572083,2.6356630325317383,-0.5860164761543274,2.7799999999999847
0.5154426693916321,3.9162044525146484,-0.8176405429840088,2.7899999999999845
0.671142041683197,4.74383544921875,-1.197954535484314,2.7999999999999843
1.1030230522155762,4.870318412780762,-2.0058820247650146,2.809999999999984
1.2070817947387695,4.9348249435424805,-2.4318649768829346,2.819999999999984
0.8962721228599548,5.056867599487305,-2.596395969390869,2.8299999999999836
0.09668707847595215,5.0495805740356445,-2.5906996726989746,2.8399999999999834
-0.8248515129089355,5.058754920959473,-2.316567897796631,2.849999999999983
-1.7687747478485107,5.153606414794922,-1.910451889038086,2.859999999999983
-2.6160874366760254,5.432086944580078,-1.449637532234192,2.869999999999983
-3.2202229499816895,5.769661903381348,-1.1314430236816406,2.8799999999999826
-3.687739849090576,5.98921012878418,-0.9640260934829712,2.8899999999999824
-3.8865180015563965,6.028578758239746,-0.8739644289016724,2.899999999999982
-3.9999618530273438,5.904584884643555,-0.6367000341415405,2.909999999999982
-4.040887355804443,5.677095413208008,-0.3480736017227173,2.9199999999999817
-4.193471431732178,5.5112504959106445,-0.16142570972442627,2.9299999999999815
-4.3672380447387695,5.155851364135742,-0.007353067398071289,2.9399999999999813
-4.391770839691162,4.579771041870117,0.22220659255981445,2.949999999999981
-3.9409098625183105,4.057927131652832,0.4299643039703369,2.959999999999981
-3.340930461883545,3.439208984375,0.40439701080322266,2.9699999999999807
-2.7044529914855957,2.9121007919311523,0.2526412010192871,2.9799999999999804
-1.7091009616851807,2.7485122680664062,-0.11877632141113281,2.9899999999999802
-0.8199103474617004,2.885554313659668,-1.3516950607299805,2.99999999999998
-0.12048989534378052,2.8646697998046875,-2.7405660152435303,3.00999999999998
0.4392179250717163,2.2713842391967773,-3.797050714492798,3.0199999999999796
0.7812038660049438,1.6546945571899414,-4.844195365905762,3.0299999999999794
0.9752869606018066,1.4662237167358398,-5.823421955108643,3.039999999999979
0.9633142352104187,1.1865930557250977,-6.51465368270874,3.049999999999979
0.3781368136405945,0.8143100738525391,-7.917238235473633,3.0599999999999787
0.2645242214202881,0.4962491989135742,-9.676056861877441,3.0699999999999785
0.37586677074432373,0.1294269561767578,-9.690815925598145,3.0799999999999783
0.5000499486923218,-0.3055086135864258,-8.881019592285156,3.089999999999978
0.5949013829231262,-0.6053590774536133,-7.904826641082764,3.099999999999978
1.0703011751174927,-0.7922430038452148,-6.869075775146484,3.1099999999999777
1.5896210670471191,-1.3835582733154297,-5.891921043395996,3.1199999999999775
2.090456008911133,-2.0187673568725586,-5.088601112365723,3.1299999999999772
1.4275193214416504,-2.6888532638549805,-4.912147045135498,3.139999999999977
2.21995210647583,-3.6800026893615723,-6.168222904205322,3.149999999999977
2.65010929107666,-4.496597766876221,-6.8249592781066895,3.1599999999999766
2.4080047607421875,-5.285016059875488,-6.963712692260742,3.1699999999999764
1.8803719282150269,-5.897820472717285,-6.655634880065918,3.179999999999976
1.2983251810073853,-6.378890037536621,-6.445603370666504,3.189999999999976
0.9332889914512634,-6.581048011779785,-5.925792694091797,3.1999999999999758
0.9001844525337219,-6.548274517059326,-5.170337677001953,3.2099999999999755
0.9245197772979736,-6.455661773681641,-5.08597993850708,3.2199999999999753
-0.04970896244049072,-6.410066604614258,-4.355432510375977,3.229999999999975
-0.4609411954879761,-6.29604434967041,-3.212327003479004,3.239999999999975
-0.9443106651306152,-6.097752094268799,-2.876223564147949,3.2499999999999747
-0.9882584810256958,-6.071731090545654,-2.5466678142547607,3.2599999999999745
-1.0638911724090576,-6.086408615112305,-2.4909892082214355,3.2699999999999743
-1.2696592807769775,-6.0961995124816895,-2.620371103286743,3.279999999999974
-1.5573136806488037,-6.0771484375,-2.6454532146453857,3.289999999999974
-1.7216895818710327,-5.897815704345703,-2.52351713180542,3.2999999999999736
-1.8094277381896973,-5.900396347045898,-2.2525503635406494,3.3099999999999734
-1.8831650018692017,-5.917163848876953,-2.1294660568237305,3.319999999999973
-1.9977717399597168,-5.947670936584473,-2.2573740482330322,3.329999999999973
-2.095686912536621,-6.029468536376953,-2.486138105392456,3.3399999999999728
-2.0644335746765137,-6.090211868286133,-2.5962042808532715,3.3499999999999726
-1.9090754985809326,-6.163034915924072,-2.6047675609588623,3.3599999999999723
-1.486588478088379,-6.1757073402404785,-2.5363802909851074,3.369999999999972
-1.2979789972305298,-6.192539215087891,-2.3820390701293945,3.379999999999972
-1.2771916389465332,-6.160459041595459,-2.216761589050293,3.3899999999999717
-1.238312005996704,-6.146130561828613,-1.895185947418213,3.3999999999999715
-1.227517008781433,-5.998687744140625,-1.4487922191619873,3.4099999999999713
-1.2068347930908203,-5.720368385314941,-1.0047025680541992,3.419999999999971
-1.1902543306350708,-5.250920295715332,-0.6591296195983887,3.429999999999971
-1.150452971458435,-4.532380104064941,-0.3409464359283447,3.4399999999999706
-1.1025670766830444,-3.475700855255127,0.0567474365234375,3.4499999999999704
-1.0907338857650757,-2.1711983680725098,0.6354866027832031,3.45999999999997
-1.0064678192138672,-0.792363166809082,1.2060701847076416,3.46999999999997
-0.8459227085113525,0.8851318359375,1.9030523300170898,3.47999999999997
-0.6168361902236938,2.7340221405029297,2.7379631996154785,3.4899999999999696
-0.45980167388916016,4.790842056274414,3.9118242263793945,3.4999999999999694
-0.4948927164077759,6.818263053894043,5.1601057052612305,3.509999999999969
-0.9642802476882935,8.586404800415039,5.90554141998291,3.519999999999969
-1.9804824590682983,9.669879913330078,6.282881736755371,3.5299999999999687
-3.3106610774993896,10.473649978637695,6.362937927246094,3.5399999999999685
-4.46049690246582,11.002864837646484,6.385790824890137,3.5499999999999683
-5.1726484298706055,11.391335487365723,6.276976585388184,3.559999999999968
-5.337405681610107,11.30872917175293,6.076563358306885,3.569999999999968
-4.803088188171387,10.484623908996582,6.169096946716309,3.5799999999999677
-3.8000195026397705,9.085428237915039,6.676445484161377,3.5899999999999674
-2.7256054878234863,7.248394966125488,7.023946762084961,3.5999999999999672
-1.7633384466171265,5.298425674438477,6.676290988922119,3.609999999999967
-1.1260676383972168,3.448801040649414,5.899989604949951,3.619999999999967
-0.8781270980834961,1.8601131439208984,5.142524242401123,3.6299999999999666
-0.826072096824646,0.6205825805664062,4.521763801574707,3.6399999999999664
-0.5814841985702515,-0.6700277328491211,3.907763957977295,3.649999999999966
-0.20853447914123535,-2.1557655334472656,3.1948890686035156,3.659999999999966
0.2335669994354248,-3.8630471229553223,2.4705848693847656,3.6699999999999657
0.5127803087234497,-5.394951820373535,2.0798473358154297,3.6799999999999655
0.3299980163574219,-6.360119342803955,1.9397504329681396,3.6899999999999653
-0.383472204208374,-6.363166332244873,1.8296351432800293,3.699999999999965
-1.115010142326355,-5.563838005065918,1.710649013519287,3.709999999999965
-1.5132769346237183,-4.310474872589111,1.3833999633789062,3.7199999999999647
-1.2987375259399414,-2.855198860168457,0.9140429496765137,3.7299999999999645
-1.0197476148605347,-1.382990837097168,0.2614264488220215,3.7399999999999642
-0.6711292266845703,0.06260967254638672,-0.6585359573364258,3.749999999999964
-0.22373580932617188,1.3005399703979492,-1.9610254764556885,3.759999999999964
-0.03508102893829346,2.4814510345458984,-3.578120708465576,3.7699999999999636
0.026451706886291504,3.601329803466797,-5.396669387817383,3.7799999999999634
-0.4107629060745239,4.964567184448242,-7.23283576965332,3.789999999999963
-1.1256839036941528,6.362361907958984,-8.843561172485352,3.799999999999963
-1.9747473001480103,7.637199401855469,-9.680968284606934,3.8099999999999627
-2.6487200260162354,8.46107292175293,-9.656387329101562,3.8199999999999625
-2.6111977100372314,8.59508991241455,-9.308067321777344,3.8299999999999623
-2.848794460296631,7.9920244216918945,-8.687174797058105,3.839999999999962
-3.139902114868164,6.623101234436035,-8.120063781738281,3.849999999999962
-2.943173408508301,5.091425895690918,-6.859386444091797,3.8599999999999617
-2.674251079559326,3.37033748626709,-5.47022819519043,3.8699999999999615
-2.936123847961426,1.3581428527832031,-4.935246467590332,3.8799999999999613
-3.0006701946258545,-0.5861387252807617,-5.152584075927734,3.889999999999961
-2.612865924835205,-2.165691375732422,-5.364345073699951,3.899999999999961
-1.9876453876495361,-3.2109241485595703,-5.463768005371094,3.9099999999999606
-1.260317325592041,-3.763016700744629,-5.408123016357422,3.9199999999999604
-0.5810391902923584,-3.9490175247192383,-5.145781517028809,3.92999999999996
-0.12944769859313965,-3.9197921752929688,-4.5129475593566895,3.93999999999996
0.42738640308380127,-3.6394505500793457,-3.609044075012207,3.9499999999999598
1.1358975172042847,-3.1371264457702637,-2.4335267543792725,3.9599999999999596
1.8044555187225342,-2.3920888900756836,-1.290747880935669,3.9699999999999593
2.416586399078369,-1.6626052856445312,-0.7690836191177368,3.979999999999959
2.98862886428833,-0.7798004150390625,-0.9066873788833618,3.989999999999959
3.3403704166412354,-0.01216888427734375,-1.886757731437683,3.9999999999999587
3.6542580127716064,0.41249847412109375,-3.2246570587158203,4.009999999999959
3.737854480743408,0.7947816848754883,-4.851974010467529,4.019999999999959
3.1260666847229004,0.9634675979614258,-6.409510135650635,4.0299999999999585
2.2759690284729004,0.7276926040649414,-7.461041450500488,4.039999999999958
1.3567922115325928,0.5846033096313477,-7.684756278991699,4.049999999999958
0.4817220866680145,1.073385238647461,-7.361772060394287,4.059999999999958
-0.11287927627563477,1.505986213684082,-6.393820285797119,4.069999999999958
-0.020627379417419434,1.8483772277832031,-4.857240676879883,4.079999999999957
0.654314398765564,1.9640636444091797,-2.972087860107422,4.089999999999957
1.3531365394592285,1.7644081115722656,-0.34197038412094116,4.099999999999957
1.7521920204162598,1.1802797317504883,1.1592013835906982,4.109999999999957
1.0741734504699707,0.6808938980102539,1.2507531642913818,4.119999999999957
0.26316529512405396,0.43851470947265625,0.9521052241325378,4.129999999999956
-0.37723952531814575,0.10389423370361328,0.7226529121398926,4.139999999999956
-0.9042772054672241,-0.39449501037597656,0.6178838014602661,4.149999999999956
-1.2243825197219849,-0.9106168746948242,0.6704272031784058,4.159999999999956
-1.299694538116455,-1.2844161987304688,0.856952428817749,4.1699999999999555
-1.0315194129943848,-1.6500606536865234,1.0257165431976318,4.179999999999955
-0.7728217244148254,-2.0577635765075684,1.211364984512329,4.189999999999955
-0.9276703596115112,-2.23972749710083,1.2708793878555298,4.199999999999955
-1.046013593673706,-2.287128448486328,1.2667629718780518,4.209999999999955
-0.9427769184112549,-2.391361713409424,1.1585311889648438,4.2199999999999545
-0.6597970128059387,-2.341811180114746,0.9003159403800964,4.229999999999954
-0.6155373454093933,-2.083667278289795,0.45822978019714355,4.239999999999954
-0.6094673871994019,-1.784658432006836,0.1598607450723648,4.249999999999954
-0.5125220417976379,-1.423354148864746,0.09115756303071976,4.259999999999954
-0.35615503787994385,-0.9879312515258789,0.25946247577667236,4.269999999999953
0.07202637195587158,-1.0547981262207031,0.6133412718772888,4.279999999999953
0.6374084949493408,-1.7883377075195312,0.9569198489189148,4.289999999999953
1.2413970232009888,-2.2551746368408203,1.0220881700515747,4.299999999999953
1.723325490951538,-2.388659954071045,0.8835376501083374,4.3099999999999525
2.0946831703186035,-2.2585701942443848,0.6550017595291138,4.319999999999952
1.9097845554351807,-1.9657773971557617,0.236186221241951,4.329999999999952
2.4132742881774902,-1.940826416015625,0.27736687660217285,4.339999999999952
2.5333919525146484,-1.8509597778320312,0.297850102186203,4.349999999999952
2.1670618057250977,-1.837430477142334,0.033921122550964355,4.3599999999999515
2.0704853534698486,-1.6897497177124023,-0.33046552538871765,4.369999999999951
2.1292500495910645,-1.439065933227539,-0.2948382496833801,4.379999999999951
2.0204837322235107,-0.9348020553588867,-0.1745700240135193,4.389999999999951
1.7805627584457397,-0.6553869247436523,0.057327210903167725,4.399999999999951
1.4503872394561768,-0.6028375625610352,0.45399028062820435,4.40999999999995
1.1326781511306763,-0.43725013732910156,0.7815729975700378,4.41999999999995
1.0837311744689941,-0.41678619384765625,1.1799126863479614,4.42999999999995
0.9734772443771362,-0.380828857421875,1.5878835916519165,4.43999999999995
0.8092375993728638,-0.33640575408935547,1.8287794589996338,4.4499999999999496
0.6631658673286438,-0.24036788940429688,2.005002498626709,4.459999999999949
0.49248355627059937,-0.10705375671386719,2.2472949028015137,4.469999999999949
0.2973939776420593,0.13045692443847656,2.5545575618743896,4.479999999999949
0.16188323497772217,0.35724639892578125,2.9615578651428223,4.489999999999949
0.19377505779266357,0.6736860275268555,3.361741065979004,4.4999999999999485
0.33557605743408203,0.9407367706298828,3.645717144012451,4.509999999999948
0.5510920286178589,1.1580486297607422,3.82102632522583,4.519999999999948
0.8930647969245911,1.3826751708984375,3.8954126834869385,4.529999999999948
1.484427571296692,1.5401887893676758,4.010686874389648,4.539999999999948
1.6910260915756226,1.9625787734985352,4.062522888183594,4.549999999999947
1.8373513221740723,2.29522705078125,4.213253974914551,4.559999999999947
1.94346284866333,2.5667600631713867,4.4231157302856445,4.569999999999947
2.108293294906616,2.7675867080688477,4.561811923980713,4.579999999999947
2.3642148971557617,2.9622297286987305,4.587095260620117,4.589999999999947
2.7373785972595215,3.1004180908203125,4.461068630218506,4.599999999999946
3.0937039852142334,3.193998336791992,4.128560543060303,4.609999999999946
3.4763669967651367,3.1806955337524414,3.735257148742676,4.619999999999946
3.99566650390625,3.1921281814575195,3.3696467876434326,4.629999999999946
4.417052268981934,3.1947498321533203,3.0341951847076416,4.6399999999999455
4.81186580657959,3.229177474975586,2.6886234283447266,4.649999999999945
5.205832481384277,3.2787303924560547,2.4463491439819336,4.659999999999945
5.586567401885986,3.3866920471191406,2.3829221725463867,4.669999999999945
5.745233535766602,3.388310432434082,2.509735107421875,4.679999999999945
5.686309814453125,3.338932991027832,2.761058807373047,4.689999999999944
5.467351913452148,3.3032236099243164,3.024661064147949,4.699999999999944
5.157927513122559,3.4362306594848633,3.055119276046753,4.709999999999944
4.598106384277344,3.770570755004883,2.8665738105773926,4.719999999999944
3.7425808906555176,4.21925163269043,2.6669750213623047,4.729999999999944
2.8188154697418213,4.788983345031738,2.514587879180908,4.739999999999943
1.8484030961990356,5.407819747924805,2.3585519790649414,4.749999999999943
1.0231735706329346,5.810572624206543,2.297271966934204,4.759999999999943
0.5303518772125244,5.644083023071289,2.2691879272460938,4.769999999999943
0.409216046333313,4.894966125488281,2.0990381240844727,4.7799999999999425
0.42097949981689453,3.9080657958984375,1.6148134469985962,4.789999999999942
0.6253368854522705,2.867382049560547,1.0048531293869019,4.799999999999942
0.7497271299362183,1.8827552795410156,0.22775304317474365,4.809999999999942
0.7297852039337158,0.8133077621459961,-0.5312880277633667,4.819999999999942
0.5489827394485474,0.08300018310546875,-1.4781590700149536,4.8299999999999415
0.09681093692779541,-0.8076324462890625,-2.184312105178833,4.839999999999941
-0.0753713846206665,-1.6327638626098633,-2.546123504638672,4.849999999999941
-0.21731841564178467,-1.9057254791259766,-2.570396900177002,4.859999999999941
-0.5004585981369019,-1.8240094184875488,-2.3668789863586426,4.869999999999941
-0.8531515598297119,-0.7628164291381836,-2.360269069671631,4.87999999999994
-1.1040761470794678,1.3704147338867188,-2.3853845596313477,4.88999999999994
-0.972166895866394,3.0322370529174805,-2.0183842182159424,4.89999999999994
-0.7397620677947998,3.6608972549438477,-1.8005379438400269,4.90999999999994
-0.7081795930862427,3.91448974609375,-1.7627487182617188,4.9199999999999395
-0.6367268562316895,3.9792966842651367,-1.8602993488311768,4.929999999999939
-0.7470310926437378,4.223258972167969,-1.8569965362548828,4.939999999999939
-0.6393481492996216,4.464565277099609,-1.9198589324951172,4.949999999999939
-1.2414047718048096,5.164674758911133,-1.6515305042266846,4.959999999999939
-2.707963228225708,6.152859687805176,-1.1820812225341797,4.9699999999999385
-4.3971734046936035,6.967015266418457,-0.6801276803016663,4.979999999999938
-5.583258152008057,7.408937454223633,-0.44889527559280396,4.989999999999938
-6.100998878479004,7.445849418640137,-0.5408709049224854,4.999999999999938
-6.099971294403076,6.97321891784668,-0.7856346368789673,5.009999999999938
-6.001025199890137,6.192512512207031,-0.9114564061164856,5.019999999999937
-5.955185890197754,5.38606071472168,-0.8301522135734558,5.029999999999937
-6.009929180145264,4.649328231811523,-0.5895029306411743,5.039999999999937
-5.893448352813721,4.077831268310547,-0.3928689956665039,5.049999999999937
-5.4573469161987305,3.714468002319336,-0.22091460227966309,5.0599999999999365
-4.931025505065918,3.205010414123535,-0.07039666175842285,5.069999999999936
-4.343840599060059,2.6760149002075195,0.25370168685913086,5.079999999999936
-3.6225345134735107,2.3470277786254883,0.5349559783935547,5.089999999999936
-2.781905174255371,2.1814680099487305,0.49021387100219727,5.099999999999936
-2.1138479709625244,2.1789331436157227,-0.09025907516479492,5.1099999999999355
-1.4430744647979736,2.092853546142578,-0.9403877258300781,5.119999999999935
-1.15172278881073,2.0831985473632812,-2.4291605949401855,5.129999999999935
-0.49790436029434204,2.167538642883301,-4.348280906677246,5.139999999999935
0.4451245665550232,1.9478178024291992,-5.911868095397949,5.149999999999935
1.4599244594573975,1.3062009811401367,-7.541831016540527,5.159999999999934
1.6480857133865356,0.7175912857055664,-9.187420845031738,5.169999999999934
1.7034854888916016,0.3319559097290039,-9.720176696777344,5.179999999999934
1.0818138122558594,-0.18400096893310547,-9.342881202697754,5.189999999999934
0.8873050212860107,-0.5406093597412109,-8.903694152832031,5.199999999999934
1.1602882146835327,-0.8792839050292969,-8.177398681640625,5.209999999999933
1.5083770751953125,-1.4061317443847656,-7.237298488616943,5.219999999999933
1.9404189586639404,-1.9754056930541992,-6.367568016052246,5.229999999999933
2.1166281700134277,-2.4943442344665527,-5.794336318969727,5.239999999999933
2.039118766784668,-2.8128857612609863,-6.132767677307129,5.2499999999999325
2.2164978981018066,-3.124964714050293,-6.802504539489746,5.259999999999932
2.2313859462738037,-3.743725299835205,-7.071394920349121,5.269999999999932
1.911133050918579,-4.391288757324219,-7.1769185066223145,5.279999999999932
1.550059199333191,-4.893320083618164,-6.860957145690918,5.289999999999932
1.2398042678833008,-5.217071533203125,-6.441399097442627,5.299999999999931
1.1638599634170532,-5.272926330566406,-5.732722759246826,5.309999999999931
1.061851978302002,-5.380397319793701,-4.9563775062561035,5.319999999999931
1.3095201253890991,-5.559048652648926,-5.046883583068848,5.329999999999931
0.5396261811256409,-5.922985553741455,-4.446870803833008,5.339999999999931
-0.024422526359558105,-6.198927402496338,-3.6861586570739746,5.34999999999993
-0.21995949745178223,-6.428719520568848,-3.344956159591675,5.35999999999993
-0.3981211185455322,-6.526633262634277,-3.3294837474823,5.36999999999993
-0.7599790096282959,-6.452207088470459,-3.4390389919281006,5.37999999999993
-1.198546290397644,-6.232268333435059,-3.401106595993042,5.3899999999999295
-1.2763807773590088,-5.898404121398926,-3.2062642574310303,5.399999999999929
-1.1447324752807617,-5.771189212799072,-2.962590456008911,5.409999999999929
-0.9933798313140869,-5.551482200622559,-2.744633197784424,5.419999999999929
-0.9618434906005859,-5.368602275848389,-2.4306466579437256,5.429999999999929
-0.8735610246658325,-5.3991241455078125,-2.3274688720703125,5.4399999999999284
-0.7334235906600952,-5.529860496520996,-2.521649122238159,5.449999999999928
-0.6133908033370972,-5.6983819007873535,-2.3434133529663086,5.459999999999928
-0.5708239078521729,-5.863739013671875,-2.293121814727783,5.469999999999928
-0.4359637498855591,-5.968207359313965,-2.115020275115967,5.479999999999928
-0.261743426322937,-5.980271339416504,-1.926927089691162,5.489999999999927
-0.1852179765701294,-6.030951976776123,-1.6244564056396484,5.499999999999927
-0.18808531761169434,-6.124563694000244,-1.2035760879516602,5.509999999999927
-0.1924140453338623,-6.134002685546875,-0.6768627166748047,5.519999999999927
-0.24886488914489746,-6.126043796539307,-0.08521270751953125,5.5299999999999265
-0.33114492893218994,-5.882539749145508,0.4656562805175781,5.539999999999926
-0.3978472948074341,-5.5344557762146,1.1091394424438477,5.549999999999926
-0.5354553461074829,-4.937302112579346,1.779874324798584,5.559999999999926
-0.7129093408584595,-4.099425315856934,2.4189534187316895,5.569999999999926
-0.8251171112060547,-2.8566203117370605,3.184023380279541,5.5799999999999255
-1.0493800640106201,-1.1166439056396484,3.8948822021484375,5.589999999999925
-1.284339189529419,0.8529205322265625,4.624757766723633,5.599999999999925
-1.8412284851074219,2.8437986373901367,4.9992265701293945,5.609999999999925
-2.2719273567199707,4.835087776184082,4.973302841186523,5.619999999999925
-3.080111265182495,6.902308464050293,4.66203498840332,5.629999999999924
-3.6091861724853516,8.673481941223145,4.564797401428223,5.639999999999924
-4.041023254394531,10.637331008911133,4.577841758728027,5.649999999999924
-4.62639045715332,12.325366973876953,4.721305847167969,5.659999999999924
-5.604640960693359,13.821590423583984,4.686052322387695,5.6699999999999235
-6.642629623413086,14.647147178649902,4.705041885375977,5.679999999999923
-6.455928802490234,13.56196117401123,5.064952850341797,5.689999999999923
-4.969735622406006,10.665640830993652,5.415774345397949,5.699999999999923
-3.5544960498809814,7.684526443481445,5.352639198303223,5.709999999999923
-2.664808750152588,5.242077827453613,5.019944190979004,5.7199999999999225
-2.204660415649414,3.1800537109375,4.844080448150635,5.729999999999922
-2.1067466735839844,1.409749984741211,4.8014373779296875,5.739999999999922
-1.9248589277267456,-0.2799234390258789,4.529689311981201,5.749999999999922
-1.5538811683654785,-2.1454687118530273,4.068756580352783,5.759999999999922
-1.0783374309539795,-4.036300182342529,3.6009724140167236,5.769999999999921
-0.8917112350463867,-5.54590368270874,3.274040699005127,5.779999999999921
-0.9487608671188354,-6.294629096984863,3.015974521636963,5.789999999999921
-1.1505266427993774,-6.05433988571167,2.7014002799987793,5.799999999999921
-1.5698776245117188,-4.908224105834961,2.1531460285186768,5.809999999999921
-1.6155717372894287,-3.6184744834899902,1.4498851299285889,5.81999999999992
-1.4128342866897583,-2.2696971893310547,0.5600299835205078,5.82999999999992
-1.4024227857589722,-1.0563030242919922,-0.6078348159790039,5.83999999999992
-1.392419695854187,-0.052086830139160156,-2.115405559539795,5.84999999999992
-1.4776004552841187,1.0360441207885742,-3.7203211784362793,5.8599999999999195
-1.7160779237747192,2.2672605514526367,-5.268367290496826,5.869999999999919
-1.8226540088653564,3.636502265930176,-6.620704650878906,5.879999999999919
-2.443589210510254,5.202821731567383,-7.968273639678955,5.889999999999919
-3.1632111072540283,6.744535446166992,-9.043209075927734,5.899999999999919
-3.7909064292907715,8.106561660766602,-9.63133430480957,5.909999999999918
-4.066774845123291,8.894673347473145,-9.587348937988281,5.919999999999918
-4.155272483825684,9.21226692199707,-8.99769401550293,5.929999999999918
-3.891730785369873,9.131523132324219,-7.450182914733887,5.939999999999918
-3.285611629486084,8.873002052307129,-5.424839973449707,5.949999999999918
-2.174001693725586,7.720100402832031,-3.5307552814483643,5.959999999999917
-1.0636874437332153,5.364621162414551,-2.645350456237793,5.969999999999917
-0.596666693687439,2.5542173385620117,-3.1191484928131104,5.979999999999917
-0.6596360206604004,0.11851024627685547,-4.274153709411621,5.989999999999917
-0.6569665670394897,-1.7179145812988281,-5.149066925048828,5.9999999999999165
-0.40239226818084717,-2.969949722290039,-5.467193603515625,6.009999999999916
0.13078975677490234,-3.6119813919067383,-5.5346479415893555,6.019999999999916
0.5502517819404602,-3.768974781036377,-5.566651344299316,6.029999999999916
0.8384585380554199,-3.694526195526123,-5.523676872253418,6.039999999999916
1.2964341640472412,-3.5963048934936523,-5.423952102661133,6.0499999999999154
1.960322380065918,-3.540858745574951,-5.236802101135254,6.059999999999915
2.4417333602905273,-3.363401412963867,-4.965645790100098,6.069999999999915
3.172117233276367,-3.028681755065918,-4.610727310180664,6.079999999999915
3.8767237663269043,-2.6080193519592285,-4.339712142944336,6.089999999999915
4.494382858276367,-2.2383980751037598,-4.390326023101807,6.099999999999914
4.605567932128906,-1.8507928848266602,-4.743495941162109,6.109999999999914
4.339217185974121,-1.4964666366577148,-5.449256420135498,6.119999999999914
3.937509059906006,-0.9262466430664062,-5.912109851837158,6.129999999999914
3.7484452724456787,-0.2523365020751953,-6.209369659423828,6.1399999999999135
3.3660802841186523,0.31998157501220703,-6.60353422164917,6.149999999999913
2.63681697845459,0.6378269195556641,-7.009328842163086,6.159999999999913
1.428882122039795,0.9446868896484375,-7.121338844299316,6.169999999999913
0.1376887559890747,1.330245018005371,-6.7971601486206055,6.179999999999913
-0.7612035274505615,1.8004913330078125,-6.3115739822387695,6.1899999999999125
-1.2987438440322876,2.1171789169311523,-4.347002029418945,6.199999999999912
-1.0079119205474854,2.0731735229492188,0.03018820285797119,6.209999999999912
-0.403769850730896,1.8502063751220703,3.897818088531494,6.219999999999912
-0.3304070234298706,1.4185600280761719,4.091517925262451,6.229999999999912
-0.36179840564727783,1.0597352981567383,2.7527692317962646,6.239999999999911
-0.5594220161437988,0.5736179351806641,1.9198648929595947,6.249999999999911
-0.7926855087280273,0.015568733215332031,1.4627597332000732,6.259999999999911
-0.7773844003677368,-0.5284051895141602,1.3666326999664307,6.269999999999911
-0.5706741809844971,-1.0275936126708984,1.65191650390625,6.2799999999999105
-0.05872142314910889,-1.5540828704833984,2.087132453918457,6.28999999999991
0.29840558767318726,-2.0243067741394043,2.303182601928711,6.29999999999991
0.18867313861846924,-2.316473960876465,2.14247727394104,6.30999999999991
0.005057811737060547,-2.2682971954345703,1.7044799327850342,6.31999999999991
-0.33351635932922363,-2.2843732833862305,1.145986795425415,6.3299999999999095
-0.22405898571014404,-1.917527198791504,0.5336664915084839,6.339999999999909
0.3289274573326111,-1.7396492958068848,0.3027002215385437,6.349999999999909
0.808713972568512,-1.8580598831176758,0.25257378816604614,6.359999999999909
0.6648256778717041,-1.6077232360839844,0.2677192986011505,6.369999999999909
0.6160897016525269,-1.3955039978027344,0.5385426878929138,6.379999999999908
0.839946448802948,-1.6923189163208008,0.9916641116142273,6.389999999999908
0.9811370372772217,-2.0002684593200684,1.1786912679672241,6.399999999999908
1.0383152961730957,-2.1927614212036133,0.7575194239616394,6.409999999999908
1.495194673538208,-2.3559231758117676,0.5105960369110107,6.419999999999908
1.924322247505188,-2.310312271118164,0.5403537750244141,6.429999999999907
1.8067798614501953,-2.1710243225097656,0.4357861578464508,6.439999999999907
1.5086259841918945,-1.8952770233154297,0.3842870593070984,6.449999999999907
1.4893033504486084,-1.6004085540771484,0.6012840867042542,6.459999999999907
1.6459602117538452,-1.4035024642944336,0.980430006980896,6.4699999999999065
1.7083382606506348,-1.2756938934326172,1.1275384426116943,6.479999999999906
1.6810200214385986,-1.1451959609985352,1.112196683883667,6.489999999999906
1.556371808052063,-0.8901147842407227,0.9897181391716003,6.499999999999906
1.647553563117981,-0.709071159362793,0.8703926801681519,6.509999999999906
1.6434180736541748,-0.4776020050048828,0.7449245452880859,6.519999999999905
1.5369031429290771,-0.2961444854736328,0.6758633255958557,6.529999999999905
1.4477699995040894,-0.20760631561279297,0.6682950258255005,6.539999999999905
1.378487229347229,-0.23092365264892578,0.7631123065948486,6.549999999999905
1.2286781072616577,-0.23435592651367188,0.9820408225059509,6.559999999999905
1.0606426000595093,-0.1843719482421875,1.3132500648498535,6.569999999999904
0.8915143013000488,-0.03547191619873047,1.744909644126892,6.579999999999904
0.7261069416999817,0.1572856903076172,2.20272159576416,6.589999999999904
0.5644038915634155,0.3818683624267578,2.616706132888794,6.599999999999904
0.5166653990745544,0.6071786880493164,2.9195454120635986,6.6099999999999035
0.4707525968551636,0.7519454956054688,3.235231399536133,6.619999999999903
0.5155737996101379,0.8497447967529297,3.488990306854248,6.629999999999903
0.6321852207183838,0.8216667175292969,3.7422845363616943,6.639999999999903
0.7439658045768738,0.9738054275512695,3.8867173194885254,6.649999999999903
0.781193733215332,1.176553726196289,3.890252113342285,6.659999999999902
0.9107076525688171,1.3840656280517578,3.8379247188568115,6.669999999999902
0.9403067231178284,1.713057518005371,3.7093629837036133,6.679999999999902
1.080802321434021,1.9072761535644531,3.6925435066223145,6.689999999999902
1.212346076965332,2.1962175369262695,3.7366249561309814,6.699999999999902
1.1614528894424438,2.4694461822509766,3.6908600330352783,6.709999999999901
1.4875506162643433,2.71732234954834,3.481480121612549,6.719999999999901
2.2651515007019043,2.7892751693725586,3.1324849128723145,6.729999999999901
3.097817897796631,2.8386096954345703,2.7322511672973633,6.739999999999901
3.6982874870300293,2.9344968795776367,2.3210294246673584,6.7499999999999005
4.111252307891846,3.114834785461426,1.9391781091690063,6.7599999999999
4.493485927581787,3.3242931365966797,1.5820692777633667,6.7699999999999
4.716680526733398,3.510110855102539,1.3653755187988281,6.7799999999999
5.023958683013916,3.619931221008301,1.3481806516647339,6.7899999999999
5.206140518188477,3.666065216064453,1.4582066535949707,6.7999999999998995
5.284285545349121,3.6249866485595703,1.7020219564437866,6.809999999999899
5.181632041931152,3.4802398681640625,2.0973362922668457,6.819999999999899
4.6708664894104,3.353867530822754,2.4982807636260986,6.829999999999899
4.0300517082214355,3.236191749572754,2.964057683944702,6.839999999999899
3.3391623497009277,3.1629858016967773,3.309274911880493,6.849999999999898
2.587763786315918,3.189194679260254,3.5734591484069824,6.859999999999898
1.7800897359848022,3.1903209686279297,3.745439052581787,6.869999999999898
0.8771783709526062,3.228456497192383,3.770845413208008,6.879999999999898
-0.04091060161590576,3.265125274658203,3.6074795722961426,6.8899999999998975
-0.8326034545898438,3.218832015991211,3.3377556800842285,6.899999999999897
-1.4068011045455933,3.0775394439697266,2.9626407623291016,6.909999999999897
-1.4759398698806763,2.6930885314941406,2.562087297439575,6.919999999999897
-1.205377221107483,2.2091360092163086,2.177487373352051,6.929999999999897
-0.5525978803634644,1.6544418334960938,1.8359227180480957,6.9399999999998965
0.2785414457321167,0.9265213012695312,1.3742178678512573,6.949999999999896
0.8203442096710205,0.29135704040527344,0.6903463006019592,6.959999999999896
1.1985543966293335,-0.65240478515625,-0.15432775020599365,6.969999999999896
1.31205415725708,-1.3445405960083008,-1.1287134885787964,6.979999999999896
1.3400142192840576,-1.8902788162231445,-1.6840723752975464,6.989999999999895
1.0860493183135986,-2.1602210998535156,-1.9585856199264526,6.999999999999895
0.9180269241333008,-1.924201488494873,-1.7681292295455933,7.009999999999895
0.9046230316162109,-1.1650304794311523,-1.3466249704360962,7.019999999999895
0.9892613887786865,-0.3319826126098633,-1.0476727485656738,7.0299999999998946
0.9566587805747986,1.5104045867919922,-1.0281494855880737,7.039999999999894
0.44690465927124023,3.1630449295043945,-1.1644020080566406,7.049999999999894
-0.1608637571334839,4.367547035217285,-1.2465649843215942,7.059999999999894
-0.3258908987045288,5.198032379150391,-1.3522064685821533,7.069999999999894
-0.49778926372528076,5.5587615966796875,-1.6745316982269287,7.0799999999998935
-0.5829663276672363,5.725078582763672,-1.9645016193389893,7.089999999999893
-0.543189287185669,5.718807220458984,-2.1691644191741943,7.099999999999893
-0.615654468536377,5.485143661499023,-2.1711995601654053,7.109999999999893
-1.1388412714004517,5.232202529907227,-2.001737356185913,7.119999999999893
-1.9399935007095337,5.127161979675293,-1.833742618560791,7.129999999999892
-2.7844948768615723,5.205643653869629,-1.6138050556182861,7.139999999999892
-3.387585163116455,5.383792877197266,-1.3818169832229614,7.149999999999892
-3.790194511413574,5.463184356689453,-1.3021283149719238,7.159999999999892
-4.024152755737305,5.441710472106934,-1.251733660697937,7.169999999999892
-4.198535442352295,5.221454620361328,-1.039949893951416,7.179999999999891
-4.295413970947266,4.85037899017334,-0.7313114404678345,7.189999999999891
-4.330423355102539,4.26390266418457,-0.44005918502807617,7.199999999999891
-4.13923978805542,3.8709936141967773,-0.1725926399230957,7.209999999999891
-3.6854305267333984,3.6999635696411133,0.14391446113586426,7.2199999999998905
-3.3857481479644775,3.300715446472168,0.34531426429748535,7.22999999999989
-3.0205769538879395,3.113236427307129,0.1740875244140625,7.23999999999989
-2.5624961853027344,3.0053491592407227,-0.19638466835021973,7.24999999999989
-1.7319467067718506,2.9742259979248047,-0.7411081790924072,7.25999999999989
-0.7553035616874695,2.730123519897461,-1.1575316190719604,7.269999999999889
-0.03388535976409912,2.347431182861328,-1.8831013441085815,7.279999999999889
0.39329326152801514,2.317049026489258,-3.397066354751587,7.289999999999889
0.6622544527053833,2.112895965576172,-4.566482067108154,7.299999999999889
0.8274059295654297,1.7430458068847656,-5.417825698852539,7.309999999999889
0.7546344995498657,1.1675167083740234,-6.179856777191162,7.319999999999888
0.5115669369697571,1.0389776229858398,-6.4836578369140625,7.329999999999888
0.42025917768478394,0.9320335388183594,-7.5679779052734375,7.339999999999888
0.5792709589004517,0.9165067672729492,-8.655871391296387,7.349999999999888
0.15780413150787354,0.7829675674438477,-7.2437005043029785,7.3599999999998875
0.6722873449325562,0.44083690643310547,-6.517719268798828,7.369999999999887
1.602160096168518,-0.15415477752685547,-6.18255090713501,7.379999999999887
2.1523547172546387,-0.8100767135620117,-5.647617340087891,7.389999999999887
2.2594523429870605,-1.7233734130859375,-5.476051330566406,7.399999999999887
1.9625728130340576,-2.1462249755859375,-5.9087934494018555,7.4099999999998865
1.8559331893920898,-2.5339198112487793,-6.360472202301025,7.419999999999886
1.718320608139038,-3.24045991897583,-6.725486755371094,7.429999999999886
1.379453420639038,-4.0767436027526855,-6.860102653503418,7.439999999999886
1.1111721992492676,-4.729649066925049,-7.108453750610352,7.449999999999886
0.8692226409912109,-5.25521993637085,-6.7114152908325195,7.459999999999885
0.8515864014625549,-5.67386531829834,-5.878793716430664,7.469999999999885
0.9058629870414734,-5.745236873626709,-5.052255630493164,7.479999999999885
0.9021714329719543,-5.575862884521484,-4.369490146636963,7.489999999999885
0.9832972288131714,-5.280835151672363,-4.058037281036377,7.4999999999998845
0.6441900730133057,-4.965244770050049,-4.656374454498291,7.509999999999884
-0.09790658950805664,-5.200063228607178,-3.657757520675659,7.519999999999884
-0.6188642978668213,-5.309425354003906,-2.908284902572632,7.529999999999884
-0.9443304538726807,-5.397000312805176,-2.662663698196411,7.539999999999884
-1.167494773864746,-5.40327262878418,-2.5280675888061523,7.5499999999998835
-1.417869210243225,-5.376126289367676,-2.4306349754333496,7.559999999999883
-1.508566975593567,-5.485146522521973,-2.420975923538208,7.569999999999883
-1.6927123069763184,-5.756004333496094,-2.545062780380249,7.579999999999883
-1.9199750423431396,-5.925024032592773,-2.61929988861084,7.589999999999883
-2.130626916885376,-6.07553243637085,-2.752058506011963,7.599999999999882
-2.353593349456787,-6.245346546173096,-2.881746292114258,7.609999999999882
-2.36163067817688,-6.391253471374512,-2.7955963611602783,7.619999999999882
-2.1981539726257324,-6.505906581878662,-2.6733405590057373,7.629999999999882
-1.9040935039520264,-6.589165687561035,-2.538970470428467,7.6399999999998816
-1.6448934078216553,-6.595399856567383,-2.392657518386841,7.649999999999881
-1.4806270599365234,-6.610547065734863,-2.088697671890259,7.659999999999881
-1.2758954763412476,-6.765875816345215,-1.6969242095947266,7.669999999999881
-1.3999439477920532,-6.728599548339844,-1.3205623626708984,7.679999999999881
-1.457857608795166,-6.391085624694824,-1.0409038066864014,7.6899999999998805
-1.5042452812194824,-5.951816082000732,-0.7549638748168945,7.69999999999988
-1.4067697525024414,-5.302799224853516,-0.48438167572021484,7.70999999999988
-1.3747704029083252,-4.299916744232178,-0.2609996795654297,7.71999999999988
-1.2951682806015015,-3.0046582221984863,0.12889766693115234,7.72999999999988
-1.1293073892593384,-1.4065213203430176,0.5752689838409424,7.739999999999879
-0.888606071472168,0.24007129669189453,1.2226428985595703,7.749999999999879
-0.5602225065231323,2.124234199523926,1.9713740348815918,7.759999999999879
-0.23568964004516602,4.401355743408203,2.974868059158325,7.769999999999879
0.0791240930557251,6.839625358581543,4.264550685882568,7.779999999999879
-0.29252147674560547,8.74644947052002,5.3654632568359375,7.789999999999878
-1.2307978868484497,9.93750286102295,5.752083778381348,7.799999999999878
-2.7039244174957275,10.3825044631958,5.805106163024902,7.809999999999878
-3.5326900482177734,10.376381874084473,6.081059455871582,7.819999999999878
-3.9099249839782715,10.15629768371582,6.329995632171631,7.8299999999998775
-4.038154602050781,9.645624160766602,6.391371250152588,7.839999999999877
-3.811788558959961,8.73127555847168,6.57513427734375,7.849999999999877
-3.3285279273986816,7.543545722961426,6.699974060058594,7.859999999999877
-2.55546236038208,6.119100570678711,6.528426647186279,7.869999999999877
-1.7734774351119995,4.488093376159668,5.905825614929199,7.879999999999876
-1.151269793510437,2.9135780334472656,5.070395469665527,7.889999999999876
-0.7133592367172241,1.4961824417114258,4.371412754058838,7.899999999999876
-0.41784989833831787,0.24059200286865234,3.9068922996520996,7.909999999999876
-0.11885607242584229,-0.8752202987670898,3.7107155323028564,7.919999999999876
0.18449008464813232,-1.9500226974487305,3.6637232303619385,7.929999999999875
0.7322644591331482,-3.072803497314453,3.4291446208953857,7.939999999999875
1.4475171566009521,-4.329739093780518,2.978851795196533,7.949999999999875
1.7854948043823242,-5.471909523010254,2.494948148727417,7.959999999999875
1.4839942455291748,-6.279451370239258,2.223905563354492,7.9699999999998745
0.6671674251556396,-6.198299407958984,2.133211612701416,7.979999999999874
-0.15100860595703125,-5.232579708099365,2.038318157196045,7.989999999999874
