AccX,AccY,AccZ,SampleRate
1.3358505964279175,-0.6972284317016602,-0.10671776533126831,0
1.325773000717163,-0.5883846282958984,-0.12024247646331787,0.01
1.2855925559997559,-0.5675382614135742,0.013997495174407959,0.02
1.1411596536636353,-0.6249094009399414,0.3444432318210602,0.03
0.9547607898712158,-0.6407642364501953,0.7636332511901855,0.04
0.8459456562995911,-0.6844282150268555,1.252356767654419,0.05
0.644939124584198,-0.6051778793334961,1.7697350978851318,0.060000000000000005
0.3995909094810486,-0.43426513671875,2.1812856197357178,0.07
0.2750389575958252,-0.16945457458496094,2.5221238136291504,0.08
0.20669472217559814,0.10782337188720703,2.8850018978118896,0.09
0.18988394737243652,0.37839221954345703,3.171186923980713,0.09999999999999999
0.34442442655563354,0.6876382827758789,3.3656423091888428,0.10999999999999999
0.5820177793502808,0.9565238952636719,3.4244916439056396,0.11999999999999998
0.9533185362815857,1.1300125122070312,3.416167736053467,0.12999999999999998
1.1738789081573486,1.4375543594360352,3.344296455383301,0.13999999999999999
1.2431044578552246,1.8571052551269531,3.219839572906494,0.15
1.1455507278442383,2.1873340606689453,3.051969528198242,0.16
1.0904572010040283,2.492661476135254,2.8577122688293457,0.17
1.2540823221206665,2.7777814865112305,2.7067596912384033,0.18000000000000002
1.4326750040054321,2.959012031555176,2.616276264190674,0.19000000000000003
1.6259390115737915,3.065134048461914,2.5913305282592773,0.20000000000000004
1.8843770027160645,3.0794906616210938,2.531358003616333,0.21000000000000005
2.371187925338745,3.0499916076660156,2.388148307800293,0.22000000000000006
2.8879830837249756,3.06265926361084,2.177952289581299,0.23000000000000007
3.3414249420166016,3.052737236022949,1.9147719144821167,0.24000000000000007
3.836517810821533,3.0034046173095703,1.6511352062225342,0.25000000000000006
4.152561187744141,2.9457168579101562,1.394598364830017,0.26000000000000006
4.4014410972595215,2.8582162857055664,1.2752281427383423,0.2700000000000001
4.649753570556641,2.7339649200439453,1.325357437133789,0.2800000000000001
4.667177677154541,2.534923553466797,1.6228388547897339,0.2900000000000001
4.417410850524902,2.4644994735717773,2.003469705581665,0.3000000000000001
4.0221405029296875,2.567896842956543,2.441148042678833,0.3100000000000001
3.5147109031677246,2.7299861907958984,2.806333541870117,0.3200000000000001
3.0941600799560547,2.9434642791748047,3.108018159866333,0.3300000000000001
2.6131341457366943,3.2394256591796875,3.405547618865967,0.34000000000000014
2.032180070877075,3.5198192596435547,3.6194210052490234,0.35000000000000014
1.3284220695495605,3.7607507705688477,3.7034664154052734,0.36000000000000015
0.6151860356330872,3.9311208724975586,3.5969748497009277,0.37000000000000016
0.015337467193603516,4.148037910461426,3.27712345123291,0.38000000000000017
-0.6290749311447144,4.382530212402344,2.8576831817626953,0.3900000000000002
-1.0764375925064087,4.362000465393066,2.4555492401123047,0.4000000000000002
-1.0128651857376099,3.9889631271362305,2.1686644554138184,0.4100000000000002
-0.7494053840637207,3.416956901550293,1.9126219749450684,0.4200000000000002
-0.14550483226776123,2.6699390411376953,1.633206844329834,0.4300000000000002
0.548973023891449,2.013157844543457,1.2419860363006592,0.4400000000000002
1.2522971630096436,1.2239103317260742,0.8202267289161682,0.45000000000000023
1.751394510269165,0.5103578567504883,0.3202887773513794,0.46000000000000024
1.9240763187408447,-0.6149816513061523,-0.1886354684829712,0.47000000000000025
1.8159027099609375,-1.5435848236083984,-0.8058198690414429,0.48000000000000026
1.5014252662658691,-2.5307674407958984,-1.3073700666427612,0.49000000000000027
1.0130608081817627,-3.154958724975586,-1.6704497337341309,0.5000000000000002
0.3686419725418091,-3.0476584434509277,-1.8341667652130127,0.5100000000000002
-0.2915182113647461,-2.5628952980041504,-1.6898298263549805,0.5200000000000002
-0.5192595720291138,-1.6740732192993164,-1.5714832544326782,0.5300000000000002
-0.26446568965911865,-0.2111072540283203,-1.7756588459014893,0.5400000000000003
0.10529983043670654,1.306992530822754,-2.0881118774414062,0.5500000000000003
0.2322080135345459,2.502065658569336,-2.387765645980835,0.5600000000000003
0.24221312999725342,3.6891250610351562,-2.82320237159729,0.5700000000000003
0.5307171940803528,4.274394989013672,-3.1857738494873047,0.5800000000000003
0.7967711687088013,4.394680976867676,-3.5016226768493652,0.5900000000000003
0.9228065013885498,4.373391151428223,-3.377772092819214,0.6000000000000003
0.4603269696235657,4.528553009033203,-3.0038604736328125,0.6100000000000003
-0.3505650758743286,4.79743766784668,-2.422522783279419,0.6200000000000003
-1.4203693866729736,5.122108459472656,-1.6686179637908936,0.6300000000000003
-2.5613231658935547,5.640817642211914,-0.9734782576560974,0.6400000000000003
-3.7193760871887207,6.272036552429199,-0.47700202465057373,0.6500000000000004
-4.58003044128418,6.824785232543945,-0.32096946239471436,0.6600000000000004
-4.964233875274658,6.9434661865234375,-0.42981064319610596,0.6700000000000004
-5.168180465698242,6.657674789428711,-0.47584664821624756,0.6800000000000004
-5.24343204498291,6.3508501052856445,-0.4896109104156494,0.6900000000000004
-5.420633792877197,5.965778350830078,-0.44275009632110596,0.7000000000000004
-5.633941650390625,5.373254776000977,-0.23866748809814453,0.7100000000000004
-5.585299015045166,4.766901016235352,-0.024277448654174805,0.7200000000000004
-5.363901615142822,4.088813781738281,0.40346550941467285,0.7300000000000004
-4.965475082397461,3.560659408569336,0.8079001903533936,0.7400000000000004
-4.30390739440918,3.334519386291504,0.796807050704956,0.7500000000000004
-3.402243137359619,3.0771284103393555,0.21428823471069336,0.7600000000000005
-2.7804198265075684,2.9983606338500977,-0.715198278427124,0.7700000000000005
-1.8820983171463013,2.887950897216797,-1.925955891609192,0.7800000000000005
-0.5518342852592468,2.4603443145751953,-3.4191272258758545,0.7900000000000005
0.6433966159820557,1.7361984252929688,-4.8626203536987305,0.8000000000000005
1.1373789310455322,1.6368064880371094,-6.6562604904174805,0.8100000000000005
2.000220537185669,0.9268732070922852,-9.62785530090332,0.8200000000000005
2.2013208866119385,0.13570213317871094,-10.093887329101562,0.8300000000000005
1.5431597232818604,-0.11081409454345703,-9.505325317382812,0.8400000000000005
1.4896349906921387,-0.11479568481445312,-8.948530197143555,0.8500000000000005
2.076976776123047,-0.33523082733154297,-8.397714614868164,0.8600000000000005
2.4966142177581787,-0.6017684936523438,-7.270071983337402,0.8700000000000006
2.8798038959503174,-0.8956289291381836,-6.055776596069336,0.8800000000000006
3.0583713054656982,-1.048905372619629,-4.665114879608154,0.8900000000000006
2.4168219566345215,-1.4409980773925781,-4.498999118804932,0.9000000000000006
3.0107789039611816,-2.35141658782959,-4.988620758056641,0.9100000000000006
2.7707114219665527,-3.3342719078063965,-6.026288032531738,0.9200000000000006
2.1474664211273193,-4.032846450805664,-6.853989601135254,0.9300000000000006
1.5296932458877563,-4.701108932495117,-7.015261173248291,0.9400000000000006
1.0759562253952026,-5.327759742736816,-6.734936714172363,0.9500000000000006
0.8784480094909668,-5.679739952087402,-6.035739421844482,0.9600000000000006
0.593936026096344,-5.761048316955566,-5.349395275115967,0.9700000000000006
0.5731840133666992,-5.709671974182129,-4.4686808586120605,0.9800000000000006
0.06923854351043701,-5.6201629638671875,-4.14112663269043,0.9900000000000007
0.13529956340789795,-5.447734832763672,-3.8615517616271973,1.0000000000000007
0.2122049331665039,-5.410236358642578,-3.599411725997925,1.0100000000000007
0.24881935119628906,-5.346652030944824,-4.371982574462891,1.0200000000000007
-0.7006018161773682,-5.6337890625,-3.728168487548828,1.0300000000000007
-1.268420934677124,-6.019641399383545,-2.7580466270446777,1.0400000000000007
-1.5429573059082031,-6.308698654174805,-2.2096505165100098,1.0500000000000007
-1.7222784757614136,-6.548897743225098,-1.9820644855499268,1.0600000000000007
-1.7801692485809326,-6.711430549621582,-1.8193743228912354,1.0700000000000007
-1.7720731496810913,-6.726719856262207,-1.6789894104003906,1.0800000000000007
-1.7363847494125366,-6.785640716552734,-1.7959606647491455,1.0900000000000007
-1.812307357788086,-6.887501239776611,-1.9436655044555664,1.1000000000000008
-1.7970449924468994,-6.998010158538818,-2.1733036041259766,1.1100000000000008
-1.7005683183670044,-7.082912921905518,-2.3996198177337646,1.1200000000000008
-1.5038055181503296,-7.084228515625,-2.549093723297119,1.1300000000000008
-1.276293396949768,-6.975166320800781,-2.5650088787078857,1.1400000000000008
-1.2549536228179932,-6.855680465698242,-2.5533719062805176,1.1500000000000008
-1.0578482151031494,-6.856796741485596,-2.3021204471588135,1.1600000000000008
-1.1212064027786255,-6.662567138671875,-1.9240984916687012,1.1700000000000008
-1.1268681287765503,-6.488336563110352,-1.5435893535614014,1.1800000000000008
-1.0791704654693604,-6.28582763671875,-1.172612190246582,1.1900000000000008
-1.1521763801574707,-6.018590450286865,-0.8832786083221436,1.2000000000000008
-1.1392136812210083,-5.528252601623535,-0.5849742889404297,1.2100000000000009
-1.0122418403625488,-4.766633033752441,-0.15344524383544922,1.2200000000000009
-0.9316704273223877,-3.649599552154541,0.2865118980407715,1.2300000000000009
-0.9221929311752319,-2.214555263519287,0.6780843734741211,1.2400000000000009
-1.1410362720489502,-0.3640098571777344,1.2319207191467285,1.2500000000000009
-1.2545599937438965,2.091202735900879,1.9285547733306885,1.260000000000001
-1.1766326427459717,4.901323318481445,3.04960036277771,1.270000000000001
-1.0963679552078247,7.655957221984863,4.6139373779296875,1.280000000000001
-1.2555313110351562,9.884634017944336,5.777163505554199,1.290000000000001
-2.127925395965576,11.2725830078125,6.106385231018066,1.300000000000001
-3.067875862121582,12.319646835327148,6.004633903503418,1.310000000000001
-4.04541540145874,13.304161071777344,6.071735382080078,1.320000000000001
-4.973016738891602,14.118362426757812,6.047208786010742,1.330000000000001
-5.1883673667907715,14.027449607849121,5.729544639587402,1.340000000000001
-4.1669158935546875,12.153046607971191,5.456534385681152,1.350000000000001
-2.949361801147461,9.48470401763916,5.499614715576172,1.360000000000001
-2.092632532119751,6.672088623046875,5.274782180786133,1.370000000000001
-1.4925599098205566,4.248029708862305,4.796170234680176,1.380000000000001
-1.0604945421218872,2.3340396881103516,4.4260358810424805,1.390000000000001
-0.7533706426620483,1.036961555480957,4.277921676635742,1.400000000000001
-0.709043025970459,-0.07989025115966797,4.0811052322387695,1.410000000000001
-0.5641262531280518,-1.3378915786743164,3.715324640274048,1.420000000000001
-0.23067998886108398,-2.8925118446350098,3.099792003631592,1.430000000000001
0.022745609283447266,-4.439393043518066,2.5589654445648193,1.440000000000001
-0.21930325031280518,-5.497902870178223,2.2329297065734863,1.450000000000001
-0.9406695365905762,-5.645929336547852,2.0719399452209473,1.460000000000001
-1.5970617532730103,-4.808855056762695,1.9249906539916992,1.470000000000001
-1.9171782732009888,-3.4789624214172363,1.6511938571929932,1.480000000000001
-1.8701801300048828,-2.026012897491455,1.1286730766296387,1.490000000000001
-1.7004474401474,-0.6806230545043945,0.4844188690185547,1.500000000000001
-1.48686683177948,0.4539613723754883,-0.3657360076904297,1.5100000000000011
-1.399026870727539,1.574563980102539,-1.3168907165527344,1.5200000000000011
-1.2988731861114502,2.764204978942871,-2.424497604370117,1.5300000000000011
-1.394333004951477,4.020790100097656,-3.935434579849243,1.5400000000000011
-2.009058952331543,5.344549179077148,-5.690570831298828,1.5500000000000012
-2.617433547973633,6.569640159606934,-7.2823805809021,1.5600000000000012
-3.2041053771972656,7.551210403442383,-8.53425121307373,1.5700000000000012
-3.5100350379943848,8.235118865966797,-9.101688385009766,1.5800000000000012
-3.679475784301758,8.540705680847168,-8.71441650390625,1.5900000000000012
-3.8802287578582764,8.523528099060059,-7.506696701049805,1.6000000000000012
-3.6264641284942627,7.956515312194824,-6.335537910461426,1.6100000000000012
-3.1526269912719727,6.434279441833496,-5.482134819030762,1.6200000000000012
-2.573755979537964,4.222648620605469,-4.30519962310791,1.6300000000000012
-2.370482921600342,1.9006385803222656,-3.6667561531066895,1.6400000000000012
-2.4557104110717773,-0.32489967346191406,-4.081235885620117,1.6500000000000012
-2.4219818115234375,-2.2795214653015137,-4.7993483543396,1.6600000000000013
-1.9551936388015747,-3.5924620628356934,-5.241128921508789,1.6700000000000013
-1.2229171991348267,-4.077376842498779,-5.386669158935547,1.6800000000000013
-0.6795181035995483,-4.206048488616943,-5.468486785888672,1.6900000000000013
-0.3068406581878662,-4.375939846038818,-5.4214887619018555,1.7000000000000013
-0.06415581703186035,-4.422186851501465,-5.238064289093018,1.7100000000000013
0.3470863699913025,-4.254014492034912,-4.865884780883789,1.7200000000000013
1.0918850898742676,-3.878544807434082,-4.284225940704346,1.7300000000000013
1.8765764236450195,-3.4009127616882324,-3.5486159324645996,1.7400000000000013
2.8418307304382324,-2.756229877471924,-2.8817145824432373,1.7500000000000013
3.6684513092041016,-1.8839445114135742,-2.746201753616333,1.7600000000000013
4.01214075088501,-0.8785572052001953,-3.206655979156494,1.7700000000000014
3.878481864929199,-0.11422252655029297,-3.95527720451355,1.7800000000000014
3.4048452377319336,0.3795309066772461,-4.902709007263184,1.7900000000000014
2.739912509918213,0.5632419586181641,-5.801621913909912,1.8000000000000014
2.4264347553253174,0.49050045013427734,-6.4458489418029785,1.8100000000000014
2.341446876525879,0.2550935745239258,-6.8462443351745605,1.8200000000000014
2.0879220962524414,0.4786243438720703,-6.928246974945068,1.8300000000000014
1.4174015522003174,0.8586111068725586,-6.795696258544922,1.8400000000000014
0.6311448216438293,1.2170734405517578,-6.179855823516846,1.8500000000000014
-0.022720038890838623,1.5339527130126953,-5.0735764503479,1.8600000000000014
-0.11970353126525879,1.6076374053955078,-3.315314769744873,1.8700000000000014
0.43401187658309937,1.2871980667114258,-1.0893256664276123,1.8800000000000014
0.5177550315856934,0.8094377517700195,0.7554097175598145,1.8900000000000015
-0.07831394672393799,0.4541139602661133,1.9042173624038696,1.9000000000000015
-0.16527026891708374,0.14721202850341797,1.6914770603179932,1.9100000000000015
-0.3784511089324951,-0.3047199249267578,1.0885114669799805,1.9200000000000015
-0.5638343691825867,-0.6120786666870117,0.6835407018661499,1.9300000000000015
-0.5122383236885071,-0.9257326126098633,0.5273892283439636,1.9400000000000015
-0.2598322629928589,-1.2624397277832031,0.5616560578346252,1.9500000000000015
-0.0046086907386779785,-1.500204086303711,0.6277456283569336,1.9600000000000015
0.1341891884803772,-1.6248741149902344,0.683029055595398,1.9700000000000015
0.11082446575164795,-1.5602083206176758,0.6038620471954346,1.9800000000000015
-0.08942258358001709,-1.4548330307006836,0.5086199045181274,1.9900000000000015
-0.14810502529144287,-1.3925209045410156,0.42935308814048767,2.0000000000000013
-0.20981550216674805,-1.394618034362793,0.28027886152267456,2.010000000000001
0.019185781478881836,-1.2695655822753906,0.1879642903804779,2.020000000000001
0.2505079507827759,-1.208700180053711,0.19073492288589478,2.0300000000000007
0.219032883644104,-0.9775915145874023,0.3387385904788971,2.0400000000000005
0.13998949527740479,-0.593226432800293,0.8805579543113708,2.0500000000000003
0.4360664486885071,-0.30692481994628906,1.771405816078186,2.06
0.3754010796546936,-0.5084991455078125,1.955323576927185,2.07
0.7247418165206909,-1.1711320877075195,1.9475728273391724,2.0799999999999996
1.1201564073562622,-1.7060213088989258,1.5367125272750854,2.0899999999999994
1.6319833993911743,-2.0367050170898438,1.3395740985870361,2.099999999999999
1.7800779342651367,-2.149056911468506,1.1682467460632324,2.109999999999999
1.86384916305542,-1.9023165702819824,1.0335944890975952,2.1199999999999988
1.5742924213409424,-1.4931583404541016,0.7476054430007935,2.1299999999999986
1.6535215377807617,-1.2900190353393555,0.6357306241989136,2.1399999999999983
1.7809128761291504,-1.2184267044067383,0.8480609655380249,2.149999999999998
1.5445518493652344,-1.060628890991211,0.7686893939971924,2.159999999999998
1.4593273401260376,-1.0581445693969727,0.7167810201644897,2.1699999999999977
1.372397780418396,-0.9117870330810547,0.7073515057563782,2.1799999999999975
1.3199653625488281,-0.8368082046508789,0.7053986191749573,2.1899999999999973
1.218381643295288,-0.8234310150146484,0.7261558771133423,2.199999999999997
1.134921908378601,-0.7973623275756836,0.5902135372161865,2.209999999999997
1.0435625314712524,-0.8063383102416992,0.5847187042236328,2.2199999999999966
0.9924031496047974,-0.7856178283691406,0.70503169298172,2.2299999999999964
0.7181040644645691,-0.7256498336791992,0.8287290930747986,2.239999999999996
0.4814087152481079,-0.5930051803588867,1.0436968803405762,2.249999999999996
0.3516479730606079,-0.37099742889404297,1.402097463607788,2.259999999999996
0.1637389063835144,-0.08600711822509766,1.84124755859375,2.2699999999999956
0.1137920618057251,0.1591014862060547,2.336925506591797,2.2799999999999954
0.1561645269393921,0.3237419128417969,2.8792333602905273,2.289999999999995
0.27435970306396484,0.49407958984375,3.3525495529174805,2.299999999999995
0.5070012211799622,0.629359245300293,3.7198853492736816,2.3099999999999947
0.7898170948028564,0.7796163558959961,3.840914726257324,2.3199999999999945
1.1928565502166748,0.7796182632446289,3.88875412940979,2.3299999999999943
1.5056430101394653,1.0166120529174805,3.807058334350586,2.339999999999994
1.6200125217437744,1.3392457962036133,3.6257739067077637,2.349999999999994
1.7839560508728027,1.7422828674316406,3.473576068878174,2.3599999999999937
1.7424131631851196,2.213397979736328,3.3196873664855957,2.3699999999999934
1.6896833181381226,2.5920867919921875,3.186635971069336,2.3799999999999932
1.7344330549240112,2.8257064819335938,3.003464698791504,2.389999999999993
2.153927803039551,2.904905319213867,2.88319993019104,2.399999999999993
2.723515510559082,2.892099380493164,2.749427318572998,2.4099999999999926
3.3074326515197754,2.866299629211426,2.573171615600586,2.4199999999999924
3.8606553077697754,2.9278364181518555,2.351489543914795,2.429999999999992
4.117692470550537,3.028585433959961,2.0839061737060547,2.439999999999992
4.358278751373291,3.1874284744262695,1.8226940631866455,2.4499999999999917
4.426000595092773,3.4208498001098633,1.5727927684783936,2.4599999999999915
4.42271614074707,3.5804662704467773,1.4929008483886719,2.4699999999999913
4.452819347381592,3.6186981201171875,1.6034296751022339,2.479999999999991
4.424769401550293,3.5406856536865234,1.8817315101623535,2.489999999999991
4.192456245422363,3.6599016189575195,2.1441829204559326,2.4999999999999907
3.904846429824829,3.7896032333374023,2.304354667663574,2.5099999999999905
3.3615036010742188,4.063534736633301,2.306375503540039,2.5199999999999902
2.634779691696167,4.507654190063477,2.218642234802246,2.52999999999999
1.708524227142334,5.0356292724609375,2.1386287212371826,2.53999999999999
0.595169186592102,5.463281631469727,2.116276264190674,2.5499999999999896
-0.34305763244628906,5.743132591247559,2.098869562149048,2.5599999999999894
-0.875231146812439,5.720184326171875,2.0452632904052734,2.569999999999989
-1.0908873081207275,5.368624687194824,1.9039747714996338,2.579999999999989
-1.02535080909729,4.640857696533203,1.6275166273117065,2.5899999999999888
-0.6600146293640137,3.7448883056640625,1.1388213634490967,2.5999999999999885
-0.06975996494293213,2.9196395874023438,0.6861374378204346,2.6099999999999883
0.4750096797943115,2.1362972259521484,0.2623223066329956,2.619999999999988
0.8449123501777649,1.1154518127441406,-0.09464669227600098,2.629999999999988
1.169255018234253,0.1427602767944336,-0.5434426069259644,2.6399999999999877
1.1971551179885864,-0.7307672500610352,-1.1395094394683838,2.6499999999999875
1.0181899070739746,-1.5738754272460938,-1.7220937013626099,2.6599999999999873
0.5618533492088318,-2.0106520652770996,-2.2191381454467773,2.669999999999987
-0.3273271322250366,-2.0098557472229004,-2.2606444358825684,2.679999999999987
-0.9691956043243408,-1.7434420585632324,-1.9311070442199707,2.6899999999999866
-1.217255711555481,-0.8498344421386719,-1.6748985052108765,2.6999999999999864
-1.0664935111999512,0.6613779067993164,-1.4817050695419312,2.709999999999986
-0.9159419536590576,1.950261116027832,-1.5888315439224243,2.719999999999986
-0.7909156084060669,2.818352699279785,-1.7361700534820557,2.7299999999999858
-0.6510061025619507,2.9525146484375,-1.8843785524368286,2.7399999999999856
-1.0242512226104736,2.7308778762817383,-1.8928258419036865,2.7499999999999853
-1.596462368965149,2.729593276977539,-1.785785436630249,2.759999999999985
-2.037961483001709,3.3066444396972656,-1.577013611793518,2.769999999999985
-2.417292594909668,4.044929504394531,-1.2340794801712036,2.7799999999999847
-2.928657054901123,4.673738479614258,-0.7914842963218689,2.7899999999999845
-3.4885921478271484,5.259956359863281,-0.3878667950630188,2.7999999999999843
-4.1192216873168945,5.710483551025391,-0.24039018154144287,2.809999999999984
-4.4875993728637695,5.872674942016602,-0.18662071228027344,2.819999999999984
-4.602772235870361,5.620194435119629,-0.2549169063568115,2.8299999999999836
-4.483523845672607,5.427186012268066,-0.5073198080062866,2.8399999999999834
-4.373414516448975,5.0427141189575195,-0.7183037996292114,2.849999999999983
-4.37467622756958,4.643922805786133,-0.692095160484314,2.859999999999983
-4.294588088989258,4.225855827331543,-0.5142078399658203,2.869999999999983
-3.8649916648864746,3.745377540588379,-0.4228370189666748,2.8799999999999826
-3.3678781986236572,3.173765182495117,-0.44091105461120605,2.8899999999999824
-3.2698917388916016,2.8455686569213867,-0.524099588394165,2.899999999999982
-3.3267502784729004,2.606747627258301,-0.6006829738616943,2.909999999999982
-2.9802393913269043,2.5139827728271484,-1.1948933601379395,2.9199999999999817
-2.0943961143493652,2.529348373413086,-2.2956464290618896,2.9299999999999815
-1.1375693082809448,2.409756660461426,-3.304654598236084,2.9399999999999813
0.10790902376174927,1.8192119598388672,-4.162431716918945,2.949999999999981
0.815543532371521,1.4041996002197266,-5.62497091293335,2.959999999999981
1.5248475074768066,0.777195930480957,-6.925625801086426,2.9699999999999807
1.495140552520752,-0.06341934204101562,-7.70970344543457,2.9799999999999804
1.5212759971618652,-0.46904754638671875,-7.723062515258789,2.9899999999999802
1.3553721904754639,-0.4810953140258789,-7.939146041870117,2.99999999999998
1.0266659259796143,-0.4904203414916992,-7.736892223358154,3.00999999999998
1.1241365671157837,-0.4547004699707031,-7.174986839294434,3.0199999999999796
1.6007013320922852,-0.3668556213378906,-6.256633758544922,3.0299999999999794
2.1823601722717285,-0.561589241027832,-5.42774772644043,3.039999999999979
2.6542322635650635,-0.8740220069885254,-4.768838882446289,3.049999999999979
2.895219087600708,-1.3170490264892578,-4.392222881317139,3.0599999999999787
2.8906493186950684,-1.8167610168457031,-4.813173294067383,3.0699999999999785
2.711306095123291,-2.3872146606445312,-5.478772163391113,3.0799999999999783
2.2790369987487793,-3.0952625274658203,-5.793405532836914,3.089999999999978
2.0175273418426514,-3.8570990562438965,-5.929664611816406,3.099999999999978
1.766968011856079,-4.3861589431762695,-5.719634056091309,3.1099999999999777
1.3192490339279175,-4.793834686279297,-5.3557305335998535,3.1199999999999775
0.8678634166717529,-5.129354476928711,-4.8938374519348145,3.1299999999999772
0.5044507384300232,-5.358030319213867,-4.297207355499268,3.139999999999977
0.3731287717819214,-5.526268482208252,-3.8141942024230957,3.149999999999977
0.215928316116333,-5.546084403991699,-3.617116928100586,3.1599999999999766
-5.776882171630859E-4,-5.585219860076904,-3.5151495933532715,3.1699999999999764
0.09457874298095703,-5.6602783203125,-3.544593334197998,3.179999999999976
-0.19609427452087402,-5.604643821716309,-3.5583343505859375,3.189999999999976
-0.6675206422805786,-5.879294395446777,-2.6148126125335693,3.1999999999999758
-0.9218295812606812,-6.0518293380737305,-1.964733600616455,3.2099999999999755
-1.0878559350967407,-6.234780788421631,-1.698625087738037,3.2199999999999753
-1.1779282093048096,-6.341829299926758,-1.6276304721832275,3.229999999999975
-1.2645530700683594,-6.449150085449219,-1.6877968311309814,3.239999999999975
-1.3502525091171265,-6.470126628875732,-1.8486332893371582,3.2499999999999747
-1.5448572635650635,-6.456975936889648,-1.945565938949585,3.2599999999999745
-1.7764614820480347,-6.473793983459473,-2.0294265747070312,3.2699999999999743
-1.8606054782867432,-6.412252902984619,-2.11287260055542,3.279999999999974
-1.7903475761413574,-6.403446197509766,-2.1151180267333984,3.289999999999974
-1.6644843816757202,-6.293893814086914,-2.0271737575531006,3.2999999999999736
-1.4715650081634521,-6.26265287399292,-1.8352532386779785,3.3099999999999734
-1.384191632270813,-6.311769485473633,-1.484656572341919,3.319999999999973
-1.3214480876922607,-6.266547203063965,-1.0639150142669678,3.329999999999973
-1.3313459157943726,-6.203495979309082,-0.6901125907897949,3.3399999999999728
-1.263021469116211,-6.143840789794922,-0.34644317626953125,3.3499999999999726
-1.139800786972046,-5.972352027893066,6.208419799804688E-4,3.3599999999999723
-1.0730311870574951,-5.573817253112793,0.31514596939086914,3.369999999999972
-0.9392827749252319,-5.098487377166748,0.6520214080810547,3.379999999999972
-0.8209060430526733,-4.287230968475342,0.9721264839172363,3.3899999999999717
-0.7791192531585693,-2.981400489807129,1.3765678405761719,3.3999999999999715
-0.69112229347229,-1.1272964477539062,1.9912705421447754,3.4099999999999713
-0.5992780923843384,1.3103570938110352,2.6098084449768066,3.419999999999971
-0.3316839933395386,4.2280378341674805,3.398919105529785,3.429999999999971
0.008255243301391602,6.870445251464844,4.265885353088379,3.4399999999999706
-0.06285393238067627,9.10867977142334,4.8454790115356445,3.4499999999999704
-0.8241246938705444,10.696610450744629,5.11253547668457,3.45999999999997
-2.1300947666168213,11.727991104125977,5.186520576477051,3.46999999999997
-3.7156410217285156,12.437504768371582,4.936463832855225,3.47999999999997
-5.060379505157471,12.779825210571289,4.530178070068359,3.4899999999999696
-5.508420467376709,12.119047164916992,3.992872476577759,3.4999999999999694
-4.8019795417785645,10.355052947998047,3.684692859649658,3.509999999999969
-3.928572654724121,8.357782363891602,3.8844754695892334,3.519999999999969
-3.1186769008636475,6.307231903076172,4.175642967224121,3.5299999999999687
-2.5728354454040527,4.089756011962891,4.324913501739502,3.5399999999999685
-2.241580009460449,2.2120018005371094,4.324751853942871,3.5499999999999683
-2.0322117805480957,0.7643213272094727,4.274348258972168,3.559999999999968
-1.8171333074569702,-0.3952045440673828,4.15334415435791,3.569999999999968
-1.5129072666168213,-1.5734820365905762,3.9078972339630127,3.5799999999999677
-1.0340580940246582,-2.7707419395446777,3.545686721801758,3.5899999999999674
-0.5945514440536499,-3.8722329139709473,3.2003726959228516,3.5999999999999672
-0.5376054048538208,-4.512218952178955,3.0744645595550537,3.609999999999967
-0.8298097848892212,-4.239482402801514,2.8473165035247803,3.619999999999967
-0.9724398851394653,-3.2182092666625977,2.5469043254852295,3.6299999999999666
-0.9744571447372437,-1.8399834632873535,2.250028610229492,3.6399999999999664
-0.8035262823104858,-0.5537958145141602,1.9262423515319824,3.649999999999966
-0.5904642343521118,0.6703720092773438,1.322108507156372,3.659999999999966
-0.6139988899230957,1.5978641510009766,0.25223326683044434,3.6699999999999657
-0.6012686491012573,2.3734874725341797,-1.0072963237762451,3.6799999999999655
-0.813552975654602,3.3032302856445312,-2.4697937965393066,3.6899999999999653
-0.7855507135391235,4.083273887634277,-4.029331207275391,3.699999999999965
-1.244789958000183,4.766439437866211,-5.73422908782959,3.709999999999965
-1.8858940601348877,5.442946434020996,-7.014616012573242,3.7199999999999647
-2.170707941055298,5.814851760864258,-7.916110038757324,3.7299999999999645
-2.4183621406555176,5.894588470458984,-8.118846893310547,3.7399999999999642
-2.7801570892333984,5.6722211837768555,-7.746691703796387,3.749999999999964
-2.8151817321777344,5.006216049194336,-7.06673526763916,3.759999999999964
-2.431100606918335,3.915743827819824,-6.802774429321289,3.7699999999999636
-2.051063060760498,2.512598991394043,-6.171475410461426,3.7799999999999634
-1.620422601699829,1.0439825057983398,-5.38728141784668,3.789999999999963
-1.4848389625549316,-0.07350921630859375,-4.851049900054932,3.799999999999963
-1.559329867362976,-1.0661077499389648,-4.782443046569824,3.8099999999999627
-1.4922980070114136,-1.8146781921386719,-4.772036075592041,3.8199999999999625
-1.1609230041503906,-2.389038562774658,-4.73337459564209,3.8299999999999623
-0.7967004776000977,-2.7158966064453125,-4.719825267791748,3.839999999999962
-0.27596914768218994,-2.743295669555664,-4.591141700744629,3.849999999999962
0.2643512487411499,-2.6460189819335938,-4.392416000366211,3.8599999999999617
0.7964345216751099,-2.5001959800720215,-4.158211708068848,3.8699999999999615
1.4744269847869873,-2.2261791229248047,-3.7181010246276855,3.8799999999999613
2.216027021408081,-1.6989479064941406,-3.181668281555176,3.889999999999961
2.8367700576782227,-1.011143684387207,-2.8594143390655518,3.899999999999961
3.392726421356201,-0.2790060043334961,-3.0930237770080566,3.9099999999999606
3.759880781173706,0.4748859405517578,-3.743875503540039,3.9199999999999604
3.6708805561065674,1.046248435974121,-4.767750263214111,3.92999999999996
3.245718002319336,1.3860864639282227,-5.830842018127441,3.93999999999996
2.6437201499938965,1.2177715301513672,-6.665830135345459,3.9499999999999598
2.3489198684692383,0.7812042236328125,-7.107946872711182,3.9599999999999596
2.1292724609375,0.6840181350708008,-7.300808906555176,3.9699999999999593
1.541200876235962,0.8060302734375,-7.213590621948242,3.979999999999959
0.9493904113769531,1.0220069885253906,-6.617110252380371,3.989999999999959
0.7058491706848145,1.1920557022094727,-5.300246715545654,3.9999999999999587
1.008862853050232,1.0570011138916016,-3.1095991134643555,4.009999999999959
1.5244888067245483,0.6381072998046875,-0.650191605091095,4.019999999999959
1.3889446258544922,0.21245288848876953,1.6358274221420288,4.0299999999999585
0.778261661529541,-0.22736167907714844,2.5305728912353516,4.039999999999958
0.6056041121482849,-0.5158910751342773,2.0703694820404053,4.049999999999958
0.3671143651008606,-0.7390642166137695,1.340707778930664,4.059999999999958
0.05669736862182617,-1.0284175872802734,0.841386616230011,4.069999999999958
-0.0775071382522583,-1.3145332336425781,0.43652772903442383,4.079999999999957
-0.25082671642303467,-1.5830888748168945,0.21356505155563354,4.089999999999957
-0.35764622688293457,-1.8556828498840332,0.09328633546829224,4.099999999999957
-0.4388906955718994,-1.7451434135437012,-0.01883488893508911,4.109999999999957
-0.05109584331512451,-1.5508489608764648,-0.1880578100681305,4.119999999999957
0.2363772988319397,-1.6839103698730469,-0.3609898090362549,4.129999999999956
0.05382204055786133,-1.7326135635375977,-0.48654064536094666,4.139999999999956
-0.40560948848724365,-1.7043991088867188,-0.5261402130126953,4.149999999999956
-0.8717312812805176,-1.7859125137329102,-0.40589192509651184,4.159999999999956
-0.8608701229095459,-1.6852302551269531,-0.12603485584259033,4.1699999999999555
-0.595710277557373,-1.4982147216796875,0.2327236384153366,4.179999999999955
-0.37784016132354736,-1.509516716003418,0.4005271792411804,4.189999999999955
-0.10170316696166992,-1.6279783248901367,0.5660879611968994,4.199999999999955
0.1704310178756714,-1.8104238510131836,0.7673438787460327,4.209999999999955
0.3544952869415283,-1.8966140747070312,1.0186983346939087,4.2199999999999545
0.5678260922431946,-1.9775238037109375,1.241398811340332,4.229999999999954
1.119940161705017,-1.9860553741455078,1.5632809400558472,4.239999999999954
1.0960843563079834,-1.7263031005859375,1.5808870792388916,4.249999999999954
1.1966626644134521,-1.6530075073242188,1.4036469459533691,4.259999999999954
1.182814598083496,-1.5722236633300781,1.0305356979370117,4.269999999999953
1.5846484899520874,-1.40008544921875,0.9517711400985718,4.279999999999953
1.6462196111679077,-1.1653661727905273,0.9569945335388184,4.289999999999953
1.2949005365371704,-0.7869863510131836,0.8143619298934937,4.299999999999953
1.2766995429992676,-0.5808486938476562,0.5090232491493225,4.3099999999999525
1.4501609802246094,-0.5251674652099609,0.46037283539772034,4.319999999999952
1.4467140436172485,-0.3948974609375,0.5284196138381958,4.329999999999952
1.4817821979522705,-0.3359203338623047,0.42653509974479675,4.339999999999952
1.5124212503433228,-0.3552265167236328,0.4398001432418823,4.349999999999952
1.464573621749878,-0.4120168685913086,0.515303373336792,4.3599999999999515
1.43397855758667,-0.41295623779296875,0.6934416890144348,4.369999999999951
1.45204758644104,-0.33413028717041016,0.9666438102722168,4.379999999999951
1.3896645307540894,-0.2282400131225586,1.3103944063186646,4.389999999999951
1.2949278354644775,-0.057094573974609375,1.661645770072937,4.399999999999951
1.1751041412353516,0.12657928466796875,2.000704288482666,4.40999999999995
1.1141202449798584,0.3825349807739258,2.396592140197754,4.41999999999995
1.0499706268310547,0.6150350570678711,2.786797523498535,4.42999999999995
1.0232539176940918,0.8981647491455078,3.1518123149871826,4.43999999999995
0.930856466293335,1.0667228698730469,3.366647720336914,4.4499999999999496
0.9450225830078125,1.1469402313232422,3.408822536468506,4.459999999999949
1.104235053062439,1.1530780792236328,3.3754048347473145,4.469999999999949
1.1955974102020264,1.2858591079711914,3.2918245792388916,4.479999999999949
1.1802581548690796,1.5495843887329102,3.15498685836792,4.489999999999949
1.1558072566986084,1.8721141815185547,3.0746002197265625,4.4999999999999485
1.1168255805969238,2.2030277252197266,3.074801445007324,4.509999999999948
0.9860281944274902,2.582940101623535,3.197092294692993,4.519999999999948
0.9855956435203552,2.882770538330078,3.3204636573791504,4.529999999999948
1.213791012763977,2.9616661071777344,3.2995781898498535,4.539999999999948
1.6735618114471436,2.8103981018066406,3.1583023071289062,4.549999999999947
2.2076339721679688,2.651613235473633,2.927258014678955,4.559999999999947
2.65344500541687,2.654857635498047,2.5720105171203613,4.569999999999947
3.053924560546875,2.721674919128418,2.151766300201416,4.579999999999947
3.4180703163146973,2.887674331665039,1.7835819721221924,4.589999999999947
3.840569496154785,2.923086166381836,1.501349925994873,4.599999999999946
4.169726848602295,2.89023494720459,1.281925916671753,4.609999999999946
4.529134750366211,2.901656150817871,1.212460994720459,4.619999999999946
4.709921836853027,2.8402938842773438,1.3277760744094849,4.629999999999946
4.762054443359375,2.8379650115966797,1.5239231586456299,4.6399999999999455
4.675844192504883,2.911501884460449,1.7732088565826416,4.649999999999945
4.329224109649658,2.9986658096313477,1.9779555797576904,4.659999999999945
3.7773585319519043,3.1017236709594727,2.125885009765625,4.669999999999945
3.109194755554199,3.2038040161132812,2.256953001022339,4.679999999999945
2.3250436782836914,3.2975902557373047,2.360697031021118,4.689999999999944
1.545224666595459,3.3949174880981445,2.4071929454803467,4.699999999999944
0.7561408877372742,3.5769100189208984,2.3709914684295654,4.709999999999944
-0.019728899002075195,3.757274627685547,2.2745933532714844,4.719999999999944
-0.6233565807342529,3.787900924682617,2.3326451778411865,4.729999999999944
-1.0971870422363281,3.7336864471435547,2.403677463531494,4.739999999999943
-1.1249089241027832,3.578052520751953,2.434290885925293,4.749999999999943
-0.632156491279602,3.222928047180176,2.3484182357788086,4.759999999999943
0.14627313613891602,2.756683349609375,2.186504364013672,4.769999999999943
0.9706255793571472,2.0739612579345703,1.840897798538208,4.7799999999999425
1.6617344617843628,1.2825870513916016,1.1707868576049805,4.789999999999942
1.9539930820465088,0.11282157897949219,0.39139723777770996,4.799999999999942
2.117846727371216,-0.9656257629394531,-0.5992922782897949,4.809999999999942
1.8860430717468262,-1.9450984001159668,-1.6770204305648804,4.819999999999942
1.3642969131469727,-2.6747922897338867,-2.512678623199463,4.8299999999999415
0.6861791610717773,-2.7789711952209473,-2.854893207550049,4.839999999999941
0.023119449615478516,-2.701725482940674,-2.605168581008911,4.849999999999941
-0.46998751163482666,-2.257842540740967,-2.302741527557373,4.859999999999941
-0.6848076581954956,-0.5264396667480469,-2.572530508041382,4.869999999999941
-0.8582500219345093,1.3862781524658203,-2.624469757080078,4.87999999999994
-0.6097073554992676,2.5210256576538086,-2.430454969406128,4.88999999999994
-0.37154269218444824,3.1818408966064453,-2.1032819747924805,4.89999999999994
-0.48592162132263184,3.203597068786621,-1.6557694673538208,4.90999999999994
-0.6193387508392334,3.141307830810547,-1.2129595279693604,4.9199999999999395
-0.41075897216796875,3.293771743774414,-0.9908211827278137,4.929999999999939
-0.40996015071868896,3.734712600708008,-0.9027528762817383,4.939999999999939
-0.7421276569366455,4.552090644836426,-0.8182873129844666,4.949999999999939
-1.2521723508834839,5.415323257446289,-0.638493001461029,4.959999999999939
-2.2520928382873535,6.070754051208496,-0.48795807361602783,4.9699999999999385
-3.293738603591919,6.6023359298706055,-0.47584062814712524,4.979999999999938
-3.8173868656158447,6.8430681228637695,-0.7264547944068909,4.989999999999938
-4.034482955932617,6.590221405029297,-0.8754040002822876,4.999999999999938
-4.201678276062012,6.138614654541016,-0.9046124219894409,5.009999999999938
-4.402728080749512,5.620169639587402,-0.8508502244949341,5.019999999999937
-4.7596635818481445,5.190523147583008,-0.7935700416564941,5.029999999999937
-5.103296279907227,4.677400588989258,-0.7208930253982544,5.039999999999937
-5.348991394042969,4.013754844665527,-0.620436429977417,5.049999999999937
-5.347410202026367,3.3834142684936523,-0.4834768772125244,5.0599999999999365
-4.889228343963623,3.027101516723633,-0.28610849380493164,5.069999999999936
-4.413352966308594,2.869386672973633,-0.0112457275390625,5.079999999999936
-3.533687114715576,2.675053596496582,-0.15195655822753906,5.089999999999936
-2.4687857627868652,2.5321455001831055,-0.8713486194610596,5.099999999999936
-1.276512861251831,2.3126068115234375,-2.1628317832946777,5.1099999999999355
0.3228069245815277,1.924856185913086,-3.222050428390503,5.119999999999935
1.0895971059799194,1.7043609619140625,-4.272820472717285,5.129999999999935
1.5036466121673584,1.369187355041504,-5.984856605529785,5.139999999999935
2.1756131649017334,0.7334690093994141,-8.221155166625977,5.149999999999935
2.1994564533233643,0.08441352844238281,-8.805116653442383,5.159999999999934
1.9222896099090576,-0.37462806701660156,-9.23403263092041,5.169999999999934
1.6450088024139404,-0.6582269668579102,-9.1785249710083,5.179999999999934
1.8381011486053467,-0.721287727355957,-8.569768905639648,5.189999999999934
2.637627124786377,-0.8434057235717773,-7.412325382232666,5.199999999999934
3.2120018005371094,-1.0507264137268066,-5.829714775085449,5.209999999999933
3.6455624103546143,-1.5422611236572266,-4.547914981842041,5.219999999999933
4.034613132476807,-2.1343793869018555,-4.238272190093994,5.229999999999933
3.8648505210876465,-2.727214813232422,-4.591660499572754,5.239999999999933
3.2865898609161377,-3.5029468536376953,-5.242735862731934,5.2499999999999325
2.538010358810425,-4.177175045013428,-5.941718101501465,5.259999999999932
1.8132014274597168,-4.912973403930664,-6.255247592926025,5.269999999999932
1.2687878608703613,-5.222979545593262,-6.271303653717041,5.279999999999932
0.8356804847717285,-5.0008769035339355,-5.740355014801025,5.289999999999932
0.3638418912887573,-4.836507797241211,-5.037416458129883,5.299999999999931
-0.039533257484436035,-4.625734806060791,-4.262148857116699,5.309999999999931
-0.3889058828353882,-4.500881195068359,-3.6893582344055176,5.319999999999931
-0.05755877494812012,-4.384903907775879,-3.6641976833343506,5.329999999999931
-0.5122222900390625,-4.222930908203125,-3.9279417991638184,5.339999999999931
-0.8428114652633667,-4.559293270111084,-3.0679209232330322,5.34999999999993
-1.066744327545166,-4.873132228851318,-2.4927902221679688,5.35999999999993
-1.365679383277893,-5.105392932891846,-2.2085683345794678,5.36999999999993
-1.476426124572754,-5.342617034912109,-1.8702540397644043,5.37999999999993
-1.6558805704116821,-5.496132850646973,-1.7655420303344727,5.3899999999999295
-1.8159897327423096,-5.591996192932129,-1.7083992958068848,5.399999999999929
-1.9445070028305054,-5.7325897216796875,-1.7448837757110596,5.409999999999929
-1.96178138256073,-5.785527229309082,-1.8997557163238525,5.419999999999929
-1.92188560962677,-5.908008098602295,-2.092245578765869,5.429999999999929
-1.903462529182434,-6.039693832397461,-2.1649441719055176,5.4399999999999284
-1.658075213432312,-6.161280632019043,-2.067887544631958,5.449999999999928
-1.5141197443008423,-6.299010753631592,-1.9088926315307617,5.459999999999928
-1.25668203830719,-6.352235794067383,-1.7909972667694092,5.469999999999928
-0.9794796705245972,-6.433109760284424,-1.6355464458465576,5.479999999999928
-0.890674352645874,-6.397679805755615,-1.4597599506378174,5.489999999999927
-0.7804338932037354,-6.601996421813965,-1.1063733100891113,5.499999999999927
-0.7328740358352661,-6.462175369262695,-0.6138620376586914,5.509999999999927
-0.7569760084152222,-6.042880058288574,-0.3218984603881836,5.519999999999927
-0.7804192304611206,-5.623660564422607,-0.1110696792602539,5.5299999999999265
-0.8195145130157471,-5.029447555541992,0.18811511993408203,5.539999999999926
-0.9329394102096558,-4.1402153968811035,0.4697895050048828,5.549999999999926
-1.1145210266113281,-2.802295684814453,0.7398748397827148,5.559999999999926
-1.4761279821395874,-1.050776481628418,1.1034088134765625,5.569999999999926
-1.593564748764038,0.9295053482055664,1.5865001678466797,5.5799999999999255
-1.5395450592041016,2.9523000717163086,2.236956834793091,5.589999999999925
-1.3482224941253662,5.09841251373291,3.339355230331421,5.599999999999925
-1.4114737510681152,7.077685356140137,4.567653656005859,5.609999999999925
-2.017874002456665,8.651768684387207,5.41464900970459,5.619999999999925
-2.9348015785217285,9.624332427978516,5.745924949645996,5.629999999999924
-3.631112575531006,10.316547393798828,5.876474380493164,5.639999999999924
-4.134551525115967,10.69058609008789,5.886033058166504,5.649999999999924
-4.170982360839844,10.526849746704102,5.701663970947266,5.659999999999924
-3.78454852104187,9.784936904907227,5.552977085113525,5.6699999999999235
-3.201714038848877,8.493193626403809,5.465155601501465,5.679999999999923
-2.672227621078491,6.896980285644531,5.359684944152832,5.689999999999923
-2.1539463996887207,5.177005767822266,5.125100135803223,5.699999999999923
-1.5144808292388916,3.586336135864258,4.851835250854492,5.709999999999923
-1.0932410955429077,2.167743682861328,4.733990669250488,5.7199999999999225
-0.8495134115219116,0.9542264938354492,4.75521993637085,5.729999999999922
-0.5920619964599609,-0.18425941467285156,4.704135894775391,5.739999999999922
-0.27317142486572266,-1.480463981628418,4.415241241455078,5.749999999999922
0.21976196765899658,-2.889166831970215,3.8899667263031006,5.759999999999922
0.6958014965057373,-4.085052013397217,3.4038314819335938,5.769999999999921
0.5831567049026489,-4.793521404266357,3.076446056365967,5.779999999999921
-0.0561448335647583,-4.666487216949463,2.8364946842193604,5.789999999999921
-0.5996646881103516,-3.825129985809326,2.613650321960449,5.799999999999921
-0.8704602718353271,-2.6727514266967773,2.297374725341797,5.809999999999921
-0.8144667148590088,-1.366178035736084,1.8782401084899902,5.81999999999992
-0.5474334955215454,-0.27731990814208984,1.3256821632385254,5.82999999999992
-0.3665127754211426,0.6029748916625977,0.5678331851959229,5.83999999999992
-0.13893496990203857,1.4477195739746094,-0.5722486972808838,5.84999999999992
-0.21852004528045654,2.5963306427001953,-1.9760363101959229,5.8599999999999195
-0.4607086181640625,3.8051652908325195,-3.510723114013672,5.869999999999919
-0.9750392436981201,5.024406433105469,-5.319123268127441,5.879999999999919
-1.7625473737716675,6.471153259277344,-6.9950103759765625,5.889999999999919
-2.5285115242004395,7.880485534667969,-8.194684028625488,5.899999999999919
-3.312403678894043,8.717008590698242,-8.795223236083984,5.909999999999918
-4.115630149841309,8.864105224609375,-8.73748779296875,5.919999999999918
-4.652013301849365,8.52104663848877,-8.118576049804688,5.929999999999918
-4.895467281341553,7.4037017822265625,-7.171579837799072,5.939999999999918
-4.665032386779785,5.3582353591918945,-6.300707817077637,5.949999999999918
-3.7605412006378174,3.131044387817383,-4.763991355895996,5.959999999999917
-2.952791213989258,1.0063858032226562,-3.6146531105041504,5.969999999999917
-2.7728800773620605,-1.0435152053833008,-3.4892075061798096,5.979999999999917
-2.886814594268799,-2.9421348571777344,-4.178938865661621,5.989999999999917
-2.692612409591675,-4.426377773284912,-4.86093807220459,5.9999999999999165
-2.2305080890655518,-5.003727912902832,-5.187416076660156,6.009999999999916
-1.7817301750183105,-5.196017742156982,-5.356276035308838,6.019999999999916
-1.461892008781433,-5.177874565124512,-5.313479423522949,6.029999999999916
-0.8991918563842773,-5.011376857757568,-5.0600385665893555,6.039999999999916
-0.1958523988723755,-4.689208030700684,-4.625638008117676,6.0499999999999154
0.6272189021110535,-4.1561713218688965,-3.9087581634521484,6.059999999999915
1.3840287923812866,-3.67291259765625,-2.908012628555298,6.069999999999915
2.143231153488159,-2.9545750617980957,-2.0687966346740723,6.079999999999915
2.819981575012207,-1.9289474487304688,-1.8348013162612915,6.089999999999915
3.1876955032348633,-0.8749618530273438,-2.167754650115967,6.099999999999914
3.2290749549865723,0.04359626770019531,-2.9917044639587402,6.109999999999914
2.586308479309082,0.4929695129394531,-4.082086563110352,6.119999999999914
1.90781831741333,0.651118278503418,-5.228229522705078,6.129999999999914
1.4647389650344849,0.7121944427490234,-6.044414520263672,6.1399999999999135
1.145382046699524,0.7382392883300781,-6.742648124694824,6.149999999999913
1.2324947118759155,1.0229606628417969,-7.30644416809082,6.159999999999913
1.4781670570373535,1.709024429321289,-7.603677749633789,6.169999999999913
1.5871424674987793,2.475083351135254,-7.538070201873779,6.179999999999913
1.496388554573059,2.9045581817626953,-6.793256759643555,6.1899999999999125
1.521207332611084,2.724691390991211,-4.9960174560546875,6.199999999999912
2.2039685249328613,2.148186683654785,-1.8870973587036133,6.209999999999912
2.8932018280029297,1.1794939041137695,1.8564949035644531,6.219999999999912
2.4677932262420654,0.5149011611938477,3.273890972137451,6.229999999999912
1.629939079284668,0.3793182373046875,2.933363676071167,6.239999999999911
0.9865585565567017,0.05287361145019531,2.3896799087524414,6.249999999999911
0.6234537363052368,-0.40894508361816406,1.9663079977035522,6.259999999999911
0.43078237771987915,-0.9413394927978516,1.5985841751098633,6.269999999999911
0.4232137203216553,-1.3721446990966797,1.3386359214782715,6.2799999999999105
0.5251076817512512,-1.6369943618774414,1.1896388530731201,6.28999999999991
0.7234188914299011,-1.9082608222961426,1.0236926078796387,6.29999999999991
0.8748977184295654,-1.7556304931640625,0.7107716798782349,6.30999999999991
0.9943999648094177,-1.7487659454345703,0.2669649124145508,6.31999999999991
0.6726986169815063,-1.5384693145751953,-0.1586742401123047,6.3299999999999095
0.3436747193336487,-1.4453630447387695,-0.4441172480583191,6.339999999999909
0.10157984495162964,-1.3831348419189453,-0.6155890822410583,6.349999999999909
-0.129463791847229,-1.4066810607910156,-0.3881567418575287,6.359999999999909
-0.36321473121643066,-1.0017566680908203,0.137213796377182,6.369999999999909
-0.58507239818573,-0.8957815170288086,0.8501441478729248,6.379999999999908
-0.5996619462966919,-1.050206184387207,1.4239734411239624,6.389999999999908
-0.147019624710083,-1.4312572479248047,1.637693166732788,6.399999999999908
0.41091740131378174,-1.7804059982299805,1.5642859935760498,6.409999999999908
0.6117538809776306,-1.82753324508667,1.2476359605789185,6.419999999999908
0.9376826286315918,-2.0917391777038574,1.0195246934890747,6.429999999999907
1.0210906267166138,-2.1518354415893555,0.9314322471618652,6.439999999999907
0.9240446090698242,-1.9268388748168945,0.9009624719619751,6.449999999999907
0.9217461943626404,-1.704075813293457,0.8314720392227173,6.459999999999907
0.8901866674423218,-1.5409212112426758,0.7703131437301636,6.4699999999999065
0.7646042704582214,-1.3369073867797852,0.8252674341201782,6.479999999999906
0.6785743832588196,-1.1710014343261719,0.8105524778366089,6.489999999999906
0.7110320329666138,-0.9737548828125,0.710275411605835,6.499999999999906
0.6968289017677307,-0.7690515518188477,0.6233498454093933,6.509999999999906
0.7173776626586914,-0.6787290573120117,0.5555914044380188,6.519999999999905
0.7630669474601746,-0.6642694473266602,0.5676232576370239,6.529999999999905
0.6927565336227417,-0.6680927276611328,0.5903514623641968,6.539999999999905
0.635759711265564,-0.6853370666503906,0.6354998350143433,6.549999999999905
0.5466005802154541,-0.5868282318115234,0.7911423444747925,6.559999999999905
0.4658476710319519,-0.42527198791503906,1.0546388626098633,6.569999999999904
0.31686627864837646,-0.2317819595336914,1.4138048887252808,6.579999999999904
0.21698564291000366,-0.0063495635986328125,1.8850398063659668,6.589999999999904
0.18770217895507812,0.27971553802490234,2.3890295028686523,6.599999999999904
0.23875391483306885,0.49241065979003906,2.7671000957489014,6.6099999999999035
0.3680482506752014,0.7298002243041992,3.0781335830688477,6.619999999999903
0.5256406664848328,0.9415130615234375,3.3472938537597656,6.629999999999903
0.8387219905853271,1.050912857055664,3.585305690765381,6.639999999999903
0.9269619584083557,1.2228574752807617,3.8004684448242188,6.649999999999903
0.9744259715080261,1.3971424102783203,3.9986634254455566,6.659999999999902
1.0906989574432373,1.5878076553344727,4.222134590148926,6.669999999999902
1.195789098739624,1.8854036331176758,4.386936187744141,6.679999999999902
1.4205065965652466,2.124619483947754,4.457371234893799,6.689999999999902
1.8048028945922852,2.2839126586914062,4.503318786621094,6.699999999999902
2.223801374435425,2.4134902954101562,4.333691596984863,6.709999999999901
2.7087130546569824,2.5036964416503906,3.9938337802886963,6.719999999999901
3.3939123153686523,2.6525230407714844,3.521671772003174,6.729999999999901
3.977872371673584,2.809556007385254,2.984035015106201,6.739999999999901
4.580095291137695,2.9531450271606445,2.426271438598633,6.7499999999999005
4.968151569366455,3.083250045776367,1.8798058032989502,6.7599999999999
5.327869415283203,3.175967216491699,1.364628791809082,6.7699999999999
5.641269207000732,3.2816572189331055,1.042543649673462,6.7799999999999
5.902676582336426,3.3383970260620117,1.0516694784164429,6.7899999999999
6.149411201477051,3.3990964889526367,1.226254940032959,6.7999999999998995
6.148938179016113,3.334789276123047,1.5817724466323853,6.809999999999899
5.840791702270508,3.331968307495117,2.0249199867248535,6.819999999999899
5.0973310470581055,3.4139909744262695,2.34900164604187,6.829999999999899
4.2987518310546875,3.5204763412475586,2.6289525032043457,6.839999999999899
3.5057106018066406,3.5435800552368164,2.9468204975128174,6.849999999999898
2.5760538578033447,3.605245590209961,3.1884801387786865,6.859999999999898
1.5260497331619263,3.7437429428100586,3.3766040802001953,6.869999999999898
0.4968106746673584,3.861276626586914,3.577665328979492,6.879999999999898
-0.4407386779785156,3.917478561401367,3.540255308151245,6.8899999999998975
-1.216537594795227,3.8192996978759766,3.240461826324463,6.899999999999897
-1.5479718446731567,3.5909290313720703,2.711733341217041,6.909999999999897
-1.5711878538131714,3.354466438293457,2.142328977584839,6.919999999999897
-1.1976099014282227,2.8848562240600586,1.6806771755218506,6.929999999999897
-0.6481068134307861,2.2560949325561523,1.2213099002838135,6.9399999999998965
-0.014270901679992676,1.6713485717773438,0.83608078956604,6.949999999999896
0.4690142869949341,1.0230321884155273,0.4280664920806885,6.959999999999896
0.8447158336639404,0.18497943878173828,-0.019104957580566406,6.969999999999896
0.9571775794029236,-0.28258323669433594,-0.9023317098617554,6.979999999999896
0.7681171894073486,-0.917510986328125,-1.7160645723342896,6.989999999999895
0.45453500747680664,-1.4129447937011719,-2.2548046112060547,6.999999999999895
0.14024758338928223,-1.7611308097839355,-2.381296157836914,7.009999999999895
-0.3792154788970947,-1.6744213104248047,-2.187694549560547,7.019999999999895
-0.8576847314834595,-1.205322265625,-1.9569599628448486,7.0299999999998946
-1.1338938474655151,0.03129005432128906,-2.030989408493042,7.039999999999894
-1.3813083171844482,1.6717147827148438,-2.0420289039611816,7.049999999999894
-1.601744294166565,2.6973533630371094,-1.6531981229782104,7.059999999999894
-1.650683045387268,3.539252281188965,-1.2706167697906494,7.069999999999894
-1.6847877502441406,3.9649219512939453,-1.2205888032913208,7.0799999999998935
-1.7418915033340454,3.9430837631225586,-1.3507375717163086,7.089999999999893
-1.4694210290908813,3.8948192596435547,-1.4023600816726685,7.099999999999893
-1.3129137754440308,4.161919593811035,-1.5788081884384155,7.109999999999893
-1.7138571739196777,4.815436363220215,-1.722519040107727,7.119999999999893
-2.74585223197937,5.457622528076172,-1.7383511066436768,7.129999999999892
-3.8858044147491455,5.937640190124512,-1.4567893743515015,7.139999999999892
-4.963644027709961,6.2652740478515625,-0.9839415550231934,7.149999999999892
-5.7876129150390625,6.495878219604492,-0.49108952283859253,7.159999999999892
-6.01663064956665,6.47200870513916,-0.2075434923171997,7.169999999999892
-5.9029951095581055,6.062711715698242,-0.20516395568847656,7.179999999999891
-5.786187171936035,5.567541122436523,-0.32335150241851807,7.189999999999891
-5.806817531585693,5.1445722579956055,-0.3410770893096924,7.199999999999891
-5.932965278625488,4.535588264465332,-0.2807384729385376,7.209999999999891
-5.845814228057861,3.7765588760375977,-0.1370697021484375,7.2199999999998905
-5.530379295349121,3.1040306091308594,0.22531843185424805,7.22999999999989
-4.709286212921143,2.7924013137817383,0.5215146541595459,7.23999999999989
-3.7190306186676025,2.467532157897949,0.642078161239624,7.24999999999989
-2.829972982406616,2.2322044372558594,0.15660405158996582,7.25999999999989
-2.0849246978759766,1.8830442428588867,-0.5327703952789307,7.269999999999889
-1.5513492822647095,1.7330665588378906,-1.6804810762405396,7.279999999999889
-0.5410308241844177,1.980647087097168,-2.777387857437134,7.289999999999889
0.6319753527641296,1.7443628311157227,-4.243506908416748,7.299999999999889
1.961034893989563,1.134781837463379,-7.595378875732422,7.309999999999889
2.560744524002075,0.39585018157958984,-8.024907112121582,7.319999999999888
2.2536988258361816,-0.22633075714111328,-7.732078552246094,7.329999999999888
1.6669206619262695,-0.46395301818847656,-8.119226455688477,7.339999999999888
1.2905433177947998,-0.3585672378540039,-8.182300567626953,7.349999999999888
1.4722685813903809,-0.4275197982788086,-7.554775714874268,7.3599999999998875
2.112245559692383,-0.6111030578613281,-6.696063995361328,7.369999999999887
2.8544654846191406,-0.8640384674072266,-5.548793792724609,7.379999999999887
3.4443631172180176,-1.0837702751159668,-4.753864765167236,7.389999999999887
3.565042495727539,-1.2158074378967285,-4.482337474822998,7.399999999999887
3.5557241439819336,-1.5354418754577637,-4.7139129638671875,7.4099999999998865
3.025161027908325,-2.037975311279297,-5.279574394226074,7.419999999999886
2.2419512271881104,-2.8003101348876953,-5.718374252319336,7.429999999999886
1.5531179904937744,-3.3317413330078125,-6.207550525665283,7.439999999999886
0.9814774394035339,-3.64162015914917,-6.537337779998779,7.449999999999886
0.3606919050216675,-4.115756511688232,-6.281571388244629,7.459999999999885
-0.19612622261047363,-4.635418891906738,-5.8055033683776855,7.469999999999885
-0.42862915992736816,-4.934167861938477,-5.005029678344727,7.479999999999885
-0.6574450731277466,-5.013632774353027,-4.175785541534424,7.489999999999885
-0.6408480405807495,-5.03265905380249,-3.694897174835205,7.4999999999998845
-0.19603419303894043,-4.919193267822266,-3.687061309814453,7.509999999999884
-0.949622631072998,-4.852675437927246,-4.4869704246521,7.519999999999884
-1.5207700729370117,-5.22752571105957,-3.2170989513397217,7.529999999999884
-1.644587516784668,-5.494747161865234,-2.489454746246338,7.539999999999884
-1.6727843284606934,-5.769889831542969,-2.0612940788269043,7.5499999999998835
-1.7318283319473267,-5.900204181671143,-1.939246416091919,7.559999999999883
-1.5875436067581177,-5.940683841705322,-1.8939356803894043,7.569999999999883
-1.5113472938537598,-5.939048767089844,-1.849480152130127,7.579999999999883
-1.4543545246124268,-5.849344730377197,-2.067819833755493,7.589999999999883
-1.2544530630111694,-5.771335601806641,-2.279697895050049,7.599999999999882
-1.129663109779358,-5.747282981872559,-2.4432120323181152,7.609999999999882
-1.094192385673523,-5.766722679138184,-2.7149415016174316,7.619999999999882
-0.8583954572677612,-5.828930854797363,-2.940115213394165,7.629999999999882
-0.6260095834732056,-5.928650379180908,-2.9878358840942383,7.6399999999998816
-0.4354928731918335,-5.991690635681152,-2.903669595718384,7.649999999999881
-0.3224470615386963,-6.001267433166504,-2.7784695625305176,7.659999999999881
-0.22208774089813232,-5.9598188400268555,-2.5856821537017822,7.669999999999881
-0.07464909553527832,-5.807521820068359,-2.241537570953369,7.679999999999881
0.014443755149841309,-5.61610221862793,-1.8608951568603516,7.6899999999998805
0.02320683002471924,-5.4211812019348145,-1.432079792022705,7.69999999999988
0.08561205863952637,-5.203350067138672,-0.8977737426757812,7.70999999999988
0.14419615268707275,-4.983757495880127,-0.34674882888793945,7.71999999999988
0.14906132221221924,-4.811982154846191,0.14397764205932617,7.72999999999988
0.13459599018096924,-4.565337181091309,0.7247095108032227,7.739999999999879
-0.10121381282806396,-3.984797954559326,1.2798047065734863,7.749999999999879
-0.46035540103912354,-3.150848388671875,1.7864556312561035,7.759999999999879
-0.8783416748046875,-1.913874626159668,2.3497533798217773,7.769999999999879
-1.5659542083740234,-0.30599308013916016,2.9852116107940674,7.779999999999879
-2.1675174236297607,1.5398902893066406,3.632838487625122,7.789999999999878
-2.7479007244110107,3.4303436279296875,4.284895896911621,7.799999999999878
-3.344578981399536,5.19322395324707,4.805083274841309,7.809999999999878
-3.847550630569458,6.788029670715332,5.100375652313232,7.819999999999878
-4.675833702087402,8.241459846496582,5.1865081787109375,7.8299999999998775
-5.371306896209717,9.72387981414795,5.208963871002197,7.839999999999877
-5.82618522644043,11.254775047302246,5.202725887298584,7.849999999999877
-5.831112384796143,12.583001136779785,5.261678695678711,7.859999999999877
-5.682885646820068,13.137017250061035,5.343514442443848,7.869999999999877
-5.134939670562744,12.292206764221191,5.532486915588379,7.879999999999876
-4.132369518280029,10.019097328186035,5.928530693054199,7.889999999999876
-3.010382652282715,7.250051498413086,5.969854354858398,7.899999999999876
-2.243008613586426,4.654576301574707,5.585359573364258,7.909999999999876
-1.8420215845108032,2.7275495529174805,5.161296844482422,7.919999999999876
-1.5136762857437134,1.1860198974609375,4.908918380737305,7.929999999999875
-1.1634489297866821,-0.30802059173583984,4.738785743713379,7.939999999999875
-0.864142656326294,-1.898585319519043,4.2868828773498535,7.949999999999875
-0.703370213508606,-3.537937641143799,3.657252550125122,7.959999999999875
-0.7307295799255371,-4.876961708068848,3.1588659286499023,7.9699999999998745
-1.0941658020019531,-5.5983452796936035,2.8019165992736816,7.979999999999874
-1.5851829051971436,-5.622342109680176,2.631093740463257,7.989999999999874
-2.038222551345825,-4.934104919433594,2.5027928352355957,7.999999999999874
