AccX,AccY,AccZ,SampleRate
1.1193366050720215,-0.8267030715942383,-1.1352319717407227,0
1.22163724899292,-1.9320602416992188,-1.5632091760635376,0.01
1.1303541660308838,-2.5720415115356445,-1.826334834098816,0.02
1.0188624858856201,-3.15585994720459,-1.977622151374817,0.03
0.8048464059829712,-3.302618980407715,-2.213627576828003,0.04
0.4828205108642578,-2.980731964111328,-2.3564560413360596,0.05
0.5146564245223999,-1.8238725662231445,-2.2911839485168457,0.060000000000000005
0.8281301856040955,0.4524421691894531,-2.059893846511841,0.07
0.6595274806022644,2.6323204040527344,-1.1798174381256104,0.08
0.4690788984298706,3.9211111068725586,-0.8066470623016357,0.09
0.269382119178772,4.643871307373047,-1.0406179428100586,0.09999999999999999
0.3051161766052246,5.156797409057617,-1.5617109537124634,0.10999999999999999
0.4605121612548828,5.672823905944824,-2.0318894386291504,0.11999999999999998
0.10633611679077148,6.000792503356934,-2.350543975830078,0.12999999999999998
-0.5870418548583984,6.1243743896484375,-2.3253302574157715,0.13999999999999999
-1.3288414478302002,6.146869659423828,-1.9999840259552002,0.15
-2.1610755920410156,6.224126815795898,-1.756227731704712,0.16
-3.230715036392212,6.411269187927246,-1.6534209251403809,0.17
-4.105486869812012,6.4500532150268555,-1.6074484586715698,0.18000000000000002
-4.694410800933838,6.364640235900879,-1.5673964023590088,0.19000000000000003
-5.066823959350586,6.133586883544922,-1.3496103286743164,0.20000000000000004
-5.28463077545166,5.8358154296875,-0.9493260383605957,0.21000000000000005
-5.569692611694336,5.583562850952148,-0.5670831203460693,0.22000000000000006
-5.732079982757568,5.256991386413574,-0.29303741455078125,0.23000000000000007
-5.858924865722656,5.030442237854004,0.06043505668640137,0.24000000000000007
-5.7525858879089355,4.714491844177246,0.4611380100250244,0.25000000000000006
-5.231578350067139,4.172628402709961,0.876823902130127,0.26000000000000006
-4.259521961212158,3.7442703247070312,0.8976731300354004,0.2700000000000001
-3.5362401008605957,3.591196060180664,0.5094492435455322,0.2800000000000001
-2.7594985961914062,3.576181411743164,-0.3099842071533203,0.2900000000000001
-1.9757273197174072,3.5101022720336914,-1.5435528755187988,0.3000000000000001
-1.0089020729064941,3.510500907897949,-3.6602234840393066,0.3100000000000001
0.33349213004112244,3.184309959411621,-5.436532974243164,0.3200000000000001
1.1556894779205322,2.639561653137207,-8.079061508178711,0.3300000000000001
1.7652738094329834,1.646463394165039,-10.503219604492188,0.34000000000000014
1.4538160562515259,0.9003973007202148,-9.986395835876465,0.35000000000000014
1.3820319175720215,0.2042551040649414,-9.480792999267578,0.36000000000000015
1.148348093032837,-0.6269826889038086,-8.498960494995117,0.37000000000000016
1.1087844371795654,-0.8716897964477539,-7.341550827026367,0.38000000000000017
1.5791414976119995,-0.9299068450927734,-6.44880485534668,0.3900000000000002
1.5286813974380493,-1.1103405952453613,-6.324525833129883,0.4000000000000002
1.9149370193481445,-1.4319405555725098,-6.37693977355957,0.4100000000000002
2.1026620864868164,-1.8757033348083496,-6.272831916809082,0.4200000000000002
2.102729082107544,-2.3074135780334473,-6.97838020324707,0.4300000000000002
2.026468276977539,-2.7626614570617676,-7.737239360809326,0.4400000000000002
1.9217016696929932,-3.3658876419067383,-7.88421106338501,0.45000000000000023
1.8307628631591797,-4.2178215980529785,-7.562552452087402,0.46000000000000024
1.5850489139556885,-4.946028709411621,-7.30938720703125,0.47000000000000025
1.2829680442810059,-5.478023052215576,-6.496168613433838,0.48000000000000026
1.1100729703903198,-5.74117374420166,-5.8058695793151855,0.49000000000000027
1.03862464427948,-5.944853782653809,-5.366448402404785,0.5000000000000002
1.0336744785308838,-6.013419151306152,-4.957122802734375,0.5100000000000002
0.9935723543167114,-6.036129951477051,-4.687646389007568,0.5200000000000002
1.2950981855392456,-5.984165191650391,-4.926541805267334,0.5300000000000002
0.8171065449714661,-5.884543418884277,-5.129768371582031,0.5400000000000003
-0.07421755790710449,-5.856274604797363,-4.4447340965271,0.5500000000000003
-0.6935316324234009,-5.890771389007568,-3.9430112838745117,0.5600000000000003
-1.3064528703689575,-5.876251220703125,-3.5042665004730225,0.5700000000000003
-1.5429857969284058,-6.097968101501465,-2.860179901123047,0.5800000000000003
-1.6505308151245117,-6.22840690612793,-2.1591882705688477,0.5900000000000003
-1.739377498626709,-6.418008804321289,-1.8729751110076904,0.6000000000000003
-1.886305809020996,-6.513301849365234,-1.6501355171203613,0.6100000000000003
-2.263808250427246,-6.631085395812988,-1.5032529830932617,0.6200000000000003
-2.6663174629211426,-6.792049407958984,-1.6173906326293945,0.6300000000000003
-2.933257579803467,-6.9427876472473145,-1.7873082160949707,0.6400000000000003
-2.978451728820801,-7.011008262634277,-1.893829107284546,0.6500000000000004
-2.8355953693389893,-7.020120620727539,-1.9686346054077148,0.6600000000000004
-2.514293909072876,-6.979103088378906,-1.902313232421875,0.6700000000000004
-2.2874910831451416,-6.882689952850342,-1.8078866004943848,0.6800000000000004
-2.105587959289551,-6.7448954582214355,-1.5758299827575684,0.6900000000000004
-1.8694416284561157,-6.673036098480225,-1.2187755107879639,0.7000000000000004
-1.6555498838424683,-6.348574161529541,-0.8901009559631348,0.7100000000000004
-1.4580285549163818,-5.869107246398926,-0.6140398979187012,0.7200000000000004
-1.4020086526870728,-5.145213603973389,-0.3914828300476074,0.7300000000000004
-1.3112893104553223,-4.082761287689209,0.04178667068481445,0.7400000000000004
-1.2802404165267944,-2.731276512145996,0.543027400970459,0.7500000000000004
-1.1968120336532593,-1.0963869094848633,1.1927947998046875,0.7600000000000005
-0.9582523107528687,0.8438444137573242,1.7863612174987793,0.7700000000000005
-0.782313346862793,3.3622751235961914,2.723539352416992,0.7800000000000005
-0.8928300142288208,5.9732465744018555,4.021638870239258,0.7900000000000005
-1.4602946043014526,8.203805923461914,5.258601188659668,0.8000000000000005
-2.5478076934814453,9.651448249816895,5.890244483947754,0.8100000000000005
-3.8620848655700684,10.496654510498047,6.060299873352051,0.8200000000000005
-5.087774753570557,11.340677261352539,6.214310169219971,0.8300000000000005
-5.964127063751221,12.173745155334473,6.484785556793213,0.8400000000000005
-6.311803340911865,12.82271957397461,6.628293037414551,0.8500000000000005
-5.550759315490723,12.141303062438965,6.378057479858398,0.8600000000000005
-4.131089210510254,10.600884437561035,6.027769088745117,0.8700000000000006
-3.0096869468688965,8.590591430664062,5.920158863067627,0.8800000000000006
-2.1884918212890625,6.430514335632324,5.652925491333008,0.8900000000000006
-1.4240379333496094,4.259490013122559,5.157657623291016,0.9000000000000006
-0.8342092037200928,2.1517229080200195,4.789050102233887,0.9100000000000006
-0.4232829809188843,0.29088592529296875,4.595722675323486,0.9200000000000006
-0.0894845724105835,-1.532144546508789,4.51894998550415,0.9300000000000006
0.053974270820617676,-3.0217337608337402,4.210902214050293,0.9400000000000006
0.4497237205505371,-4.563558101654053,3.6103765964508057,0.9500000000000006
0.5499130487442017,-6.064573287963867,2.9885497093200684,0.9600000000000006
0.17737329006195068,-7.090484619140625,2.6363372802734375,0.9700000000000006
-0.597883939743042,-7.0883917808532715,2.479604721069336,0.9800000000000006
-1.206769585609436,-6.158900260925293,2.159675121307373,0.9900000000000007
-1.3539154529571533,-4.916354179382324,1.6238727569580078,1.0000000000000007
-1.0398985147476196,-3.584348201751709,0.7407381534576416,1.0100000000000007
-0.7823196649551392,-2.225667953491211,-0.5371203422546387,1.0200000000000007
-0.5540426969528198,-1.0048422813415527,-2.229874610900879,1.0300000000000007
-0.16979765892028809,-0.01043701171875,-4.131680011749268,1.0400000000000007
0.05005240440368652,1.0746889114379883,-6.184573650360107,1.0500000000000007
-0.38955891132354736,2.9118003845214844,-7.97664737701416,1.0600000000000007
-1.1564443111419678,5.287615776062012,-9.346261978149414,1.0700000000000007
-2.08358097076416,7.9585723876953125,-10.256881713867188,1.0800000000000007
-3.3038055896759033,10.225844383239746,-10.921765327453613,1.0900000000000007
-4.2186737060546875,11.93846607208252,-11.432170867919922,1.1000000000000008
-5.67017936706543,12.615446090698242,-11.037579536437988,1.1100000000000008
-6.77979850769043,12.321639060974121,-10.03857421875,1.1200000000000008
-6.30302095413208,11.98000717163086,-7.101876735687256,1.1300000000000008
-5.46917724609375,9.686699867248535,-4.132038593292236,1.1400000000000008
-4.925710678100586,5.739658355712891,-2.947774648666382,1.1500000000000008
-4.356492519378662,2.0055923461914062,-3.487159252166748,1.1600000000000008
-3.926177501678467,-0.7067270278930664,-4.597533702850342,1.1700000000000008
-3.558164119720459,-2.407548427581787,-5.160971164703369,1.1800000000000008
-2.6359081268310547,-3.609508991241455,-5.169628143310547,1.1900000000000008
-1.6629480123519897,-4.375125885009766,-4.885749816894531,1.2000000000000008
-0.7551673650741577,-4.728720188140869,-4.508807182312012,1.2100000000000009
0.1105852723121643,-4.725668430328369,-3.9749770164489746,1.2200000000000009
0.9076442122459412,-4.512184143066406,-3.3972127437591553,1.2300000000000009
1.6840394735336304,-4.313340187072754,-2.9139773845672607,1.2400000000000009
2.6138906478881836,-4.1094584465026855,-2.8058011531829834,1.2500000000000009
3.385943651199341,-3.9256153106689453,-3.1153616905212402,1.260000000000001
3.6662938594818115,-3.397171974182129,-3.775167942047119,1.270000000000001
3.48367977142334,-3.0210142135620117,-4.669951915740967,1.280000000000001
3.4191322326660156,-2.667384624481201,-5.386801242828369,1.290000000000001
3.551440477371216,-2.1062536239624023,-6.106422424316406,1.300000000000001
3.9285168647766113,-1.2417325973510742,-6.942859172821045,1.310000000000001
4.070676326751709,-0.12892818450927734,-7.899947166442871,1.320000000000001
3.620462417602539,1.0235214233398438,-8.475436210632324,1.330000000000001
2.5852210521698,2.0405759811401367,-8.779709815979004,1.340000000000001
1.5129480361938477,2.84342098236084,-8.968191146850586,1.350000000000001
0.5119448900222778,3.138157844543457,-8.880611419677734,1.360000000000001
0.29529136419296265,2.8723058700561523,-7.792986869812012,1.370000000000001
1.1778160333633423,2.3037681579589844,-4.237634658813477,1.380000000000001
2.3421847820281982,1.6829547882080078,0.9443191289901733,1.390000000000001
1.8796180486679077,0.9811849594116211,4.758012771606445,1.400000000000001
0.7577769756317139,0.5893774032592773,4.55575704574585,1.410000000000001
-0.10494446754455566,0.48181629180908203,3.496791362762451,1.420000000000001
-0.6740145087242126,0.024926185607910156,2.6703364849090576,1.430000000000001
-1.1194851398468018,-0.5800743103027344,2.1821060180664062,1.440000000000001
-1.1467208862304688,-1.2592849731445312,2.2238521575927734,1.450000000000001
-0.4821804165840149,-1.872023582458496,2.8923087120056152,1.460000000000001
-0.1261448860168457,-2.2060561180114746,3.583449363708496,1.470000000000001
-0.5069887638092041,-2.3863844871520996,3.681981325149536,1.480000000000001
-0.6041358113288879,-1.8345322608947754,3.290088653564453,1.490000000000001
-0.5226519107818604,-1.6106700897216797,2.7579524517059326,1.500000000000001
-0.3241744041442871,-1.4561033248901367,2.0903995037078857,1.5100000000000011
-0.22068989276885986,-1.2439537048339844,1.5380042791366577,1.5200000000000011
-0.05917161703109741,-1.4573450088500977,1.1970744132995605,1.5300000000000011
0.5546494722366333,-1.8279685974121094,1.0070041418075562,1.5400000000000011
0.7869126200675964,-1.7077455520629883,0.5596910119056702,1.5500000000000012
1.2696739435195923,-1.6806755065917969,0.012979000806808472,1.5600000000000012
1.6326625347137451,-1.799159049987793,-0.2189214825630188,1.5700000000000012
1.624612808227539,-1.9004435539245605,-0.6435182690620422,1.5800000000000012
1.6138322353363037,-2.1662983894348145,-0.8708148002624512,1.5900000000000012
1.7942438125610352,-2.517550468444824,-0.8479182720184326,1.6000000000000012
1.8840577602386475,-2.7244629859924316,-0.6994633674621582,1.6100000000000012
1.8720027208328247,-2.6364898681640625,-0.4445846676826477,1.6200000000000012
1.5620861053466797,-2.0124573707580566,-0.1954229474067688,1.6300000000000012
1.2989964485168457,-1.5846576690673828,0.026837170124053955,1.6400000000000012
0.9772908091545105,-1.2523384094238281,0.2803933024406433,1.6500000000000012
0.7812540531158447,-1.098928451538086,0.429796040058136,1.6600000000000013
0.7470829486846924,-0.9638128280639648,0.4949282705783844,1.6700000000000013
0.6527112722396851,-0.7487316131591797,0.5170228481292725,1.6800000000000013
0.45273149013519287,-0.5349197387695312,0.5873671174049377,1.6900000000000013
0.16833585500717163,-0.2003173828125,0.8160491585731506,1.7000000000000013
-0.1147528886795044,0.14258861541748047,1.0828245878219604,1.7100000000000013
-0.19288480281829834,0.49866580963134766,1.4562804698944092,1.7200000000000013
-0.21156597137451172,0.8799324035644531,1.9186972379684448,1.7300000000000013
-0.12468826770782471,1.2409734725952148,2.4761643409729004,1.7400000000000013
0.041840434074401855,1.565058708190918,3.0510094165802,1.7500000000000013
0.31686490774154663,1.825784683227539,3.6322765350341797,1.7600000000000013
0.6526870727539062,2.027681350708008,4.026614665985107,1.7700000000000014
1.0395357608795166,2.151125907897949,4.310535430908203,1.7800000000000014
1.5252747535705566,2.028244972229004,4.596560478210449,1.7900000000000014
1.829646110534668,2.2875137329101562,4.686375617980957,1.8000000000000014
2.008650064468384,2.66464900970459,4.671858787536621,1.8100000000000014
2.1564571857452393,3.044149398803711,4.686487674713135,1.8200000000000014
2.2859292030334473,3.516554832458496,4.604004859924316,1.8300000000000014
2.292689323425293,3.9501142501831055,4.435351371765137,1.8400000000000014
2.441899299621582,4.2182512283325195,4.244117736816406,1.8500000000000014
2.848917007446289,4.261678695678711,4.0290703773498535,1.8600000000000014
3.3303890228271484,4.076125144958496,3.8003296852111816,1.8700000000000014
3.865638256072998,3.874821662902832,3.4193387031555176,1.8800000000000014
4.289661884307861,3.806070327758789,2.9462637901306152,1.8900000000000015
4.6454057693481445,3.702383041381836,2.4079246520996094,1.9000000000000015
4.879730701446533,3.5473175048828125,2.0115091800689697,1.9100000000000015
4.955552101135254,3.3628082275390625,1.7377262115478516,1.9200000000000015
5.041540145874023,3.0990896224975586,1.7517167329788208,1.9300000000000015
5.043612957000732,3.021885871887207,1.9208126068115234,1.9400000000000015
4.863337993621826,3.1571245193481445,2.043836832046509,1.9500000000000015
4.457679748535156,3.3606653213500977,2.1265311241149902,1.9600000000000015
3.840930700302124,3.6197385787963867,2.0513432025909424,1.9700000000000015
2.9482507705688477,3.964548110961914,1.8894429206848145,1.9800000000000015
1.9525063037872314,4.404205322265625,1.7895923852920532,1.9900000000000015
1.3071935176849365,4.783378601074219,1.7965751886367798,2.0000000000000013
0.7551338076591492,4.98777961730957,1.735897421836853,2.010000000000001
0.15820670127868652,4.738070487976074,1.5429084300994873,2.020000000000001
-0.06665515899658203,4.230829238891602,1.0464153289794922,2.0300000000000007
0.04075133800506592,3.518782615661621,0.5738387107849121,2.0400000000000005
0.19754743576049805,2.575664520263672,0.4264944791793823,2.0500000000000003
0.28524839878082275,1.6478309631347656,0.4294450283050537,2.06
0.6283532977104187,0.5847988128662109,0.418239951133728,2.07
0.9021866321563721,-0.6266107559204102,0.2144324779510498,2.0799999999999996
1.011078119277954,-1.6907219886779785,-0.32323527336120605,2.0899999999999994
0.6447674632072449,-2.3483400344848633,-1.2682665586471558,2.099999999999999
0.12233221530914307,-2.6826729774475098,-2.317955493927002,2.109999999999999
-0.5951939821243286,-2.489680290222168,-2.983046293258667,2.1199999999999988
-1.7139818668365479,-1.3626384735107422,-2.877331495285034,2.1299999999999986
-2.5691146850585938,0.4154081344604492,-1.9379017353057861,2.1399999999999983
-2.0429434776306152,2.2363128662109375,-1.2438675165176392,2.149999999999998
-1.2889220714569092,3.442293167114258,-0.550771176815033,2.159999999999998
-1.0372328758239746,3.969038963317871,-0.1444254368543625,2.1699999999999977
-0.8400272130966187,4.307074546813965,0.2993559241294861,2.1799999999999975
-1.161659598350525,4.752494812011719,0.7028301954269409,2.1899999999999973
-1.5042790174484253,5.1949005126953125,0.7265305519104004,2.199999999999997
-1.7988855838775635,5.3692121505737305,0.3743599057197571,2.209999999999997
-2.4305667877197266,5.751614570617676,-0.09607839584350586,2.2199999999999966
-3.308840751647949,6.002058029174805,-0.6343151926994324,2.2299999999999964
-3.818028450012207,5.885953903198242,-1.035141944885254,2.239999999999996
-3.598931074142456,5.405965805053711,-1.2244844436645508,2.249999999999996
-3.089632511138916,5.019293785095215,-1.3078268766403198,2.259999999999996
-2.6750686168670654,4.740345001220703,-1.4342341423034668,2.2699999999999956
-2.6381356716156006,4.461462020874023,-1.544523000717163,2.2799999999999954
-2.753096103668213,4.347495079040527,-1.5692530870437622,2.289999999999995
-2.8923492431640625,4.3931684494018555,-1.4788789749145508,2.299999999999995
-2.874640941619873,4.332584381103516,-1.3774081468582153,2.3099999999999947
-3.031501531600952,4.325665473937988,-1.3727015256881714,2.3199999999999945
-2.9488253593444824,4.651937484741211,-1.6594735383987427,2.3299999999999943
-2.627077102661133,4.708573341369629,-2.3638432025909424,2.339999999999994
-2.30869460105896,4.482010841369629,-3.4458541870117188,2.349999999999994
-2.037400245666504,4.133055686950684,-4.384946823120117,2.3599999999999937
-1.704960823059082,3.766514778137207,-5.000811576843262,2.3699999999999934
-0.9875575304031372,3.1360015869140625,-5.998973846435547,2.3799999999999932
-0.02116161584854126,2.372298240661621,-7.289609432220459,2.389999999999993
0.826621413230896,1.6777000427246094,-8.285236358642578,2.399999999999993
0.9471191167831421,0.7181491851806641,-7.709245681762695,2.4099999999999926
0.9273393750190735,0.14298343658447266,-7.129770278930664,2.4199999999999924
1.0396617650985718,-0.3516387939453125,-6.314936637878418,2.429999999999992
1.54862642288208,-0.678776741027832,-5.592820167541504,2.439999999999992
1.0182936191558838,-0.7130041122436523,-4.153914451599121,2.4499999999999917
0.1672247052192688,-0.47377967834472656,-3.6973371505737305,2.4599999999999915
0.2369575798511505,-0.45671749114990234,-4.002365589141846,2.4699999999999913
0.8606966733932495,-0.9051623344421387,-4.452416896820068,2.479999999999991
1.5479111671447754,-2.072964668273926,-5.3682026863098145,2.489999999999991
2.4657626152038574,-3.2188849449157715,-6.558110237121582,2.4999999999999907
2.6289610862731934,-3.7279720306396484,-6.9872050285339355,2.5099999999999905
2.5056686401367188,-4.389937877655029,-7.457388877868652,2.5199999999999902
2.4141671657562256,-4.949286460876465,-7.422299385070801,2.52999999999999
2.1087839603424072,-5.543462753295898,-7.050774097442627,2.53999999999999
1.960157036781311,-6.01337194442749,-6.47336483001709,2.5499999999999896
1.571023941040039,-6.327080726623535,-5.901636123657227,2.5599999999999894
1.291627287864685,-6.565037250518799,-5.458536148071289,2.569999999999989
1.1020724773406982,-6.723407745361328,-5.2412800788879395,2.579999999999989
0.9893966317176819,-6.845726013183594,-5.125392913818359,2.5899999999999888
1.0942776203155518,-6.8191423416137695,-5.3105292320251465,2.5999999999999885
0.5577284693717957,-6.612860679626465,-5.641233444213867,2.6099999999999883
-0.3418848514556885,-6.6378092765808105,-4.738400459289551,2.619999999999988
-0.8602609634399414,-6.6842570304870605,-4.211784362792969,2.629999999999988
-1.2344368696212769,-6.714295387268066,-3.905304431915283,2.6399999999999877
-1.6396549940109253,-6.591841220855713,-3.6036674976348877,2.6499999999999875
-1.7914422750473022,-6.7762932777404785,-3.2854368686676025,2.6599999999999873
-1.9601104259490967,-6.829547882080078,-3.0035102367401123,2.669999999999987
-2.030585765838623,-6.91654109954834,-2.7915658950805664,2.679999999999987
-2.095118522644043,-7.070589065551758,-2.527318000793457,2.6899999999999866
-2.2298946380615234,-7.11470890045166,-2.117246150970459,2.6999999999999864
-2.518862247467041,-7.228278160095215,-1.8651847839355469,2.709999999999986
-2.536494731903076,-7.27938175201416,-1.670719861984253,2.719999999999986
-2.3677873611450195,-7.2053399085998535,-1.4460883140563965,2.7299999999999858
-2.109128952026367,-7.101226806640625,-1.249528408050537,2.7399999999999856
-1.8922042846679688,-6.97383975982666,-1.0022635459899902,2.7499999999999853
-1.8752695322036743,-6.748841285705566,-0.7665228843688965,2.759999999999985
-1.8771992921829224,-6.3229451179504395,-0.621833324432373,2.769999999999985
-1.876312017440796,-5.721798896789551,-0.33693552017211914,2.7799999999999847
-1.856911301612854,-4.815147399902344,-0.0518803596496582,2.7899999999999845
-1.7043654918670654,-3.6950268745422363,0.3633894920349121,2.7999999999999843
-1.5168330669403076,-2.266406536102295,0.8822908401489258,2.809999999999984
-1.2878304719924927,-0.46449756622314453,1.619147777557373,2.819999999999984
-1.1735693216323853,1.7805023193359375,2.7441210746765137,2.8299999999999836
-1.1163650751113892,4.22260856628418,4.065936088562012,2.8399999999999834
-1.04121732711792,6.862356185913086,5.128671646118164,2.849999999999983
-1.4445427656173706,9.132168769836426,5.5399861335754395,2.859999999999983
-2.2044527530670166,10.61459732055664,5.4345269203186035,2.869999999999983
-3.5215625762939453,11.59587287902832,5.083518028259277,2.8799999999999826
-5.0276265144348145,12.614655494689941,5.132620811462402,2.8899999999999824
-6.378023624420166,13.414216995239258,4.989225387573242,2.899999999999982
-6.8305768966674805,13.328569412231445,4.699433326721191,2.909999999999982
-6.156631946563721,11.941167831420898,4.747601509094238,2.9199999999999817
-5.203606605529785,9.675475120544434,5.118523597717285,2.9299999999999815
-4.365843772888184,7.183937072753906,5.626248359680176,2.9399999999999813
-3.6416425704956055,4.980063438415527,5.833308219909668,2.949999999999981
-3.002431869506836,2.984370231628418,5.770287036895752,2.959999999999981
-2.493992805480957,1.2324132919311523,5.548585891723633,2.9699999999999807
-2.0148088932037354,-0.4483776092529297,5.279101371765137,2.9799999999999804
-1.5938833951950073,-2.1107521057128906,4.804043769836426,2.9899999999999802
-1.0955514907836914,-3.577651023864746,4.15411901473999,2.99999999999998
-1.1665778160095215,-4.772764682769775,3.3552982807159424,3.00999999999998
-1.5318490266799927,-5.505215644836426,2.6181325912475586,3.0199999999999796
-1.7094521522521973,-5.7071614265441895,2.3133151531219482,3.0299999999999794
-1.8205440044403076,-5.24948787689209,2.059643268585205,3.039999999999979
-2.0187742710113525,-4.232704162597656,1.6356759071350098,3.049999999999979
-2.0248522758483887,-3.1081485748291016,0.8478121757507324,3.0599999999999787
-1.939217448234558,-2.106226921081543,-0.42829108238220215,3.0699999999999785
-1.8499755859375,-1.365602970123291,-2.1241395473480225,3.0799999999999783
-1.9721029996871948,-0.5954980850219727,-3.973215341567993,3.089999999999978
-2.136744499206543,0.24960803985595703,-5.606906890869141,3.099999999999978
-2.1581389904022217,1.394993782043457,-7.158132553100586,3.1099999999999777
-2.180316925048828,2.9575090408325195,-8.56026840209961,3.1199999999999775
-2.4652833938598633,4.526907920837402,-9.766012191772461,3.1299999999999772
-2.4751062393188477,5.960623741149902,-10.8555908203125,3.139999999999977
-2.5350022315979004,7.232787132263184,-11.317681312561035,3.149999999999977
-3.27844500541687,8.421673774719238,-10.95534610748291,3.1599999999999766
-3.6511006355285645,9.463994026184082,-9.611708641052246,3.1699999999999764
-3.2155442237854004,10.254674911499023,-7.26589298248291,3.179999999999976
-1.8752566576004028,10.762022972106934,-4.852540493011475,3.189999999999976
-1.3400312662124634,8.922009468078613,-4.42588996887207,3.1999999999999758
-1.577035665512085,5.838066101074219,-4.789857864379883,3.2099999999999755
-1.3534430265426636,3.0203123092651367,-5.188256740570068,3.2199999999999753
-0.9622935056686401,0.8964643478393555,-5.316490173339844,3.229999999999975
-0.45208191871643066,-0.6923732757568359,-5.200404644012451,3.239999999999975
0.33177614212036133,-1.7253799438476562,-5.138898849487305,3.2499999999999747
0.9547573924064636,-2.2798595428466797,-5.012060165405273,3.2599999999999745
1.4369633197784424,-2.6122684478759766,-4.843803882598877,3.2699999999999743
1.9997092485427856,-2.8399009704589844,-4.61273193359375,3.279999999999974
2.6326451301574707,-2.7760791778564453,-4.2449541091918945,3.289999999999974
3.112776756286621,-2.5305986404418945,-3.9877572059631348,3.2999999999999736
3.395542621612549,-2.1553711891174316,-3.950106143951416,3.3099999999999734
3.6081252098083496,-1.818955421447754,-4.253740310668945,3.319999999999973
3.662773370742798,-1.5222454071044922,-4.834496974945068,3.329999999999973
3.4489762783050537,-1.4722938537597656,-5.300192832946777,3.3399999999999728
3.0522985458374023,-1.3286199569702148,-5.435672760009766,3.3499999999999726
2.958536148071289,-1.289271354675293,-5.616230487823486,3.3599999999999723
2.7816715240478516,-1.1460275650024414,-5.8949432373046875,3.369999999999972
2.531233549118042,-0.8202199935913086,-6.267744541168213,3.379999999999972
2.134225845336914,-0.4701223373413086,-6.436644077301025,3.3899999999999717
1.5745875835418701,-0.0292510986328125,-6.368644714355469,3.3999999999999715
1.0372116565704346,0.41321277618408203,-6.0199127197265625,3.4099999999999713
0.597835123538971,0.8514690399169922,-4.648877143859863,3.419999999999971
0.5840807557106018,1.2223262786865234,-2.4137539863586426,3.429999999999971
0.7083834409713745,1.3939762115478516,-0.305416464805603,3.4399999999999706
0.6727220416069031,1.2283124923706055,1.0033071041107178,3.4499999999999704
0.5690993666648865,0.7981853485107422,1.417011022567749,3.45999999999997
0.3558673858642578,0.3723020553588867,1.379704475402832,3.46999999999997
-0.010819315910339355,-0.08979988098144531,1.3719894886016846,3.47999999999997
-0.24692833423614502,-0.6121606826782227,1.6039783954620361,3.4899999999999696
-0.5396006107330322,-1.0874366760253906,1.883634090423584,3.4999999999999694
-0.5586296319961548,-1.5064306259155273,2.188323974609375,3.509999999999969
-0.43928825855255127,-2.108401298522949,2.543192148208618,3.519999999999969
-0.3349844217300415,-2.582193374633789,2.870445966720581,3.5299999999999687
-0.13391947746276855,-2.9159398078918457,3.1283838748931885,3.5399999999999685
-0.015237569808959961,-3.136180877685547,3.1146883964538574,3.5499999999999683
-0.10135531425476074,-2.8701906204223633,2.8400838375091553,3.559999999999968
0.28285253047943115,-2.632640838623047,2.3746750354766846,3.569999999999968
0.6363809704780579,-2.308561325073242,1.8590054512023926,3.5799999999999677
0.5148290395736694,-1.7091913223266602,1.6818230152130127,3.5899999999999674
0.49639755487442017,-1.5571517944335938,1.8200968503952026,3.5999999999999672
0.9525361061096191,-1.9070262908935547,1.7837369441986084,3.609999999999967
1.587784767150879,-2.3254318237304688,1.5364716053009033,3.619999999999967
2.0504612922668457,-2.3770599365234375,1.1791386604309082,3.6299999999999666
2.2404391765594482,-2.229726791381836,0.8164591789245605,3.6399999999999664
2.318164110183716,-2.0725908279418945,0.5553808212280273,3.649999999999966
2.3553082942962646,-1.9320077896118164,0.4813162684440613,3.659999999999966
2.399688243865967,-1.7601361274719238,0.6442263722419739,3.6699999999999657
2.384079933166504,-1.5188674926757812,0.5787944793701172,3.6799999999999655
2.315854787826538,-1.428309440612793,0.6720814108848572,3.6899999999999653
2.305663824081421,-1.261002540588379,1.049100637435913,3.699999999999965
2.3800642490386963,-1.0025787353515625,1.2490437030792236,3.709999999999965
2.342900037765503,-0.8323831558227539,1.3281974792480469,3.7199999999999647
2.321065902709961,-0.6689004898071289,1.287495732307434,3.7299999999999645
2.3551268577575684,-0.4522380828857422,1.2425585985183716,3.7399999999999642
2.2201485633850098,-0.2517385482788086,1.1672831773757935,3.749999999999964
2.057356834411621,-0.07685661315917969,1.1647969484329224,3.759999999999964
1.7972756624221802,0.15146827697753906,1.3264031410217285,3.7699999999999636
1.4661180973052979,0.44764137268066406,1.583054780960083,3.7799999999999634
1.207375168800354,0.6969394683837891,1.9444711208343506,3.789999999999963
0.9327942132949829,0.8828248977661133,2.4151411056518555,3.799999999999963
0.7361661195755005,1.0723705291748047,2.8361310958862305,3.8099999999999627
0.6395226120948792,1.1889848709106445,3.1437199115753174,3.8199999999999625
0.640740156173706,1.2277965545654297,3.372199296951294,3.8299999999999623
0.6010055541992188,1.3033552169799805,3.4911112785339355,3.839999999999962
0.5846697092056274,1.4008054733276367,3.534435749053955,3.849999999999962
0.5748226642608643,1.6320343017578125,3.572211742401123,3.8599999999999617
0.7632377743721008,1.793318748474121,3.7346925735473633,3.8699999999999615
0.67376708984375,2.3218774795532227,3.740605354309082,3.8799999999999613
0.6671028137207031,2.898745536804199,3.656111240386963,3.889999999999961
0.8977587223052979,3.341848373413086,3.428709030151367,3.899999999999961
1.3771111965179443,3.6536312103271484,3.054082155227661,3.9099999999999606
1.915992259979248,3.8892602920532227,2.769587516784668,3.9199999999999604
2.569277763366699,4.106306076049805,2.580622673034668,3.92999999999996
3.1088473796844482,4.2856292724609375,2.4423673152923584,3.93999999999996
3.5552468299865723,4.477441787719727,2.386688470840454,3.9499999999999598
3.9122800827026367,4.6841583251953125,2.40750789642334,3.9599999999999596
4.270177841186523,4.803104400634766,2.5013396739959717,3.9699999999999593
4.599769592285156,4.877662658691406,2.6934890747070312,3.979999999999959
4.828974723815918,4.857868194580078,2.968308925628662,3.989999999999959
4.900272369384766,4.763092041015625,3.3169474601745605,3.9999999999999587
4.619702339172363,4.629140853881836,3.6243324279785156,4.009999999999959
3.9992363452911377,4.443728446960449,3.860602855682373,4.019999999999959
3.2860565185546875,4.247348785400391,4.093828201293945,4.0299999999999585
2.785410165786743,4.042301177978516,4.190731048583984,4.039999999999958
2.247352123260498,3.9288864135742188,4.092194557189941,4.049999999999958
1.6086969375610352,3.837514877319336,3.8443260192871094,4.059999999999958
1.0165605545043945,3.6819849014282227,3.4383859634399414,4.069999999999958
0.4905294179916382,3.4336328506469727,2.90195894241333,4.079999999999957
0.23631322383880615,3.1641502380371094,2.166520357131958,4.089999999999957
0.228981614112854,2.6031293869018555,1.3954142332077026,4.099999999999957
0.5826910734176636,1.8322992324829102,0.6926087141036987,4.109999999999957
0.8516767024993896,0.9480695724487305,-0.02496802806854248,4.119999999999957
0.9971033334732056,-0.2159595489501953,-0.6949183940887451,4.129999999999956
1.0452606678009033,-1.228372573852539,-1.399613380432129,4.139999999999956
0.8191092014312744,-1.9934139251708984,-1.7024192810058594,4.149999999999956
0.6349339485168457,-2.3869948387145996,-1.950461745262146,4.159999999999956
0.7881817817687988,-2.4110546112060547,-2.162490129470825,4.1699999999999555
0.8401160836219788,-2.296590805053711,-2.1438753604888916,4.179999999999955
0.8278540968894958,-1.100724220275879,-1.936389684677124,4.189999999999955
1.1136183738708496,0.9775781631469727,-1.5849894285202026,4.199999999999955
1.1713762283325195,2.66544246673584,-0.9752373695373535,4.209999999999955
0.9249756336212158,4.015254020690918,-0.5951133966445923,4.2199999999999545
0.5797651410102844,4.925920486450195,-0.7114278078079224,4.229999999999954
0.33523988723754883,5.313569068908691,-1.0143592357635498,4.239999999999954
0.396795392036438,5.688166618347168,-1.189356803894043,4.249999999999954
0.36631083488464355,5.590986251831055,-1.1661555767059326,4.259999999999954
-0.12095391750335693,5.443758964538574,-1.0204899311065674,4.269999999999953
-0.8116129636764526,5.691348075866699,-0.8919423818588257,4.279999999999953
-1.7184431552886963,5.976785659790039,-0.9878121018409729,4.289999999999953
-2.523075580596924,6.146772384643555,-1.173520803451538,4.299999999999953
-2.918558120727539,6.010211944580078,-1.43180513381958,4.3099999999999525
-2.9867947101593018,5.462488174438477,-1.538906455039978,4.319999999999952
-3.2211904525756836,5.133121490478516,-1.4668409824371338,4.329999999999952
-3.643679618835449,5.050504684448242,-1.119683861732483,4.339999999999952
-4.082663536071777,4.975070953369141,-0.7264004945755005,4.349999999999952
-4.235175609588623,4.832362174987793,-0.2902606725692749,4.3599999999999515
-4.164072513580322,4.471410751342773,0.09724164009094238,4.369999999999951
-3.929067611694336,4.236517906188965,0.27239131927490234,4.379999999999951
-3.475037097930908,3.921444892883301,0.40193700790405273,4.389999999999951
-2.902846097946167,3.702688217163086,0.2912130355834961,4.399999999999951
-2.0972445011138916,3.6254472732543945,-0.20543265342712402,4.40999999999995
-1.2476811408996582,3.641681671142578,-0.9750074148178101,4.41999999999995
-0.6552044153213501,3.428438186645508,-2.093564033508301,4.42999999999995
-0.3369598388671875,3.2012500762939453,-3.2719180583953857,4.43999999999995
0.06207454204559326,2.82143497467041,-4.147104263305664,4.4499999999999496
0.6575667262077332,2.3831748962402344,-5.250503063201904,4.459999999999949
1.046127200126648,1.704010009765625,-6.103428840637207,4.469999999999949
0.8842130899429321,1.0739669799804688,-6.539768695831299,4.479999999999949
0.24353259801864624,0.4782447814941406,-6.506394386291504,4.489999999999949
0.07888668775558472,0.5784444808959961,-7.271692276000977,4.4999999999999485
0.11347916722297668,0.7177448272705078,-7.254491329193115,4.509999999999948
0.44127559661865234,0.29910850524902344,-7.418869972229004,4.519999999999948
0.8013524413108826,-0.09401130676269531,-8.174934387207031,4.529999999999948
0.8199958801269531,-0.5477666854858398,-7.881562232971191,4.539999999999948
0.47998321056365967,-1.0657124519348145,-7.235628128051758,4.549999999999947
1.063061237335205,-1.593538761138916,-6.639907360076904,4.559999999999947
1.4979636669158936,-2.397284984588623,-6.3702006340026855,4.569999999999947
1.715611219406128,-3.6130127906799316,-6.956378936767578,4.579999999999947
1.6430904865264893,-4.707164287567139,-7.485937595367432,4.589999999999947
1.4697685241699219,-5.256900310516357,-7.430481910705566,4.599999999999946
1.2233712673187256,-5.7242889404296875,-7.496546745300293,4.609999999999946
1.2320873737335205,-5.947215557098389,-7.233742713928223,4.619999999999946
1.1554319858551025,-5.864902496337891,-6.43756103515625,4.629999999999946
0.8056347370147705,-5.686938285827637,-5.731205940246582,4.6399999999999455
0.4603113532066345,-5.785214900970459,-4.996309757232666,4.649999999999945
0.27047014236450195,-5.813735008239746,-4.258343696594238,4.659999999999945
0.14497113227844238,-5.792315483093262,-4.066829204559326,4.669999999999945
0.03208208084106445,-5.726236820220947,-3.944833993911743,4.679999999999945
0.03162229061126709,-5.46235466003418,-4.4831318855285645,4.689999999999944
-0.6589770317077637,-5.530488967895508,-4.005980491638184,4.699999999999944
-1.363831639289856,-5.6660966873168945,-3.106328010559082,4.709999999999944
-1.7358325719833374,-5.790256500244141,-2.8057267665863037,4.719999999999944
-1.8111988306045532,-6.031712532043457,-2.609165906906128,4.729999999999944
-1.9490374326705933,-6.23459005355835,-2.4309372901916504,4.739999999999943
-2.007756471633911,-6.527690887451172,-2.3335494995117188,4.749999999999943
-2.046879768371582,-6.841207981109619,-2.255009651184082,4.759999999999943
-2.047447919845581,-7.0409464836120605,-2.1309406757354736,4.769999999999943
-1.9264215230941772,-7.1887712478637695,-1.9476208686828613,4.7799999999999425
-1.650985836982727,-7.269954681396484,-1.7391102313995361,4.789999999999942
-1.3822054862976074,-7.286467552185059,-1.5562925338745117,4.799999999999942
-1.142638087272644,-7.264225006103516,-1.4141790866851807,4.809999999999942
-1.1820051670074463,-7.0619354248046875,-1.1959192752838135,4.819999999999942
-1.2972434759140015,-6.610251426696777,-0.9806077480316162,4.8299999999999415
-1.373595118522644,-6.021470546722412,-0.7803990840911865,4.839999999999941
-1.2453409433364868,-5.304601192474365,-0.5622859001159668,4.849999999999941
-1.1408416032791138,-4.3057332038879395,-0.30806875228881836,4.859999999999941
-1.015440583229065,-2.990602493286133,0.016876220703125,4.869999999999941
-0.9853323698043823,-1.4993629455566406,0.4367637634277344,4.87999999999994
-0.8100012540817261,0.07638835906982422,0.9503939151763916,4.88999999999994
-0.5521671772003174,1.841822624206543,1.5692856311798096,4.89999999999994
-0.20271480083465576,3.7775754928588867,2.486049175262451,4.90999999999994
-0.240259051322937,5.7626495361328125,3.8715145587921143,4.9199999999999395
-0.9147778749465942,7.902167320251465,5.2562031745910645,4.929999999999939
-2.3753950595855713,9.62130069732666,6.312143802642822,4.939999999999939
-4.144488334655762,10.627449035644531,6.885159969329834,4.949999999999939
-5.929000377655029,11.109399795532227,6.935917854309082,4.959999999999939
-6.782126426696777,11.143754959106445,6.760824680328369,4.9699999999999385
-6.203717231750488,10.319262504577637,6.589587688446045,4.979999999999938
-4.873449325561523,8.793705940246582,6.63850736618042,4.989999999999938
-3.529510974884033,7.173979759216309,6.653332710266113,4.999999999999938
-2.4602456092834473,5.49501895904541,6.485445022583008,5.009999999999938
-1.8893064260482788,3.715704917907715,5.981352806091309,5.019999999999937
-1.5009838342666626,1.9627799987792969,5.365021705627441,5.029999999999937
-1.2265492677688599,0.4106016159057617,4.840991497039795,5.039999999999937
-0.9054250717163086,-0.9964399337768555,4.426941871643066,5.049999999999937
-0.1894228458404541,-2.3021602630615234,4.090375900268555,5.0599999999999365
0.6523560285568237,-3.6313586235046387,3.566267728805542,5.069999999999936
1.1690627336502075,-4.948061943054199,2.98089599609375,5.079999999999936
0.8953202366828918,-5.807713031768799,2.5970401763916016,5.089999999999936
-0.1322551965713501,-5.503686428070068,2.3035240173339844,5.099999999999936
-0.8533583879470825,-4.4925150871276855,1.971801519393921,5.1099999999999355
-0.9819278717041016,-3.296937942504883,1.4559910297393799,5.119999999999935
-0.7447801828384399,-1.8318538665771484,0.6271531581878662,5.129999999999935
-0.35069429874420166,-0.31856441497802734,-0.5300953388214111,5.139999999999935
-0.1080547571182251,1.0009794235229492,-1.9294354915618896,5.149999999999935
0.16246426105499268,2.0186376571655273,-3.695319890975952,5.159999999999934
0.1589876413345337,3.1232433319091797,-5.636669635772705,5.169999999999934
-0.5562176704406738,4.777040481567383,-7.305172920227051,5.179999999999934
-1.241622805595398,6.77607536315918,-8.982992172241211,5.189999999999934
-2.056438684463501,9.01821231842041,-11.086949348449707,5.199999999999934
-3.1946399211883545,10.835471153259277,-12.369906425476074,5.209999999999933
-4.791970252990723,11.939722061157227,-12.446707725524902,5.219999999999933
-6.058846473693848,11.75450325012207,-11.60378360748291,5.229999999999933
-6.281108379364014,10.492114067077637,-9.580909729003906,5.239999999999933
-5.194410800933838,8.710694313049316,-6.667722702026367,5.2499999999999325
-4.165414810180664,5.814006805419922,-4.55318546295166,5.259999999999932
-3.8258402347564697,2.7195072174072266,-3.806273937225342,5.269999999999932
-3.559513568878174,-0.04204559326171875,-3.9059696197509766,5.279999999999932
-3.0036492347717285,-1.9040069580078125,-4.082968711853027,5.289999999999932
-2.051051378250122,-2.9915080070495605,-3.977313756942749,5.299999999999931
-0.973273754119873,-3.603919506072998,-3.7122342586517334,5.309999999999931
-0.06608879566192627,-4.02088737487793,-3.2825169563293457,5.319999999999931
0.6293283104896545,-4.351934909820557,-2.815213441848755,5.329999999999931
1.4496889114379883,-4.470011234283447,-2.1543736457824707,5.339999999999931
2.4018993377685547,-4.315276622772217,-1.5335265398025513,5.34999999999993
3.3028876781463623,-3.796725273132324,-1.4464714527130127,5.35999999999993
3.9095706939697266,-2.983506202697754,-2.0034749507904053,5.36999999999993
3.90525484085083,-2.140580654144287,-2.9578685760498047,5.37999999999993
3.676535129547119,-1.5274333953857422,-4.157176494598389,5.3899999999999295
3.457200527191162,-1.0732765197753906,-5.308315277099609,5.399999999999929
3.0578722953796387,-0.6911439895629883,-6.118313312530518,5.409999999999929
2.797105073928833,-0.19611644744873047,-6.79573917388916,5.419999999999929
2.215949773788452,0.30480289459228516,-7.438442707061768,5.429999999999929
1.4137248992919922,0.8119487762451172,-8.091299057006836,5.4399999999999284
0.6607811450958252,1.607081413269043,-8.397002220153809,5.449999999999928
-0.3169439435005188,2.5216169357299805,-8.37923526763916,5.459999999999928
-1.389739751815796,3.3201589584350586,-8.202371597290039,5.469999999999928
-1.8829377889633179,3.568924903869629,-7.484500408172607,5.479999999999928
-1.3774996995925903,3.2526254653930664,-4.339036464691162,5.489999999999927
0.895506739616394,2.743910789489746,-0.2994951009750366,5.499999999999927
1.7374259233474731,1.7943649291992188,2.136338710784912,5.509999999999927
1.4743621349334717,0.8430862426757812,2.1603822708129883,5.519999999999927
0.9266607165336609,0.1565570831298828,1.3291525840759277,5.5299999999999265
0.3416966199874878,-0.4370393753051758,0.5786062479019165,5.539999999999926
0.04814600944519043,-0.961430549621582,0.12354499101638794,5.549999999999926
0.18275684118270874,-1.5195493698120117,0.1080588698387146,5.559999999999926
0.184492290019989,-2.159487724304199,0.3552267551422119,5.569999999999926
0.3255600929260254,-2.6829514503479004,0.7214930057525635,5.5799999999999255
0.5576969981193542,-3.1332178115844727,1.0248346328735352,5.589999999999925
0.5616487860679626,-3.312012195587158,1.3081884384155273,5.599999999999925
0.4945112466812134,-3.181415557861328,1.554256558418274,5.609999999999925
0.2469933032989502,-2.7059717178344727,1.5848082304000854,5.619999999999925
-0.37545299530029297,-2.0465025901794434,1.2766631841659546,5.629999999999924
-0.46617114543914795,-1.7484464645385742,0.9606049656867981,5.639999999999924
-0.18271255493164062,-1.7514853477478027,0.8397535681724548,5.649999999999924
0.11878025531768799,-1.9045615196228027,0.880355715751648,5.659999999999924
0.34241336584091187,-2.061668872833252,1.0924339294433594,5.6699999999999235
0.643257737159729,-2.0746068954467773,1.170335054397583,5.679999999999923
0.7987754344940186,-1.8718276023864746,1.095197081565857,5.689999999999923
0.9122651219367981,-1.6257352828979492,0.8931664228439331,5.699999999999923
1.0128437280654907,-1.467850685119629,0.7891907691955566,5.709999999999923
1.2034859657287598,-1.4865236282348633,0.7807435989379883,5.7199999999999225
1.2208847999572754,-1.5166301727294922,0.5724700093269348,5.729999999999922
1.1820162534713745,-1.6252107620239258,0.4055144786834717,5.739999999999922
1.2299786806106567,-1.4056882858276367,0.42199820280075073,5.749999999999922
1.278649926185608,-1.1788692474365234,0.16764450073242188,5.759999999999922
1.2061158418655396,-0.8514480590820312,0.12900328636169434,5.769999999999921
1.0867319107055664,-0.7079925537109375,0.08920186758041382,5.779999999999921
1.1168583631515503,-0.707432746887207,0.2673441767692566,5.789999999999921
1.0789607763290405,-0.7298040390014648,0.540328323841095,5.799999999999921
1.112290620803833,-0.7222156524658203,0.7894773483276367,5.809999999999921
1.0592998266220093,-0.5984058380126953,1.0439640283584595,5.81999999999992
0.8746026754379272,-0.34403228759765625,1.342059850692749,5.82999999999992
0.6562709808349609,0.055174827575683594,1.6043627262115479,5.83999999999992
0.4857240319252014,0.3934497833251953,1.9209401607513428,5.84999999999992
0.35106992721557617,0.7378396987915039,2.331427574157715,5.8599999999999195
0.3961825370788574,1.0213727951049805,2.812953233718872,5.869999999999919
0.5158120393753052,1.2678499221801758,3.2344932556152344,5.879999999999919
0.6931690573692322,1.4937057495117188,3.682404041290283,5.889999999999919
0.7844170331954956,1.7128276824951172,4.116181373596191,5.899999999999919
1.30650794506073,1.8267812728881836,4.545882701873779,5.909999999999918
1.8261892795562744,1.9284610748291016,4.950562953948975,5.919999999999918
2.126868963241577,2.327944755554199,5.024726390838623,5.929999999999918
2.329084634780884,2.572277069091797,5.02375602722168,5.939999999999918
2.467198371887207,2.7998361587524414,4.895057678222656,5.949999999999918
2.587977647781372,3.003185272216797,4.534011363983154,5.959999999999917
2.8609402179718018,3.1153831481933594,4.111474990844727,5.969999999999917
3.3009796142578125,3.0866270065307617,3.7076127529144287,5.979999999999917
3.760439395904541,2.98684024810791,3.3572568893432617,5.989999999999917
4.256680965423584,2.9383726119995117,3.035032033920288,5.9999999999999165
4.552717685699463,2.9579944610595703,2.6387863159179688,6.009999999999916
4.760410308837891,2.99770450592041,2.1545584201812744,6.019999999999916
5.022711277008057,3.066957473754883,1.6472562551498413,6.029999999999916
5.367216110229492,3.1633853912353516,1.2233023643493652,6.039999999999916
5.6643195152282715,3.1128854751586914,1.207887887954712,6.0499999999999154
5.813714027404785,3.1409950256347656,1.6270095109939575,6.059999999999915
5.7290849685668945,3.066059112548828,2.1991806030273438,6.069999999999915
5.374026775360107,3.155759811401367,2.7852373123168945,6.079999999999915
4.642529487609863,3.28253173828125,3.225619316101074,6.089999999999915
3.768460512161255,3.4885807037353516,3.453245162963867,6.099999999999914
3.015829563140869,3.665800094604492,3.520662784576416,6.109999999999914
2.195340633392334,3.845367431640625,3.662869930267334,6.119999999999914
1.3762004375457764,3.965304374694824,3.617737293243408,6.129999999999914
0.5383942127227783,3.999518394470215,3.31980562210083,6.1399999999999135
-0.2098701000213623,3.8500823974609375,2.8041868209838867,6.149999999999913
-0.6268154382705688,3.3617286682128906,2.165316581726074,6.159999999999913
-0.7123785018920898,2.6112003326416016,1.5179637670516968,6.169999999999913
-0.4332127571105957,1.8116226196289062,0.9557404518127441,6.179999999999913
0.006505370140075684,0.8893909454345703,0.44569385051727295,6.1899999999999125
0.28107988834381104,-0.4223213195800781,-0.2823915481567383,6.199999999999912
0.3453105688095093,-1.6012096405029297,-1.093651294708252,6.209999999999912
-0.022899985313415527,-2.331475257873535,-1.5466184616088867,6.219999999999912
-0.4379105567932129,-2.9265823364257812,-1.7252198457717896,6.229999999999912
-0.7627665996551514,-3.1229987144470215,-1.9087392091751099,6.239999999999911
-0.8847023248672485,-2.501540184020996,-2.038759469985962,6.249999999999911
-0.8385616540908813,-1.5022859573364258,-1.9877357482910156,6.259999999999911
-0.4835519790649414,0.03512763977050781,-1.7607135772705078,6.269999999999911
0.06549263000488281,1.9597234725952148,-1.0253422260284424,6.2799999999999105
0.28690123558044434,3.4455671310424805,-0.6466418504714966,6.28999999999991
0.34754645824432373,4.449302673339844,-0.6225510239601135,6.29999999999991
0.3314087390899658,5.174057960510254,-0.8406305313110352,6.30999999999991
0.3699626922607422,5.705998420715332,-1.2872934341430664,6.31999999999991
0.4249539375305176,6.25594425201416,-1.6204922199249268,6.3299999999999095
0.11475825309753418,6.754688262939453,-1.6548991203308105,6.339999999999909
-0.478670597076416,6.932018280029297,-1.4803346395492554,6.349999999999909
-1.2432451248168945,7.099051475524902,-1.3362741470336914,6.359999999999909
-2.123413324356079,7.344212532043457,-1.4279388189315796,6.369999999999909
-2.8472647666931152,7.445026397705078,-1.6596643924713135,6.379999999999908
-3.3679490089416504,7.220062255859375,-1.8972885608673096,6.389999999999908
-3.8302249908447266,6.863517761230469,-2.0277867317199707,6.399999999999908
-4.257025241851807,6.562115669250488,-1.8657617568969727,6.409999999999908
-4.61336612701416,6.0335893630981445,-1.4616042375564575,6.419999999999908
-4.8806538581848145,5.483823776245117,-1.063950538635254,6.429999999999907
-5.040738105773926,5.149409294128418,-0.6864776611328125,6.439999999999907
-5.085363388061523,4.807340621948242,-0.23229217529296875,6.449999999999907
-4.610494136810303,4.4668989181518555,0.2735309600830078,6.459999999999907
-3.8291633129119873,4.11113166809082,0.68837571144104,6.4699999999999065
-3.1171188354492188,3.4934940338134766,0.9199271202087402,6.479999999999906
-2.48431134223938,2.8122644424438477,0.8597207069396973,6.489999999999906
-1.464756727218628,2.289348602294922,0.5715274810791016,6.499999999999906
-0.42828452587127686,2.0511064529418945,-0.08742570877075195,6.509999999999906
0.3585112392902374,2.130923271179199,-1.3227723836898804,6.519999999999905
0.8940516710281372,2.1992616653442383,-3.726344347000122,6.529999999999905
1.3667924404144287,1.8337745666503906,-5.761575698852539,6.539999999999905
1.4367891550064087,1.0304250717163086,-7.800374984741211,6.549999999999905
1.143852949142456,0.8393259048461914,-9.536649703979492,6.559999999999905
0.9459129571914673,0.47828006744384766,-9.841557502746582,6.569999999999904
1.3090510368347168,-0.07300949096679688,-9.843233108520508,6.579999999999904
1.7026716470718384,-0.9639263153076172,-9.384186744689941,6.589999999999904
1.5083041191101074,-1.3095335960388184,-7.398367881774902,6.599999999999904
1.6511307954788208,-1.439180850982666,-5.903151512145996,6.6099999999999035
1.5940603017807007,-1.791672706604004,-5.689144611358643,6.619999999999903
1.9037559032440186,-2.0537567138671875,-5.8906354904174805,6.629999999999903
1.9686546325683594,-2.4650473594665527,-5.896424293518066,6.639999999999903
2.1781110763549805,-3.1283087730407715,-6.308862686157227,6.649999999999903
2.0917370319366455,-4.091091632843018,-7.050581932067871,6.659999999999902
1.851086974143982,-5.255326271057129,-7.398390769958496,6.669999999999902
1.2800010442733765,-6.169609069824219,-7.342055320739746,6.679999999999902
0.8712444305419922,-6.4810285568237305,-7.101364612579346,6.689999999999902
0.7976998686790466,-6.361060619354248,-6.3094658851623535,6.699999999999902
0.8290044069290161,-6.0406975746154785,-5.4751739501953125,6.709999999999901
0.5705349445343018,-5.686169624328613,-4.690920829772949,6.719999999999901
0.13057821989059448,-5.396335601806641,-4.0757575035095215,6.729999999999901
-0.19458532333374023,-5.205047607421875,-3.7656030654907227,6.739999999999901
-0.23712623119354248,-5.033281326293945,-3.781930923461914,6.7499999999999005
-0.7164229154586792,-5.000946521759033,-3.999626398086548,6.7599999999999
-1.3680894374847412,-5.250565528869629,-3.185133934020996,6.7699999999999
-1.8745927810668945,-5.534065246582031,-2.5390548706054688,6.7799999999999
-2.231386184692383,-5.968660354614258,-2.1449673175811768,6.7899999999999
-2.2591278553009033,-6.274092197418213,-1.8835546970367432,6.7999999999998995
-2.297102451324463,-6.5551276206970215,-1.8439106941223145,6.809999999999899
-2.3211021423339844,-6.724888801574707,-2.046025037765503,6.819999999999899
-2.5011444091796875,-6.924064636230469,-2.1173083782196045,6.829999999999899
-2.6123147010803223,-7.104748725891113,-2.026711940765381,6.839999999999899
-2.59771466255188,-7.290872097015381,-1.8938157558441162,6.849999999999898
-2.319021701812744,-7.379422664642334,-1.7282419204711914,6.859999999999898
-2.0517454147338867,-7.31499719619751,-1.6979193687438965,6.869999999999898
-1.7866237163543701,-7.216687202453613,-1.6360406875610352,6.879999999999898
-1.47490394115448,-7.311300754547119,-1.411750316619873,6.8899999999998975
-1.3809088468551636,-7.242027282714844,-1.2432198524475098,6.899999999999897
-1.3579825162887573,-7.034983158111572,-1.214057445526123,6.909999999999897
-1.2898359298706055,-6.725738525390625,-1.2043461799621582,6.919999999999897
-1.2825533151626587,-6.184699535369873,-1.1734201908111572,6.929999999999897
-1.265340805053711,-5.315737724304199,-1.1361002922058105,6.9399999999998965
-1.2613258361816406,-4.041944980621338,-1.0022993087768555,6.949999999999896
-1.2127407789230347,-2.482426643371582,-0.632453441619873,6.959999999999896
-1.1078259944915771,-0.8513755798339844,-0.1061396598815918,6.969999999999896
-0.895782470703125,1.0061616897583008,0.6746876239776611,6.979999999999896
-0.6852161884307861,3.3199825286865234,1.7166147232055664,6.989999999999895
-0.6766505241394043,6.04726505279541,2.9649860858917236,6.999999999999895
-0.8226920366287231,9.025725364685059,4.521671295166016,7.009999999999895
-1.714509129524231,11.516517639160156,6.058902740478516,7.019999999999895
-3.407397508621216,12.86789321899414,6.844936370849609,7.0299999999998946
-4.957685947418213,13.264693260192871,7.142096519470215,7.039999999999894
-5.399750709533691,13.061820030212402,7.189464569091797,7.049999999999894
-4.92110013961792,12.308172225952148,6.942598819732666,7.059999999999894
-4.33185338973999,11.033137321472168,6.582496643066406,7.069999999999894
-3.699944496154785,9.716736793518066,6.656015396118164,7.0799999999998935
-3.011857032775879,8.1675443649292,7.03867244720459,7.089999999999893
-2.020540237426758,6.072693824768066,7.016146659851074,7.099999999999893
-1.4809879064559937,3.766782760620117,6.254397392272949,7.109999999999893
-1.067922592163086,1.7307958602905273,5.27121639251709,7.119999999999893
-0.6333070993423462,0.045734405517578125,4.419029235839844,7.129999999999892
-0.05171966552734375,-1.4565200805664062,3.8901479244232178,7.139999999999892
0.6498495936393738,-3.0683679580688477,3.694661855697632,7.149999999999892
1.1614742279052734,-4.531833171844482,3.6197938919067383,7.159999999999892
1.1446967124938965,-5.510242462158203,3.6105127334594727,7.169999999999892
0.48458290100097656,-5.562148094177246,3.358757734298706,7.179999999999891
0.021798372268676758,-4.741818428039551,2.935706615447998,7.189999999999891
-0.021091222763061523,-3.5530247688293457,2.235583543777466,7.199999999999891
0.14043772220611572,-2.0257768630981445,1.2419743537902832,7.209999999999891
0.2493329644203186,-0.5584173202514648,0.06366753578186035,7.2199999999998905
0.1863100528717041,0.5189275741577148,-1.3355686664581299,7.22999999999989
-0.02299952507019043,1.5550727844238281,-3.1228723526000977,7.23999999999989
-0.28989410400390625,2.660602569580078,-4.892979145050049,7.24999999999989
-0.8052938580513,3.950648307800293,-6.457181930541992,7.25999999999989
-1.3336567878723145,5.477581977844238,-7.932206153869629,7.269999999999889
-2.2947213649749756,7.1349992752075195,-9.363155364990234,7.279999999999889
-3.4292407035827637,8.406665802001953,-10.574753761291504,7.289999999999889
-4.5084381103515625,8.98618221282959,-10.908140182495117,7.299999999999889
-5.599279403686523,8.76782512664795,-10.315937995910645,7.309999999999889
-6.756580352783203,7.591599464416504,-9.735026359558105,7.319999999999888
-6.633016586303711,6.14849853515625,-8.241678237915039,7.329999999999888
-5.584388256072998,4.746363639831543,-5.755494117736816,7.339999999999888
-4.438204288482666,2.863368034362793,-4.0072245597839355,7.349999999999888
-3.8529927730560303,0.7573747634887695,-3.4758529663085938,7.3599999999998875
-3.635924816131592,-0.9900693893432617,-3.7374205589294434,7.369999999999887
-3.313601493835449,-2.115931510925293,-4.158879280090332,7.379999999999887
-2.663463592529297,-2.6276869773864746,-4.41854190826416,7.389999999999887
-2.0223746299743652,-3.1041698455810547,-4.4726338386535645,7.399999999999887
-1.469156265258789,-3.508939266204834,-4.225182056427002,7.4099999999998865
-0.8271684050559998,-3.7364840507507324,-3.6014232635498047,7.419999999999886
0.13584381341934204,-3.5810670852661133,-2.6601696014404297,7.429999999999886
1.1982632875442505,-2.950099468231201,-1.8838016986846924,7.439999999999886
2.0018296241760254,-1.8945574760437012,-1.5770691633224487,7.449999999999886
2.577732563018799,-1.0337753295898438,-1.9356670379638672,7.459999999999885
2.8418667316436768,-0.3662528991699219,-2.8693490028381348,7.469999999999885
2.605109930038452,0.1720867156982422,-4.349096775054932,7.479999999999885
2.021697521209717,0.29100513458251953,-5.74348783493042,7.489999999999885
1.477861762046814,0.1403207778930664,-6.7383131980896,7.4999999999998845
1.0489195585250854,0.1058340072631836,-7.2126617431640625,7.509999999999884
0.8707700371742249,0.2591714859008789,-7.501413345336914,7.519999999999884
0.6404812932014465,0.822291374206543,-7.857184410095215,7.529999999999884
0.3084918260574341,1.6127452850341797,-8.173791885375977,7.539999999999884
-0.15122848749160767,2.261631965637207,-8.198490142822266,7.5499999999998835
-0.055068373680114746,2.5965728759765625,-7.665846824645996,7.559999999999883
0.13296759128570557,2.538705825805664,-6.611532688140869,7.569999999999883
0.7750177979469299,1.9944744110107422,-3.3878297805786133,7.579999999999883
1.8192486763000488,1.125905990600586,1.497126579284668,7.589999999999883
1.9433784484863281,0.3013896942138672,3.754608631134033,7.599999999999882
1.3794209957122803,0.14328384399414062,2.732149600982666,7.609999999999882
0.8695356845855713,0.046288490295410156,1.7456121444702148,7.619999999999882
0.5125519037246704,-0.3291654586791992,1.188035488128662,7.629999999999882
0.252286434173584,-0.832275390625,0.7797845005989075,7.6399999999998816
0.21005815267562866,-1.2288331985473633,0.5973909497261047,7.649999999999881
0.5060044527053833,-1.7320194244384766,0.7910449504852295,7.659999999999881
0.8979294300079346,-2.136120319366455,0.9107022285461426,7.669999999999881
0.9828429818153381,-2.2595787048339844,0.7861037254333496,7.679999999999881
0.715635359287262,-2.095676898956299,0.6942800283432007,7.6899999999998805
0.4483520984649658,-1.8456640243530273,0.669857382774353,7.69999999999988
0.04743516445159912,-1.614832878112793,0.5459023714065552,7.70999999999988
-0.19726300239562988,-1.470057487487793,0.32213830947875977,7.71999999999988
-0.1678684949874878,-1.329833984375,0.014523126184940338,7.72999999999988
-0.031409382820129395,-1.1845283508300781,-0.13134557008743286,7.739999999999879
0.027658164501190186,-1.1513423919677734,0.0013456414453685284,7.749999999999879
0.2577548027038574,-1.2373600006103516,0.23124326765537262,7.759999999999879
0.7157979011535645,-1.4591922760009766,0.4440764784812927,7.769999999999879
1.0739063024520874,-1.613424301147461,0.5467873215675354,7.779999999999879
1.331894874572754,-1.6547307968139648,0.5706459283828735,7.789999999999878
1.3792824745178223,-1.7052536010742188,0.4129749536514282,7.799999999999878
1.548243761062622,-1.7506814002990723,0.2147752046585083,7.809999999999878
1.5873172283172607,-1.783890724182129,-0.05548861622810364,7.819999999999878
1.5874221324920654,-1.7594833374023438,-0.27577826380729675,7.8299999999998775
1.6156330108642578,-1.7014436721801758,-0.39354848861694336,7.839999999999877
1.5813565254211426,-1.4950132369995117,-0.3202846348285675,7.849999999999877
1.4444060325622559,-1.233551025390625,-0.06496328115463257,7.859999999999877
1.2528482675552368,-1.1011390686035156,0.3352927565574646,7.869999999999877
0.9877599477767944,-1.0377311706542969,0.7545775175094604,7.879999999999876
0.737608790397644,-0.9929370880126953,1.2103544473648071,7.889999999999876
0.5479384660720825,-0.8613920211791992,1.6722251176834106,7.899999999999876
0.38809460401535034,-0.7601814270019531,2.1599338054656982,7.909999999999876
0.2081897258758545,-0.6532726287841797,2.580036163330078,7.919999999999876
-0.08003246784210205,-0.5764789581298828,2.869800090789795,7.929999999999875
-0.193953275680542,-0.4651355743408203,3.2128512859344482,7.939999999999875
-0.1811354160308838,-0.2713966369628906,3.510389804840088,7.949999999999875
-0.024312973022460938,-0.045554161071777344,3.7255167961120605,7.959999999999875
0.20968776941299438,0.22898292541503906,3.847219944000244,7.9699999999998745
0.513518750667572,0.32474803924560547,3.959740161895752,7.979999999999874
0.7982321977615356,0.4616069793701172,4.0756402015686035,7.989999999999874
