AccX,AccY,AccZ,SampleRate
-1.258049726486206,-1.0823469161987305,2.2910847663879395,0
-1.3251761198043823,0.2139415740966797,2.877957820892334,0.01
-1.3812637329101562,1.5401315689086914,3.456289768218994,0.02
-1.4456340074539185,2.8142948150634766,3.9365715980529785,0.03
-1.5262377262115479,4.017624855041504,4.269692420959473,0.04
-1.5981396436691284,5.153029441833496,4.436992645263672,0.05
-1.667475700378418,6.196893692016602,4.489506244659424,0.060000000000000005
-1.7986119985580444,7.020196914672852,4.440291404724121,0.07
-1.9685862064361572,7.49873161315918,4.298736572265625,0.08
-2.1348443031311035,7.570860862731934,4.048922061920166,0.09
-2.2429676055908203,7.266023635864258,3.7402279376983643,0.09999999999999999
-2.2900662422180176,6.704080581665039,3.4755969047546387,0.10999999999999999
-2.2935073375701904,5.973271369934082,3.322021722793579,0.11999999999999998
-2.2508833408355713,5.113722801208496,3.2574546337127686,0.12999999999999998
-2.1960716247558594,4.2037458419799805,3.199791431427002,0.13999999999999999
-2.119129180908203,3.240635871887207,3.088087320327759,0.15
-2.0914387702941895,2.2887773513793945,2.8872671127319336,0.16
-2.13033390045166,1.4269227981567383,2.65079402923584,0.17
-2.1843838691711426,0.7168340682983398,2.4199771881103516,0.18000000000000002
-2.2393856048583984,0.23883914947509766,2.2554187774658203,0.19000000000000003
-2.258833169937134,0.008093833923339844,2.1344175338745117,0.20000000000000004
-2.2075576782226562,-0.0324554443359375,2.018277168273926,0.21000000000000005
-2.067080497741699,0.0411834716796875,1.8398537635803223,0.22000000000000006
-1.9393421411514282,0.2784385681152344,1.5449223518371582,0.23000000000000007
-1.841623067855835,0.6125879287719727,1.1135447025299072,0.24000000000000007
-1.7398053407669067,1.037623405456543,0.5842342376708984,0.25000000000000006
-1.610840916633606,1.5720911026000977,-0.03202342987060547,0.26000000000000006
-1.4914801120758057,2.1911392211914062,-0.7379734516143799,0.2700000000000001
-1.4013561010360718,2.797867774963379,-1.5091030597686768,0.2800000000000001
-1.344397783279419,3.324458122253418,-2.3258748054504395,0.2900000000000001
-1.3617291450500488,3.7485666275024414,-3.0786845684051514,0.3000000000000001
-1.4151159524917603,4.033247947692871,-3.651132583618164,0.3100000000000001
-1.4142206907272339,4.14063835144043,-3.9749362468719482,0.3200000000000001
-1.3891992568969727,4.021736145019531,-4.056821823120117,0.3300000000000001
-1.3279918432235718,3.650773048400879,-4.032285213470459,0.34000000000000014
-1.2260380983352661,3.04315185546875,-4.041783332824707,0.35000000000000014
-1.1240222454071045,2.2652835845947266,-4.129721164703369,0.36000000000000015
-1.0721065998077393,1.3835315704345703,-4.307220935821533,0.37000000000000016
-1.1012333631515503,0.47386646270751953,-4.574581146240234,0.38000000000000017
-1.1507995128631592,-0.4279766082763672,-4.902708053588867,0.3900000000000002
-1.155400276184082,-1.199819564819336,-5.2231855392456055,0.4000000000000002
-1.0830421447753906,-1.8008661270141602,-5.463126182556152,0.4100000000000002
-0.9806349277496338,-2.247802734375,-5.602165222167969,0.4200000000000002
-0.827621340751648,-2.5812058448791504,-5.617288589477539,0.4300000000000002
-0.6129205226898193,-2.78424072265625,-5.499808311462402,0.4400000000000002
-0.3399200439453125,-2.8234376907348633,-5.231401443481445,0.45000000000000023
-0.03548848628997803,-2.705960273742676,-4.848761558532715,0.46000000000000024
0.27394992113113403,-2.4437599182128906,-4.426502227783203,0.47000000000000025
0.5786421298980713,-2.0868873596191406,-4.0322489738464355,0.48000000000000026
0.8671861886978149,-1.6825685501098633,-3.73930025100708,0.49000000000000027
1.1174266338348389,-1.2582817077636719,-3.6252570152282715,0.5000000000000002
1.28142511844635,-0.8582134246826172,-3.6845498085021973,0.5100000000000002
1.3610024452209473,-0.5223684310913086,-3.852489471435547,0.5200000000000002
1.3950927257537842,-0.2577638626098633,-4.082122802734375,0.5300000000000002
1.4345773458480835,-0.028412818908691406,-4.2956366539001465,0.5400000000000003
1.460235595703125,0.1704120635986328,-4.434366226196289,0.5500000000000003
1.5049068927764893,0.29300975799560547,-4.471999645233154,0.5600000000000003
1.6106345653533936,0.4130229949951172,-4.376247882843018,0.5700000000000003
1.7448945045471191,0.5514984130859375,-4.127500534057617,0.5800000000000003
1.8610413074493408,0.6650266647338867,-3.737424850463867,0.5900000000000003
1.9004476070404053,0.7315502166748047,-3.2253222465515137,0.6000000000000003
1.8387718200683594,0.714777946472168,-2.6383185386657715,0.6100000000000003
1.7216815948486328,0.6504793167114258,-2.091602087020874,0.6200000000000003
1.4988168478012085,0.5602016448974609,-1.6061599254608154,0.6300000000000003
1.2464324235916138,0.45833396911621094,-1.1366395950317383,0.6400000000000003
1.0383719205856323,0.32113075256347656,-0.7272241711616516,0.6500000000000004
0.8716883659362793,0.13922882080078125,-0.4010811448097229,0.6600000000000004
0.7653096318244934,-0.07046318054199219,-0.17408043146133423,0.6700000000000004
0.757964551448822,-0.2982034683227539,-0.04031872749328613,0.6800000000000004
0.7734688520431519,-0.5319766998291016,0.011469721794128418,0.6900000000000004
0.7903656363487244,-0.7599277496337891,0.02465999126434326,0.7000000000000004
0.7460821866989136,-0.9488420486450195,0.024532616138458252,0.7100000000000004
0.6758843064308167,-1.0751829147338867,0.03477412462234497,0.7200000000000004
0.6157843470573425,-1.1630887985229492,0.04537779092788696,0.7300000000000004
0.5800530910491943,-1.1983957290649414,0.06037873029708862,0.7400000000000004
0.6145368218421936,-1.176396369934082,0.06414684653282166,0.7500000000000004
0.6894218325614929,-1.2259721755981445,0.07760047912597656,0.7600000000000005
0.7255795001983643,-1.2919816970825195,0.18103167414665222,0.7700000000000005
0.7564401626586914,-1.3385238647460938,0.37121379375457764,0.7800000000000005
0.749860405921936,-1.3299360275268555,0.6266986727714539,0.7900000000000005
0.7340085506439209,-1.3022165298461914,0.8895854949951172,0.8000000000000005
0.7813949584960938,-1.2720088958740234,1.1185301542282104,0.8100000000000005
0.8618163466453552,-1.265477180480957,1.3081135749816895,0.8200000000000005
0.9493395090103149,-1.2777557373046875,1.4843164682388306,0.8300000000000005
0.9983678460121155,-1.2753982543945312,1.6498134136199951,0.8400000000000005
1.0160528421401978,-1.229787826538086,1.7932559251785278,0.8500000000000005
1.040871500968933,-1.1409969329833984,1.8909947872161865,0.8600000000000005
1.073146104812622,-1.0162544250488281,1.9238089323043823,0.8700000000000006
1.1011699438095093,-0.8747367858886719,1.9034380912780762,0.8800000000000006
1.103306531906128,-0.7260522842407227,1.8420823812484741,0.8900000000000006
1.1251895427703857,-0.58929443359375,1.7402878999710083,0.9000000000000006
1.1479369401931763,-0.4834861755371094,1.615588903427124,0.9100000000000006
1.1596033573150635,-0.3941774368286133,1.4710960388183594,0.9200000000000006
1.1723426580429077,-0.3117084503173828,1.3073351383209229,0.9300000000000006
1.1720099449157715,-0.24317073822021484,1.1339390277862549,0.9400000000000006
1.1660388708114624,-0.20282363891601562,0.9650003910064697,0.9500000000000006
1.149849772453308,-0.2025012969970703,0.8147314190864563,0.9600000000000006
1.1257985830307007,-0.22539806365966797,0.6970815658569336,0.9700000000000006
1.0939513444900513,-0.2738485336303711,0.6140310168266296,0.9800000000000006
1.0471253395080566,-0.33583831787109375,0.5702110528945923,0.9900000000000007
0.9925425052642822,-0.40893077850341797,0.5631366968154907,1.0000000000000007
0.9133889079093933,-0.4691925048828125,0.5904159545898438,1.0100000000000007
0.8094387054443359,-0.4974985122680664,0.6595273017883301,1.0200000000000007
0.680467963218689,-0.4651622772216797,0.7663171887397766,1.0300000000000007
0.5121445655822754,-0.3530759811401367,0.9137356877326965,1.0400000000000007
0.32868778705596924,-0.1541290283203125,1.1017857789993286,1.0500000000000007
0.10614001750946045,0.1362743377685547,1.329956293106079,1.0600000000000007
-0.1295100450515747,0.5011482238769531,1.5856610536575317,1.0700000000000007
-0.30875492095947266,0.8948173522949219,1.8389099836349487,1.0800000000000007
-0.37135303020477295,1.269205093383789,2.0686182975769043,1.0900000000000007
-0.36283838748931885,1.621561050415039,2.294137954711914,1.1000000000000008
-0.2828890085220337,1.9277048110961914,2.5400032997131348,1.1100000000000008
-0.1528012752532959,2.2041196823120117,2.8166141510009766,1.1200000000000008
-0.018997669219970703,2.464752197265625,3.103740692138672,1.1300000000000008
0.16835880279541016,2.680678367614746,3.379270553588867,1.1400000000000008
0.45476675033569336,2.8399505615234375,3.6263976097106934,1.1500000000000008
0.8351693749427795,2.954580307006836,3.8239057064056396,1.1600000000000008
1.28042471408844,3.034235954284668,3.9485602378845215,1.1700000000000008
1.754116177558899,3.114813804626465,3.996161937713623,1.1800000000000008
2.26785945892334,3.184316635131836,3.9693171977996826,1.1900000000000008
2.7971770763397217,3.2521629333496094,3.8773398399353027,1.2000000000000008
3.293215274810791,3.301504135131836,3.732475519180298,1.2100000000000009
3.7500133514404297,3.322782516479492,3.549893856048584,1.2200000000000009
4.144879341125488,3.3042240142822266,3.3455615043640137,1.2300000000000009
4.467352390289307,3.2604503631591797,3.138115406036377,1.2400000000000009
4.685544490814209,3.2060394287109375,2.938962459564209,1.2500000000000009
4.772823333740234,3.1292333602905273,2.763854503631592,1.260000000000001
4.678530216217041,3.0754833221435547,2.606362819671631,1.270000000000001
4.4167327880859375,3.023120880126953,2.475923538208008,1.280000000000001
4.0261054039001465,2.9792490005493164,2.3718976974487305,1.290000000000001
3.549100875854492,2.929600715637207,2.2762370109558105,1.300000000000001
3.04852294921875,2.879096031188965,2.1483263969421387,1.310000000000001
2.447373867034912,2.8348512649536133,1.9905078411102295,1.320000000000001
1.7992188930511475,2.7753419876098633,1.8109660148620605,1.330000000000001
1.191042184829712,2.672062873840332,1.5898452997207642,1.340000000000001
0.7000150680541992,2.5490808486938477,1.292519211769104,1.350000000000001
0.3624436855316162,2.3515872955322266,0.9392678737640381,1.360000000000001
0.17075669765472412,2.041651725769043,0.5844730734825134,1.370000000000001
0.09568989276885986,1.6388111114501953,0.20847398042678833,1.380000000000001
0.09860491752624512,1.1889209747314453,-0.18458616733551025,1.390000000000001
0.15316414833068848,0.6973352432250977,-0.5823538899421692,1.400000000000001
0.20415818691253662,0.15022754669189453,-0.9707394242286682,1.410000000000001
0.21845924854278564,-0.3443021774291992,-1.3467096090316772,1.420000000000001
0.16554057598114014,-0.6590023040771484,-1.7033486366271973,1.430000000000001
-0.005564212799072266,-0.7744655609130859,-2.0132007598876953,1.440000000000001
-0.2884606122970581,-0.6477813720703125,-2.2600479125976562,1.450000000000001
-0.534786581993103,-0.14738178253173828,-2.3803017139434814,1.460000000000001
-0.6900757551193237,0.5592832565307617,-2.32319974899292,1.470000000000001
-0.7760530710220337,1.359375,-2.177473783493042,1.480000000000001
-0.8749521970748901,2.1515235900878906,-2.0403683185577393,1.490000000000001
-0.9879300594329834,2.8200979232788086,-1.9674626588821411,1.500000000000001
-1.0988839864730835,3.333698272705078,-1.957736849784851,1.5100000000000011
-1.1599113941192627,3.7880067825317383,-1.9743998050689697,1.5200000000000011
-1.2256662845611572,4.170981407165527,-2.0023045539855957,1.5300000000000011
-1.3756680488586426,4.475302696228027,-2.038900136947632,1.5400000000000011
-1.6619853973388672,4.715240478515625,-2.0901031494140625,1.5500000000000012
-2.0459907054901123,4.929173469543457,-2.1579859256744385,1.5600000000000012
-2.473806381225586,5.084089279174805,-2.2357025146484375,1.5700000000000012
-2.918117046356201,5.190208435058594,-2.3046720027923584,1.5800000000000012
-3.3316776752471924,5.235957145690918,-2.34041166305542,1.5900000000000012
-3.6663689613342285,5.168749809265137,-2.3265044689178467,1.6000000000000012
-3.9188194274902344,4.9862565994262695,-2.262754440307617,1.6100000000000012
-4.09870719909668,4.760407447814941,-2.1826388835906982,1.6200000000000012
-4.254148006439209,4.546321868896484,-2.0935218334198,1.6300000000000012
-4.368985652923584,4.377546310424805,-1.9909937381744385,1.6400000000000012
-4.363968849182129,4.225553512573242,-1.885000228881836,1.6500000000000012
-4.252854824066162,4.046724319458008,-1.775680422782898,1.6600000000000013
-4.062185287475586,3.811586380004883,-1.7203117609024048,1.6700000000000013
-3.736959934234619,3.531825065612793,-1.7658255100250244,1.6800000000000013
-3.3175861835479736,3.228510856628418,-1.9152792692184448,1.6900000000000013
-2.80944561958313,2.9352846145629883,-2.345630168914795,1.7000000000000013
-2.1651418209075928,2.783719062805176,-3.1165482997894287,1.7100000000000013
-1.5513854026794434,2.652284622192383,-4.057443618774414,1.7200000000000013
-0.988088846206665,2.3261795043945312,-4.801275253295898,1.7300000000000013
-0.48982125520706177,1.9309282302856445,-5.405742168426514,1.7400000000000013
-0.11691033840179443,1.5392265319824219,-5.920931339263916,1.7500000000000013
0.15898621082305908,1.1806144714355469,-6.406064510345459,1.7600000000000013
0.43627238273620605,0.8440952301025391,-6.796241760253906,1.7700000000000014
0.7275205850601196,0.5540647506713867,-6.992238998413086,1.7800000000000014
1.0466465950012207,0.25699710845947266,-6.980311870574951,1.7900000000000014
1.3493785858154297,-0.03467750549316406,-6.806849479675293,1.8000000000000014
1.6843974590301514,-0.30078887939453125,-6.631844520568848,1.8100000000000014
2.003535270690918,-0.5969038009643555,-6.47796630859375,1.8200000000000014
2.2424135208129883,-0.9158515930175781,-6.442862033843994,1.8300000000000014
2.3366293907165527,-1.2694940567016602,-6.488298416137695,1.8400000000000014
2.317455530166626,-1.6648211479187012,-6.609663009643555,1.8500000000000014
2.248568534851074,-2.0029959678649902,-6.843425750732422,1.8600000000000014
2.1080548763275146,-2.3207316398620605,-6.970654010772705,1.8700000000000014
1.820570707321167,-2.6714529991149902,-6.748583793640137,1.8800000000000014
1.3565993309020996,-2.944791316986084,-6.419156074523926,1.8900000000000015
1.15501070022583,-3.2436022758483887,-6.159386157989502,1.9000000000000015
0.9829030632972717,-3.5583901405334473,-5.9217352867126465,1.9100000000000015
0.8856171369552612,-3.860567092895508,-5.6991801261901855,1.9200000000000015
0.7952703237533569,-4.098351955413818,-5.440884590148926,1.9300000000000015
0.6739052534103394,-4.308929443359375,-5.110107421875,1.9400000000000015
0.4832577109336853,-4.491264343261719,-4.718015670776367,1.9500000000000015
0.24590516090393066,-4.641473293304443,-4.290535926818848,1.9600000000000015
-0.022597551345825195,-4.750523567199707,-3.849207878112793,1.9700000000000015
-0.3133801221847534,-4.823426246643066,-3.42053484916687,1.9800000000000015
-0.5664100646972656,-4.871866703033447,-3.0360543727874756,1.9900000000000015
-0.8033400774002075,-4.942814826965332,-2.737534284591675,2.0000000000000013
-0.9880763292312622,-5.049278736114502,-2.5575296878814697,2.010000000000001
-1.1418343782424927,-5.173407554626465,-2.4922935962677,2.020000000000001
-1.2454512119293213,-5.311845779418945,-2.5092966556549072,2.0300000000000007
-1.3155690431594849,-5.454161643981934,-2.566361665725708,2.0400000000000005
-1.3693219423294067,-5.599932670593262,-2.5994138717651367,2.0500000000000003
-1.393064260482788,-5.746807098388672,-2.5630087852478027,2.06
-1.3727169036865234,-5.890036106109619,-2.4522345066070557,2.07
-1.327453851699829,-5.991428852081299,-2.271601438522339,2.0799999999999996
-1.2837985754013062,-6.048457622528076,-2.037968635559082,2.0899999999999994
-1.232230544090271,-6.05853271484375,-1.756232738494873,2.099999999999999
-1.182506799697876,-6.007185935974121,-1.4383478164672852,2.109999999999999
-1.1420650482177734,-5.903661727905273,-1.0989861488342285,2.1199999999999988
-1.0959287881851196,-5.737724781036377,-0.7531049251556396,2.1299999999999986
-1.0640937089920044,-5.4632248878479,-0.39644908905029297,2.1399999999999983
-1.0783672332763672,-5.060239315032959,-0.029912948608398438,2.149999999999998
-1.1588414907455444,-4.530088901519775,0.33037233352661133,2.159999999999998
-1.3183234930038452,-3.864175796508789,0.6959476470947266,2.1699999999999977
-1.5212759971618652,-2.991549015045166,1.0847153663635254,2.1799999999999975
-1.7529652118682861,-1.9226865768432617,1.5286788940429688,2.1899999999999973
-1.9673850536346436,-0.6738395690917969,2.0217337608337402,2.199999999999997
-2.190526008605957,0.6940345764160156,2.5304574966430664,2.209999999999997
-2.4609110355377197,2.0531959533691406,2.9658424854278564,2.2199999999999966
-2.7821011543273926,3.322800636291504,3.2663848400115967,2.2299999999999964
-3.077942371368408,4.573115348815918,3.495948314666748,2.239999999999996
-3.241457462310791,5.828554153442383,3.6783854961395264,2.249999999999996
-3.2831151485443115,7.041318893432617,3.814751625061035,2.259999999999996
-3.255120277404785,8.065099716186523,3.90484881401062,2.2699999999999956
-3.1792171001434326,8.674430847167969,3.961488962173462,2.2799999999999954
-3.054283857345581,8.787150382995605,4.018261909484863,2.289999999999995
-2.857487678527832,8.459999084472656,4.080731391906738,2.299999999999995
-2.576319694519043,7.783622741699219,4.132293224334717,2.3099999999999947
-2.265526533126831,6.88236141204834,4.181586742401123,2.3199999999999945
-1.9539715051651,5.863722801208496,4.243952751159668,2.3299999999999943
-1.646890640258789,4.786870956420898,4.313931941986084,2.339999999999994
-1.3633416891098022,3.6438283920288086,4.367392063140869,2.349999999999994
-1.0812932252883911,2.426788330078125,4.356084823608398,2.3599999999999937
-0.8550186157226562,1.1786127090454102,4.261867523193359,2.3699999999999934
-0.7387202978134155,-0.02446460723876953,4.11684513092041,2.3799999999999932
-0.7818368673324585,-1.0636048316955566,3.9584686756134033,2.389999999999993
-0.9784331321716309,-1.7799053192138672,3.820305347442627,2.399999999999993
-1.2180577516555786,-2.148301124572754,3.6322221755981445,2.4099999999999926
-1.4040690660476685,-2.22743558883667,3.3738770484924316,2.4199999999999924
-1.4644066095352173,-2.073566436767578,3.0466818809509277,2.429999999999992
-1.405184030532837,-1.7329168319702148,2.599133014678955,2.439999999999992
-1.2430449724197388,-1.2603912353515625,1.9978442192077637,2.4499999999999917
-0.9784656763076782,-0.6402568817138672,1.2193090915679932,2.4599999999999915
-0.6986695528030396,0.07758426666259766,0.23729777336120605,2.4699999999999913
-0.5420882701873779,0.8846826553344727,-0.9580371379852295,2.479999999999991
-0.5870493650436401,1.7860050201416016,-2.291978120803833,2.489999999999991
-0.8162318468093872,2.7183408737182617,-3.6370763778686523,2.4999999999999907
-1.1734435558319092,3.6195363998413086,-4.816925525665283,2.5099999999999905
-1.6121487617492676,4.429096221923828,-5.7559356689453125,2.5199999999999902
-2.1065964698791504,5.062570571899414,-6.426321029663086,2.52999999999999
-2.6701669692993164,5.447381019592285,-6.873926162719727,2.53999999999999
-3.277897834777832,5.469671249389648,-7.12983512878418,2.5499999999999896
-3.7521982192993164,5.125200271606445,-7.1276164054870605,2.5599999999999894
-4.016012191772461,4.543462753295898,-6.853177547454834,2.569999999999989
-4.084285736083984,3.745351791381836,-6.528445720672607,2.579999999999989
-4.0331711769104,2.7385778427124023,-6.242524147033691,2.5899999999999888
-3.8754987716674805,1.6147947311401367,-5.996847152709961,2.5999999999999885
-3.613910436630249,0.5465612411499023,-5.751371383666992,2.6099999999999883
-3.296473979949951,-0.39433765411376953,-5.472911834716797,2.619999999999988
-2.9154365062713623,-1.1766901016235352,-5.154879570007324,2.629999999999988
-2.4893579483032227,-1.797642707824707,-4.775099754333496,2.6399999999999877
-2.0350940227508545,-2.2520933151245117,-4.3281121253967285,2.6499999999999875
-1.5360548496246338,-2.5305275917053223,-3.8170289993286133,2.6599999999999873
-1.0455189943313599,-2.580610752105713,-3.304192543029785,2.669999999999987
-0.5493167638778687,-2.402312755584717,-2.8400702476501465,2.679999999999987
-0.029662132263183594,-2.078859329223633,-2.5063610076904297,2.6899999999999866
0.4333743453025818,-1.678957462310791,-2.3490712642669678,2.6999999999999864
0.7740120887756348,-1.2902393341064453,-2.4007067680358887,2.709999999999986
0.9509250521659851,-0.9618206024169922,-2.673447847366333,2.719999999999986
1.0106916427612305,-0.7429895401000977,-3.0959253311157227,2.7299999999999858
0.9984691143035889,-0.5923957824707031,-3.585148811340332,2.7399999999999856
1.0088516473770142,-0.4640827178955078,-4.140214920043945,2.7499999999999853
1.048654317855835,-0.3101511001586914,-4.721288681030273,2.759999999999985
1.0416368246078491,-0.07120895385742188,-5.282546520233154,2.769999999999985
0.938694179058075,0.1992025375366211,-5.734761714935303,2.7799999999999847
0.8322395086288452,0.45235443115234375,-6.018498420715332,2.7899999999999845
0.7950016856193542,0.6564350128173828,-6.061213493347168,2.7999999999999843
0.8899171352386475,0.758173942565918,-5.627374172210693,2.809999999999984
1.2118124961853027,0.7068490982055664,-4.6111016273498535,2.819999999999984
1.566752314567566,0.5144987106323242,-3.3297512531280518,2.8299999999999836
1.7422385215759277,0.3180246353149414,-2.2495369911193848,2.8399999999999834
1.704526662826538,0.1344127655029297,-1.4283275604248047,2.849999999999983
1.5043928623199463,-0.06264019012451172,-0.7764521837234497,2.859999999999983
1.2801282405853271,-0.2946901321411133,-0.25310125946998596,2.869999999999983
1.1186034679412842,-0.5760879516601562,0.16965293884277344,2.8799999999999826
1.0282140970230103,-0.8828897476196289,0.5061855316162109,2.8899999999999824
1.0099197626113892,-1.1792526245117188,0.7543893456459045,2.899999999999982
0.9894197583198547,-1.4151535034179688,0.9277181029319763,2.909999999999982
0.9594147801399231,-1.5573511123657227,1.0188521146774292,2.9199999999999817
0.9570491313934326,-1.658517837524414,1.0221041440963745,2.9299999999999815
0.9329127669334412,-1.701930046081543,0.9235944747924805,2.9399999999999813
0.8320650458335876,-1.6398839950561523,0.8218943476676941,2.949999999999981
0.6855340003967285,-1.4223642349243164,0.8196340203285217,2.959999999999981
0.5365853309631348,-1.1260967254638672,0.9433762431144714,2.9699999999999807
0.43567198514938354,-0.9400100708007812,1.130108118057251,2.9799999999999804
0.4017610549926758,-0.928466796875,1.3278815746307373,2.9899999999999802
0.4494662880897522,-1.0218286514282227,1.488499641418457,2.99999999999998
0.5792722702026367,-1.1553478240966797,1.5512943267822266,3.00999999999998
0.740895688533783,-1.2716360092163086,1.5196199417114258,3.0199999999999796
0.8719412088394165,-1.3205900192260742,1.4715008735656738,3.0299999999999794
0.9652886986732483,-1.3190641403198242,1.4549925327301025,3.039999999999979
1.1173299551010132,-1.274247169494629,1.429776906967163,3.049999999999979
1.2367703914642334,-1.2101593017578125,1.3983259201049805,3.0599999999999787
1.2751646041870117,-1.1197395324707031,1.370152473449707,3.0699999999999785
1.3215720653533936,-1.0244760513305664,1.3435062170028687,3.0799999999999783
1.3836442232131958,-0.938572883605957,1.3607800006866455,3.089999999999978
1.398794412612915,-0.8333044052124023,1.3605095148086548,3.099999999999978
1.4051713943481445,-0.7253599166870117,1.3340506553649902,3.1099999999999777
1.4119446277618408,-0.6313848495483398,1.3328959941864014,3.1199999999999775
1.3825883865356445,-0.5418357849121094,1.2944746017456055,3.1299999999999772
1.3461980819702148,-0.4733724594116211,1.2376947402954102,3.139999999999977
1.315239667892456,-0.4233875274658203,1.2376055717468262,3.149999999999977
1.2466375827789307,-0.39409732818603516,1.2948704957962036,3.1599999999999766
1.157475471496582,-0.3734140396118164,1.385292649269104,3.1699999999999764
1.060141921043396,-0.34691524505615234,1.4866422414779663,3.179999999999976
0.9621096253395081,-0.30504417419433594,1.5979342460632324,3.189999999999976
0.8515902757644653,-0.23116683959960938,1.7034741640090942,3.1999999999999758
0.7624138593673706,-0.13974380493164062,1.806955099105835,3.2099999999999755
0.6971907019615173,-0.023697853088378906,1.926659345626831,3.2199999999999753
0.6561762690544128,0.11925792694091797,2.061859607696533,3.229999999999975
0.6419482231140137,0.2937612533569336,2.1998300552368164,3.239999999999975
0.6839015483856201,0.4662771224975586,2.3543479442596436,3.2499999999999747
0.6806540489196777,0.7179183959960938,2.515596389770508,3.2599999999999745
0.6791253685951233,1.022120475769043,2.673948287963867,3.2699999999999743
0.7003387808799744,1.3571138381958008,2.81943678855896,3.279999999999974
0.7485815286636353,1.7083511352539062,2.961383104324341,3.289999999999974
0.8112782835960388,2.066019058227539,3.094538688659668,3.2999999999999736
0.8709760904312134,2.3843650817871094,3.191856861114502,3.3099999999999734
0.9511138796806335,2.622425079345703,3.2427291870117188,3.319999999999973
1.0875109434127808,2.7728137969970703,3.224630832672119,3.329999999999973
1.3068405389785767,2.84981632232666,3.1441049575805664,3.3399999999999728
1.58273184299469,2.8893184661865234,3.037058115005493,3.3499999999999726
1.8813217878341675,2.912877082824707,2.9302690029144287,3.3599999999999723
2.2020583152770996,2.9516305923461914,2.8459837436676025,3.369999999999972
2.51071834564209,2.9888906478881836,2.8066530227661133,3.379999999999972
2.8138585090637207,3.027125358581543,2.803563356399536,3.3899999999999717
3.099092960357666,3.056889533996582,2.835216522216797,3.3999999999999715
3.3686985969543457,3.068788528442383,2.8952648639678955,3.4099999999999713
3.601017475128174,3.086855888366699,2.977135419845581,3.419999999999971
3.728271007537842,3.113408088684082,3.088367223739624,3.429999999999971
3.7113537788391113,3.136357307434082,3.2148170471191406,3.4399999999999706
3.5884671211242676,3.153186798095703,3.3345046043395996,3.4499999999999704
3.4109058380126953,3.1518516540527344,3.4150614738464355,3.45999999999997
3.1656436920166016,3.139369010925293,3.406741142272949,3.46999999999997
2.839402675628662,3.137052536010742,3.2860450744628906,3.47999999999997
2.4281439781188965,3.1544265747070312,3.0974998474121094,3.4899999999999696
1.9441781044006348,3.182065963745117,2.8890676498413086,3.4999999999999694
1.4382297992706299,3.1652326583862305,2.656341552734375,3.509999999999969
1.0165045261383057,3.061136245727539,2.3819897174835205,3.519999999999969
0.7756509780883789,2.8436479568481445,2.0667784214019775,3.5299999999999687
0.6656547784805298,2.5010156631469727,1.6996793746948242,3.5399999999999685
0.650024950504303,2.009526252746582,1.2698372602462769,3.5499999999999683
0.6875197291374207,1.455545425415039,0.7422829270362854,3.559999999999968
0.7033628821372986,0.8513936996459961,0.16153669357299805,3.569999999999968
0.7004875540733337,0.24053096771240234,-0.43212854862213135,3.5799999999999677
0.6948160529136658,-0.3023033142089844,-0.9808530807495117,3.5899999999999674
0.6532720923423767,-0.7257289886474609,-1.4122897386550903,3.5999999999999672
0.591723620891571,-0.9925384521484375,-1.7102253437042236,3.609999999999967
0.48726701736450195,-0.9680604934692383,-1.9055190086364746,3.619999999999967
0.37211084365844727,-0.470611572265625,-1.9918850660324097,3.6299999999999666
0.27537214756011963,0.31722354888916016,-1.9976481199264526,3.6399999999999664
0.2542041540145874,1.2484970092773438,-1.9740983247756958,3.649999999999966
0.25827598571777344,2.1284732818603516,-1.995574712753296,3.659999999999966
0.24863934516906738,2.8968210220336914,-2.064084529876709,3.6699999999999657
0.16911959648132324,3.5319480895996094,-2.180781364440918,3.6799999999999655
0.014955401420593262,4.017327308654785,-2.320572853088379,3.6899999999999653
-0.23028874397277832,4.400967597961426,-2.4260687828063965,3.699999999999965
-0.6027183532714844,4.783221244812012,-2.444016218185425,3.709999999999965
-1.1054564714431763,5.159109115600586,-2.372220277786255,3.7199999999999647
-1.6980035305023193,5.500061988830566,-2.26029634475708,3.7299999999999645
-2.2804527282714844,5.782608985900879,-2.1448323726654053,3.7399999999999642
-2.8321003913879395,5.973686218261719,-2.074476718902588,3.749999999999964
-3.3435349464416504,6.032942771911621,-2.037081480026245,3.759999999999964
-3.79551362991333,5.953418731689453,-1.973588466644287,3.7699999999999636
-4.170252799987793,5.761619567871094,-1.8768563270568848,3.7799999999999634
-4.4851837158203125,5.505488395690918,-1.7464163303375244,3.789999999999963
-4.7486066818237305,5.256656646728516,-1.5837647914886475,3.799999999999963
-4.91364860534668,5.029144287109375,-1.3732370138168335,3.8099999999999627
-4.909174919128418,4.745763778686523,-1.079003930091858,3.8199999999999625
-4.749229907989502,4.444431304931641,-0.7714698314666748,3.8299999999999623
-4.459724426269531,4.153702735900879,-0.5578629970550537,3.839999999999962
-4.092912197113037,3.877828598022461,-0.46059322357177734,3.849999999999962
-3.743633270263672,3.6851816177368164,-0.5870604515075684,3.8599999999999617
-3.2210772037506104,3.4994373321533203,-0.9500367641448975,3.8699999999999615
-2.650282859802246,3.299689292907715,-1.670709252357483,3.8799999999999613
-1.9615119695663452,3.013856887817383,-2.888227939605713,3.889999999999961
-1.2060928344726562,2.6259078979492188,-4.414761066436768,3.899999999999961
-0.6180285811424255,2.255107879638672,-5.668168067932129,3.9099999999999606
-0.19324596226215363,1.8833532333374023,-6.682497024536133,3.9199999999999604
0.06911133229732513,1.5285606384277344,-7.4294047355651855,3.92999999999996
0.27632778882980347,1.205662727355957,-7.890775203704834,3.93999999999996
0.5289210677146912,0.8670167922973633,-8.08574104309082,3.9499999999999598
0.7909482717514038,0.5456867218017578,-7.974886417388916,3.9599999999999596
1.0467170476913452,0.24288558959960938,-7.6682538986206055,3.9699999999999593
1.2784464359283447,-0.031164169311523438,-7.22947359085083,3.979999999999959
1.430025339126587,-0.27562904357910156,-6.866182327270508,3.989999999999959
1.6320568323135376,-0.6084890365600586,-6.663087368011475,3.9999999999999587
1.8091535568237305,-1.0634303092956543,-6.595746040344238,4.009999999999959
1.900470495223999,-1.6662282943725586,-6.722200870513916,4.019999999999959
1.8761065006256104,-2.342289447784424,-6.923218727111816,4.0299999999999585
1.7909610271453857,-2.950863838195801,-7.030513763427734,4.039999999999958
1.676866054534912,-3.459864616394043,-6.963274955749512,4.049999999999958
1.5663061141967773,-3.8852286338806152,-6.750919342041016,4.059999999999958
1.409301996231079,-4.213565349578857,-6.493449687957764,4.069999999999958
1.2047827243804932,-4.4600090980529785,-6.188560962677002,4.079999999999957
0.9645733833312988,-4.673022270202637,-5.886707782745361,4.089999999999957
0.7384207248687744,-4.860385894775391,-5.590091228485107,4.099999999999957
0.49042797088623047,-5.01838493347168,-5.285785675048828,4.109999999999957
0.18898427486419678,-5.150748252868652,-4.948655128479004,4.119999999999957
-0.1087578535079956,-5.289488792419434,-4.5803751945495605,4.129999999999956
-0.36188805103302,-5.465900421142578,-4.2168121337890625,4.139999999999956
-0.5699005126953125,-5.64383602142334,-3.9013805389404297,4.149999999999956
-0.7599228620529175,-5.818206787109375,-3.6036064624786377,4.159999999999956
-0.8941541910171509,-5.990719795227051,-3.334077835083008,4.1699999999999555
-1.0110821723937988,-6.158166885375977,-3.1010215282440186,4.179999999999955
-1.1223276853561401,-6.305639266967773,-2.88580584526062,4.189999999999955
-1.2399561405181885,-6.4351606369018555,-2.6816036701202393,4.199999999999955
-1.3350415229797363,-6.531964302062988,-2.4910876750946045,4.209999999999955
-1.4073715209960938,-6.590785980224609,-2.328956365585327,4.2199999999999545
-1.4499951601028442,-6.606105804443359,-2.181706190109253,4.229999999999954
-1.4726320505142212,-6.577128887176514,-2.0383479595184326,4.239999999999954
-1.5046623945236206,-6.486547470092773,-1.9021351337432861,4.249999999999954
-1.5350711345672607,-6.319703578948975,-1.718696117401123,4.259999999999954
-1.5574067831039429,-6.0714921951293945,-1.4815516471862793,4.269999999999953
-1.574601173400879,-5.727096080780029,-1.1964237689971924,4.279999999999953
-1.5726854801177979,-5.285865783691406,-0.8597989082336426,4.289999999999953
-1.5493628978729248,-4.723231315612793,-0.45864009857177734,4.299999999999953
-1.520388126373291,-4.019323825836182,0.012965679168701172,4.3099999999999525
-1.4908183813095093,-3.1893420219421387,0.523716926574707,4.319999999999952
-1.482096552848816,-2.226235866546631,1.047872543334961,4.329999999999952
-1.5118601322174072,-1.1292319297790527,1.598623275756836,4.339999999999952
-1.6020569801330566,0.05740642547607422,2.1717605590820312,4.349999999999952
-1.793099045753479,1.2136411666870117,2.6560049057006836,4.3599999999999515
-2.0560216903686523,2.244630813598633,3.0120017528533936,4.369999999999951
-2.410320997238159,3.1181201934814453,3.235450506210327,4.379999999999951
-2.8234081268310547,3.913811683654785,3.38897705078125,4.389999999999951
-3.2362325191497803,4.705835342407227,3.5191848278045654,4.399999999999951
-3.6048803329467773,5.486109733581543,3.6551382541656494,4.40999999999995
-3.879575252532959,6.174473762512207,3.7721869945526123,4.41999999999995
-4.000326633453369,6.6526641845703125,3.8459084033966064,4.42999999999995
-3.9747698307037354,6.864687919616699,3.889998197555542,4.43999999999995
-3.8271334171295166,6.788270950317383,3.9344677925109863,4.4499999999999496
-3.5762264728546143,6.446902275085449,3.992077112197876,4.459999999999949
-3.2324423789978027,5.893221855163574,4.0534772872924805,4.469999999999949
-2.850053071975708,5.18729305267334,4.085446357727051,4.479999999999949
-2.4663496017456055,4.370033264160156,4.066766262054443,4.489999999999949
-2.109379291534424,3.4773025512695312,3.9909589290618896,4.4999999999999485
-1.7864317893981934,2.5257225036621094,3.891996383666992,4.509999999999948
-1.4853949546813965,1.5056190490722656,3.768019199371338,4.519999999999948
-1.1887803077697754,0.44821739196777344,3.5906145572662354,4.529999999999948
-0.9899026155471802,-0.5770788192749023,3.3981027603149414,4.539999999999948
-0.9268304109573364,-1.4656562805175781,3.227665424346924,4.549999999999947
-1.0147894620895386,-2.139932632446289,3.099125385284424,4.559999999999947
-1.1804300546646118,-2.529646873474121,3.0060324668884277,4.569999999999947
-1.4047117233276367,-2.609750747680664,2.8831982612609863,4.579999999999947
-1.6199650764465332,-2.458230972290039,2.691641330718994,4.589999999999947
-1.7726688385009766,-2.1386189460754395,2.3950743675231934,4.599999999999946
-1.8375893831253052,-1.730443000793457,1.9275307655334473,4.609999999999946
-1.8356109857559204,-1.2186651229858398,1.262010097503662,4.619999999999946
-1.7935137748718262,-0.5561246871948242,0.4510200023651123,4.629999999999946
-1.8192380666732788,0.2933025360107422,-0.5175492763519287,4.6399999999999455
-1.9601422548294067,1.3421764373779297,-1.599564552307129,4.649999999999945
-2.2382254600524902,2.5304346084594727,-2.718736171722412,4.659999999999945
-2.587120532989502,3.8116092681884766,-3.7901546955108643,4.669999999999945
-2.9509382247924805,5.102543830871582,-4.686669826507568,4.679999999999945
-3.215399980545044,6.2816162109375,-5.309601306915283,4.689999999999944
-3.245576858520508,7.248542785644531,-5.6170220375061035,4.699999999999944
-3.0385518074035645,7.821994781494141,-5.633114814758301,4.709999999999944
-2.6782760620117188,7.735074996948242,-5.510159015655518,4.719999999999944
-2.3331947326660156,7.002042770385742,-5.521979331970215,4.729999999999944
-2.2033607959747314,5.8304948806762695,-5.772760391235352,4.739999999999943
-2.2342329025268555,4.469515800476074,-6.1233015060424805,4.749999999999943
-2.194091320037842,3.0629281997680664,-6.3895344734191895,4.759999999999943
-1.9930073022842407,1.7468528747558594,-6.439338684082031,4.769999999999943
-1.6540932655334473,0.5950870513916016,-6.272292137145996,4.7799999999999425
-1.253473162651062,-0.3586759567260742,-5.97093391418457,4.789999999999942
-0.8579211235046387,-1.1259126663208008,-5.611411094665527,4.799999999999942
-0.49611830711364746,-1.7087740898132324,-5.219059467315674,4.809999999999942
-0.13916301727294922,-2.1168246269226074,-4.782599925994873,4.819999999999942
0.24459677934646606,-2.333225727081299,-4.305184841156006,4.8299999999999415
0.6450406312942505,-2.3432512283325195,-3.850106954574585,4.839999999999941
1.0127243995666504,-2.1678667068481445,-3.518977403640747,4.849999999999941
1.33815598487854,-1.89013671875,-3.319672107696533,4.859999999999941
1.5719544887542725,-1.5859112739562988,-3.2645809650421143,4.869999999999941
1.6982195377349854,-1.3047800064086914,-3.339604377746582,4.87999999999994
1.731633186340332,-1.0531387329101562,-3.493374824523926,4.88999999999994
1.723088026046753,-0.8517398834228516,-3.6510095596313477,4.89999999999994
1.7499713897705078,-0.6375303268432617,-3.8463425636291504,4.90999999999994
1.7902148962020874,-0.4072227478027344,-4.1223578453063965,4.9199999999999395
1.7905538082122803,-0.17745399475097656,-4.4077959060668945,4.929999999999939
1.7368876934051514,0.046545982360839844,-4.6677398681640625,4.939999999999939
1.604945182800293,0.30234813690185547,-4.827780246734619,4.949999999999939
1.3825827836990356,0.5746297836303711,-4.737311363220215,4.959999999999939
1.1616069078445435,0.8119935989379883,-4.254700183868408,4.9699999999999385
0.8981596827507019,0.9943771362304688,-3.3237314224243164,4.979999999999938
0.5883474349975586,1.0906009674072266,-2.37435245513916,4.989999999999938
0.36787188053131104,1.1083221435546875,-1.6652768850326538,4.999999999999938
0.26761484146118164,1.0360126495361328,-1.1704096794128418,5.009999999999938
0.193517804145813,0.8499336242675781,-0.7693249583244324,5.019999999999937
0.12120050191879272,0.5717592239379883,-0.423095166683197,5.029999999999937
0.06272679567337036,0.22788333892822266,-0.09702765941619873,5.039999999999937
0.025613903999328613,-0.15781116485595703,0.1993071436882019,5.049999999999937
0.02468019723892212,-0.5255804061889648,0.41099661588668823,5.0599999999999365
0.038953304290771484,-0.8635578155517578,0.5262879133224487,5.069999999999936
0.02317368984222412,-1.1456012725830078,0.5628054738044739,5.079999999999936
0.047860682010650635,-1.3909101486206055,0.5479121208190918,5.089999999999936
0.10672187805175781,-1.6138830184936523,0.4803774058818817,5.099999999999936
0.17840933799743652,-1.7835168838500977,0.38097476959228516,5.1099999999999355
0.2349366545677185,-1.930922031402588,0.2265489101409912,5.119999999999935
0.281724750995636,-2.05128812789917,0.06038637459278107,5.129999999999935
0.31940799951553345,-2.118279457092285,-0.05826854333281517,5.139999999999935
0.2738368511199951,-2.0554585456848145,-0.07291154563426971,5.149999999999935
0.24955785274505615,-1.973069190979004,0.04100993648171425,5.159999999999934
0.31972652673721313,-1.914262294769287,0.2438470721244812,5.169999999999934
0.45944643020629883,-1.8862519264221191,0.4689848721027374,5.179999999999934
0.6421419382095337,-1.8459649085998535,0.680289626121521,5.189999999999934
0.8803853988647461,-1.7981300354003906,0.8821148872375488,5.199999999999934
1.0781400203704834,-1.735651969909668,1.02311110496521,5.209999999999933
1.206272006034851,-1.625187873840332,1.1093196868896484,5.219999999999933
1.3657371997833252,-1.5026731491088867,1.1833490133285522,5.229999999999933
1.5086965560913086,-1.3610038757324219,1.23530912399292,5.239999999999933
1.6253585815429688,-1.2409038543701172,1.2774600982666016,5.2499999999999325
1.7395658493041992,-1.1518802642822266,1.332648754119873,5.259999999999932
1.815183401107788,-1.0891094207763672,1.363375186920166,5.269999999999932
1.8764159679412842,-1.0548715591430664,1.3872461318969727,5.279999999999932
1.9112722873687744,-1.0323562622070312,1.3856444358825684,5.289999999999932
1.9224573373794556,-1.0095233917236328,1.3493919372558594,5.299999999999931
1.9198124408721924,-0.9814863204956055,1.293547511100769,5.309999999999931
1.8963932991027832,-0.9577064514160156,1.2426774501800537,5.319999999999931
1.871835470199585,-0.9380340576171875,1.202017903327942,5.329999999999931
1.839257001876831,-0.905613899230957,1.1861367225646973,5.339999999999931
1.7724509239196777,-0.8507957458496094,1.2119700908660889,5.34999999999993
1.685978889465332,-0.7711067199707031,1.2987492084503174,5.35999999999993
1.5799479484558105,-0.6569061279296875,1.4584474563598633,5.36999999999993
1.468762993812561,-0.5057640075683594,1.6837043762207031,5.37999999999993
1.3764880895614624,-0.3152751922607422,1.9405491352081299,5.3899999999999295
1.303169846534729,-0.10701751708984375,2.204294204711914,5.399999999999929
1.2582072019577026,0.11412334442138672,2.4572534561157227,5.409999999999929
1.2390865087509155,0.33600902557373047,2.67899751663208,5.419999999999929
1.2554315328598022,0.5440921783447266,2.858582019805908,5.429999999999929
1.2975916862487793,0.7644748687744141,2.9972989559173584,5.4399999999999284
1.3553792238235474,0.9896574020385742,3.0726442337036133,5.449999999999928
1.4064059257507324,1.212148666381836,3.084066390991211,5.459999999999928
1.456887125968933,1.4436159133911133,3.0528578758239746,5.469999999999928
1.5251004695892334,1.700540542602539,2.990948438644409,5.479999999999928
1.5889655351638794,1.965987205505371,2.9247779846191406,5.489999999999927
1.6408377885818481,2.2325849533081055,2.854292392730713,5.499999999999927
1.709142804145813,2.4641523361206055,2.761976957321167,5.509999999999927
1.8059451580047607,2.655625343322754,2.6467361450195312,5.519999999999927
1.9625544548034668,2.8116579055786133,2.5199973583221436,5.5299999999999265
2.135535955429077,2.934629440307617,2.4084603786468506,5.539999999999926
2.326897144317627,3.0246505737304688,2.336897373199463,5.549999999999926
2.5219533443450928,3.101027488708496,2.315865993499756,5.559999999999926
2.698996067047119,3.1639604568481445,2.35115647315979,5.569999999999926
2.831836700439453,3.2041149139404297,2.438859701156616,5.5799999999999255
2.896554470062256,3.2288265228271484,2.5652241706848145,5.589999999999925
2.869062662124634,3.257213592529297,2.7255210876464844,5.599999999999925
2.7568068504333496,3.2917137145996094,2.912621021270752,5.609999999999925
2.6087608337402344,3.34210205078125,3.1146461963653564,5.619999999999925
2.435936689376831,3.415712356567383,3.302564859390259,5.629999999999924
2.2107930183410645,3.5149078369140625,3.4348764419555664,5.639999999999924
1.9146971702575684,3.672861099243164,3.4862122535705566,5.649999999999924
1.589186429977417,3.8653736114501953,3.462259292602539,5.659999999999924
1.2030079364776611,4.10878849029541,3.356809616088867,5.6699999999999235
0.7694421410560608,4.359616279602051,3.1879935264587402,5.679999999999923
0.4413515329360962,4.476587295532227,2.9643819332122803,5.689999999999923
0.26638197898864746,4.399855613708496,2.6867363452911377,5.699999999999923
0.2702533006668091,4.136508941650391,2.3481109142303467,5.709999999999923
0.4117661714553833,3.741572380065918,1.9606910943984985,5.7199999999999225
0.6446166634559631,3.2535858154296875,1.5211803913116455,5.729999999999922
0.9127565622329712,2.6541385650634766,1.0572880506515503,5.739999999999922
1.172595500946045,1.9584112167358398,0.541739821434021,5.749999999999922
1.3451917171478271,1.2052497863769531,0.028964757919311523,5.759999999999922
1.4095038175582886,0.4642925262451172,-0.4298691749572754,5.769999999999921
1.438400387763977,-0.12265968322753906,-0.792462944984436,5.779999999999921
1.4613090753555298,-0.4585132598876953,-1.0215966701507568,5.789999999999921
1.4871504306793213,-0.5609760284423828,-1.1709284782409668,5.799999999999921
1.4224443435668945,-0.32145214080810547,-1.2536131143569946,5.809999999999921
1.1635839939117432,0.30059337615966797,-1.220211386680603,5.81999999999992
0.757654070854187,1.0865049362182617,-1.1579744815826416,5.82999999999992
0.31330835819244385,1.903463363647461,-1.1337426900863647,5.83999999999992
0.023364782333374023,2.685922622680664,-1.1462901830673218,5.84999999999992
-0.05822598934173584,3.2782793045043945,-1.2420285940170288,5.8599999999999195
-0.06917881965637207,3.6809654235839844,-1.451093077659607,5.869999999999919
-0.18700146675109863,4.047096252441406,-1.6959205865859985,5.879999999999919
-0.38574469089508057,4.359857559204102,-1.8991615772247314,5.889999999999919
-0.6576409339904785,4.600210189819336,-2.0163464546203613,5.899999999999919
-0.9977015256881714,4.761099815368652,-2.0460526943206787,5.909999999999918
-1.341421365737915,4.861785888671875,-2.0154459476470947,5.919999999999918
-1.6556824445724487,4.943016052246094,-1.9562122821807861,5.929999999999918
-1.936408519744873,4.954527854919434,-1.8707576990127563,5.939999999999918
-2.203901767730713,4.8651323318481445,-1.7682054042816162,5.949999999999918
-2.454397678375244,4.724981307983398,-1.6672744750976562,5.959999999999917
-2.676419734954834,4.560320854187012,-1.5939429998397827,5.969999999999917
-2.839082717895508,4.3639116287231445,-1.535913348197937,5.979999999999917
-2.9096672534942627,4.152355194091797,-1.478432536125183,5.989999999999917
-2.893747329711914,3.9612865447998047,-1.4208523035049438,5.9999999999999165
-2.7861616611480713,3.8476972579956055,-1.392888069152832,6.009999999999916
-2.5885066986083984,3.775296211242676,-1.4292818307876587,6.019999999999916
-2.3247787952423096,3.7317371368408203,-1.5550024509429932,6.029999999999916
-2.0706067085266113,3.683194160461426,-1.8837074041366577,6.039999999999916
-1.7910537719726562,3.5732269287109375,-2.3684473037719727,6.0499999999999154
-1.4489998817443848,3.3006725311279297,-2.9494831562042236,6.059999999999915
-1.0811338424682617,2.9978342056274414,-3.5492312908172607,6.069999999999915
-0.732700765132904,2.643731117248535,-4.199648380279541,6.079999999999915
-0.5306860208511353,2.254645347595215,-4.722155570983887,6.089999999999915
-0.45354756712913513,1.9114227294921875,-5.244649887084961,6.099999999999914
-0.3162897229194641,1.5975818634033203,-5.686437606811523,6.109999999999914
-0.16285601258277893,1.2487430572509766,-5.9643354415893555,6.119999999999914
-0.031951904296875,0.9487266540527344,-6.224338531494141,6.129999999999914
0.07768335938453674,0.7069368362426758,-6.4923200607299805,6.1399999999999135
0.1829116940498352,0.5491733551025391,-6.705148696899414,6.149999999999913
0.3696529269218445,0.42261695861816406,-6.848448753356934,6.159999999999913
0.6516050100326538,0.24787235260009766,-6.895371913909912,6.169999999999913
0.9585787057876587,-0.050243377685546875,-6.813229560852051,6.179999999999913
1.2173986434936523,-0.5611076354980469,-6.657988548278809,6.1899999999999125
1.5232317447662354,-1.1817493438720703,-6.577479362487793,6.199999999999912
1.8900247812271118,-1.7774643898010254,-6.61026668548584,6.209999999999912
2.1963391304016113,-2.335968017578125,-6.720592498779297,6.219999999999912
2.33713960647583,-2.8290481567382812,-6.783228874206543,6.229999999999912
2.287243604660034,-3.260223388671875,-6.703488349914551,6.239999999999911
2.0895473957061768,-3.602128505706787,-6.49208402633667,6.249999999999911
1.7859587669372559,-3.877575397491455,-6.179360866546631,6.259999999999911
1.4170258045196533,-4.115008354187012,-5.687187671661377,6.269999999999911
0.8866801261901855,-4.284617900848389,-5.208338737487793,6.2799999999999105
0.6738428473472595,-4.538629531860352,-4.916263103485107,6.28999999999991
0.5233620405197144,-4.8151397705078125,-4.607633590698242,6.29999999999991
0.38701432943344116,-5.079071044921875,-4.260200500488281,6.30999999999991
0.2088695764541626,-5.321524620056152,-3.897524356842041,6.31999999999991
0.005248665809631348,-5.518921375274658,-3.5602169036865234,6.3299999999999095
-0.20063841342926025,-5.652238845825195,-3.255720376968384,6.339999999999909
-0.3917579650878906,-5.737876892089844,-3.0324432849884033,6.349999999999909
-0.5675780773162842,-5.8064374923706055,-2.859832763671875,6.359999999999909
-0.7324340343475342,-5.8861284255981445,-2.7383487224578857,6.369999999999909
-0.8933864831924438,-5.981292724609375,-2.6564018726348877,6.379999999999908
-1.038582682609558,-6.082304954528809,-2.5612056255340576,6.389999999999908
-1.146850347518921,-6.172153472900391,-2.441030263900757,6.399999999999908
-1.2112466096878052,-6.240817070007324,-2.286787748336792,6.409999999999908
-1.2228673696517944,-6.292496204376221,-2.108860969543457,6.419999999999908
-1.2064123153686523,-6.3505659103393555,-1.9032447338104248,6.429999999999907
-1.198811411857605,-6.426587104797363,-1.6633810997009277,6.439999999999907
-1.210292935371399,-6.484343528747559,-1.4040236473083496,6.449999999999907
-1.2404831647872925,-6.468609809875488,-1.141789436340332,6.459999999999907
-1.2907912731170654,-6.371634483337402,-0.9105038642883301,6.4699999999999065
-1.3746249675750732,-6.204693794250488,-0.6868290901184082,6.479999999999906
-1.4687702655792236,-5.921832084655762,-0.4397749900817871,6.489999999999906
-1.5475175380706787,-5.465047359466553,-0.16261816024780273,6.499999999999906
-1.633215308189392,-4.82144832611084,0.1192483901977539,6.509999999999906
-1.703302025794983,-3.987192153930664,0.4003632068634033,6.519999999999905
-1.7091400623321533,-2.974696636199951,0.7094721794128418,6.529999999999905
-1.6850876808166504,-1.736722469329834,1.0991237163543701,6.539999999999905
-1.625826358795166,-0.29194068908691406,1.6128406524658203,6.549999999999905
-1.6280021667480469,1.287435531616211,2.1842896938323975,6.559999999999905
-1.8085194826126099,2.886256217956543,2.7086939811706543,6.569999999999904
-2.1765317916870117,4.361262321472168,3.094007730484009,6.579999999999904
-2.6600048542022705,5.671908378601074,3.382101535797119,6.589999999999904
-3.177250862121582,6.796304702758789,3.64404296875,6.599999999999904
-3.565647602081299,7.604755401611328,3.9035468101501465,6.6099999999999035
-3.6783933639526367,7.9913434982299805,4.190342903137207,6.619999999999903
-3.5498456954956055,7.983726501464844,4.5500712394714355,6.629999999999903
-3.2254152297973633,7.664254188537598,4.9194135665893555,6.639999999999903
-2.770933151245117,7.091757774353027,5.210400581359863,6.649999999999903
-2.2476258277893066,6.2852678298950195,5.35534143447876,6.659999999999902
-1.7710953950881958,5.311857223510742,5.372353553771973,6.669999999999902
-1.3931328058242798,4.257427215576172,5.315537452697754,6.679999999999902
-1.104236364364624,3.1573991775512695,5.200632095336914,6.689999999999902
-0.840167760848999,2.023575782775879,4.987386226654053,6.699999999999902
-0.5650980472564697,0.9063377380371094,4.685179710388184,6.709999999999901
-0.38285255432128906,-0.14879512786865234,4.329345703125,6.719999999999901
-0.37017786502838135,-1.0534453392028809,3.970191478729248,6.729999999999901
-0.5320342779159546,-1.6814651489257812,3.6861815452575684,6.739999999999901
-0.7582216262817383,-1.9668750762939453,3.470252752304077,6.7499999999999005
-0.9525882005691528,-1.92055082321167,3.2840545177459717,6.7599999999999
-1.0467088222503662,-1.6090688705444336,3.076246738433838,6.7699999999999
-1.045066237449646,-1.1657848358154297,2.764967679977417,6.7799999999999
-0.9725958108901978,-0.6579866409301758,2.2562761306762695,6.7899999999999
-0.8241531848907471,-0.10020256042480469,1.5010066032409668,6.7999999999998995
-0.6979291439056396,0.5689430236816406,0.48560595512390137,6.809999999999899
-0.6733518838882446,1.4251432418823242,-0.7623982429504395,6.819999999999899
-0.7588982582092285,2.4683265686035156,-2.167052745819092,6.829999999999899
-0.9404737949371338,3.615152359008789,-3.6804873943328857,6.839999999999899
-1.2261958122253418,4.687925338745117,-5.2006072998046875,6.849999999999898
-1.6047353744506836,5.542089462280273,-6.5542192459106445,6.859999999999898
-2.233856678009033,6.0042266845703125,-7.5629353523254395,6.869999999999898
-2.9412670135498047,6.025795936584473,-8.125936508178711,6.879999999999898
-3.4484643936157227,5.8252410888671875,-8.02248764038086,6.8899999999998975
-3.635810375213623,5.400058746337891,-7.431392669677734,6.899999999999897
-3.6342506408691406,4.643548965454102,-6.711367130279541,6.909999999999897
-3.51300048828125,3.598740577697754,-6.067276954650879,6.919999999999897
-3.275303363800049,2.448026657104492,-5.531377792358398,6.929999999999897
-2.9719910621643066,1.3354034423828125,-5.088161468505859,6.9399999999998965
-2.644747018814087,0.34963321685791016,-4.692584991455078,6.949999999999896
-2.313755512237549,-0.46844959259033203,-4.318760871887207,6.959999999999896
-1.9670132398605347,-1.070566177368164,-3.9829745292663574,6.969999999999896
-1.5886873006820679,-1.5137481689453125,-3.649381637573242,6.979999999999896
-1.1726620197296143,-1.8361496925354004,-3.2766411304473877,6.989999999999895
-0.7184284925460815,-2.0375423431396484,-2.9308063983917236,6.999999999999895
-0.2127394676208496,-2.074376106262207,-2.6584129333496094,7.009999999999895
0.295121431350708,-1.9532418251037598,-2.5390849113464355,7.019999999999895
0.7820373177528381,-1.7285208702087402,-2.6325178146362305,7.0299999999998946
1.239172101020813,-1.4544448852539062,-2.9225845336914062,7.039999999999894
1.6613662242889404,-1.1587324142456055,-3.4308743476867676,7.049999999999894
1.9903422594070435,-0.8357868194580078,-4.099145412445068,7.059999999999894
2.1744022369384766,-0.48786163330078125,-4.79413366317749,7.069999999999894
2.150373935699463,-0.1369171142578125,-5.419428825378418,7.0799999999998935
1.9023349285125732,0.2042856216430664,-5.917510032653809,7.089999999999893
1.554368019104004,0.5326013565063477,-6.268232345581055,7.099999999999893
1.2082539796829224,0.8234014511108398,-6.4116339683532715,7.109999999999893
0.9657366275787354,1.0403633117675781,-6.289147853851318,7.119999999999893
0.9239034652709961,1.120926856994629,-5.697991371154785,7.129999999999892
1.1558361053466797,1.0554428100585938,-4.564643383026123,7.139999999999892
1.3997695446014404,0.8561630249023438,-3.2375082969665527,7.149999999999892
1.37922203540802,0.607421875,-2.130997657775879,7.159999999999892
1.1344906091690063,0.38626861572265625,-1.3524301052093506,7.169999999999892
0.7602275609970093,0.15705108642578125,-0.8161982893943787,7.179999999999891
0.36160796880722046,-0.10413074493408203,-0.42987164855003357,7.189999999999891
0.020417451858520508,-0.40694141387939453,-0.12520676851272583,7.199999999999891
-0.23180782794952393,-0.7037334442138672,0.1486765742301941,7.209999999999891
-0.3823124170303345,-0.9755401611328125,0.3905911147594452,7.2199999999998905
-0.4203484058380127,-1.2176685333251953,0.5877124667167664,7.22999999999989
-0.4560490846633911,-1.3872756958007812,0.725279688835144,7.23999999999989
-0.46257662773132324,-1.5275297164916992,0.8046154975891113,7.24999999999989
-0.4314560890197754,-1.643153190612793,0.7853919863700867,7.25999999999989
-0.4030325412750244,-1.6959247589111328,0.6916820406913757,7.269999999999889
-0.39978623390197754,-1.7147636413574219,0.5986347794532776,7.279999999999889
-0.3888881206512451,-1.7093701362609863,0.5481361746788025,7.289999999999889
-0.3538118600845337,-1.6606616973876953,0.5271052122116089,7.299999999999889
-0.21535003185272217,-1.6355829238891602,0.5312750339508057,7.309999999999889
-0.006998300552368164,-1.6484127044677734,0.5321389436721802,7.319999999999888
0.23061680793762207,-1.6847248077392578,0.5151296854019165,7.329999999999888
0.47374653816223145,-1.706192970275879,0.48483580350875854,7.339999999999888
0.7246384620666504,-1.6817431449890137,0.4605075716972351,7.349999999999888
0.8867373466491699,-1.5900354385375977,0.4221838414669037,7.3599999999998875
1.048948049545288,-1.4861183166503906,0.40310394763946533,7.369999999999887
1.1806554794311523,-1.3579750061035156,0.44653424620628357,7.379999999999887
1.2652407884597778,-1.2056303024291992,0.5139637589454651,7.389999999999887
1.3237391710281372,-1.0171270370483398,0.654578685760498,7.399999999999887
1.3339183330535889,-0.8236980438232422,0.7553779482841492,7.4099999999998865
1.341299295425415,-0.6803445816040039,0.8257461786270142,7.419999999999886
1.3725149631500244,-0.5796308517456055,0.934334397315979,7.429999999999886
1.394232988357544,-0.5021743774414062,1.063381314277649,7.439999999999886
1.3680976629257202,-0.44548511505126953,1.1865911483764648,7.449999999999886
1.31369149684906,-0.4190797805786133,1.2837867736816406,7.459999999999885
1.2485767602920532,-0.4060792922973633,1.3759472370147705,7.469999999999885
1.192540168762207,-0.38248538970947266,1.464829683303833,7.479999999999885
1.1410386562347412,-0.3458852767944336,1.5716016292572021,7.489999999999885
1.072524070739746,-0.28202342987060547,1.6930358409881592,7.4999999999998845
1.0012364387512207,-0.17899608612060547,1.8648061752319336,7.509999999999884
0.934080958366394,-0.0296630859375,2.10617995262146,7.519999999999884
0.8804792165756226,0.15635108947753906,2.407473564147949,7.529999999999884
0.8789345622062683,0.3694295883178711,2.737121343612671,7.539999999999884
0.9393237233161926,0.6069955825805664,3.0579819679260254,7.5499999999998835
1.0502815246582031,0.8567562103271484,3.322500228881836,7.559999999999883
1.2293494939804077,1.072932243347168,3.5334091186523438,7.569999999999883
1.4189029932022095,1.3029375076293945,3.6699273586273193,7.579999999999883
1.5816282033920288,1.5510139465332031,3.7288947105407715,7.589999999999883
1.7009663581848145,1.7975101470947266,3.7079906463623047,7.599999999999882
1.7942945957183838,2.001492500305176,3.6319360733032227,7.609999999999882
1.911171317100525,2.160696029663086,3.530905246734619,7.619999999999882
2.070758581161499,2.2826414108276367,3.4424519538879395,7.629999999999882
2.263606309890747,2.3532629013061523,3.367741823196411,7.6399999999998816
2.4756059646606445,2.3823604583740234,3.3027219772338867,7.649999999999881
2.7193431854248047,2.386837959289551,3.2355144023895264,7.659999999999881
3.0195398330688477,2.3715991973876953,3.1683223247528076,7.669999999999881
3.3500266075134277,2.3652820587158203,3.086359977722168,7.679999999999881
3.6550979614257812,2.3771629333496094,2.981931447982788,7.6899999999998805
3.9169631004333496,2.4092588424682617,2.864164113998413,7.69999999999988
4.163608551025391,2.454237937927246,2.771512985229492,7.70999999999988
5.135395050048828,2.7654924392700195,2.5396368503570557,7.71999999999988
5.209517002105713,2.909961700439453,2.870262384414673,7.72999999999988
5.192963123321533,3.1940765380859375,3.184724807739258,7.739999999999879
5.007442951202393,3.531672477722168,3.341897964477539,7.749999999999879
4.562593460083008,3.972771644592285,3.1833558082580566,7.759999999999879
3.6957948207855225,4.344701766967773,2.8491408824920654,7.769999999999879
2.6198651790618896,4.726044654846191,2.514934539794922,7.779999999999879
1.5739402770996094,5.10945987701416,2.251763343811035,7.789999999999878
0.5582214593887329,5.339591026306152,2.059293031692505,7.799999999999878
-0.17773950099945068,5.2876996994018555,1.8318562507629395,7.809999999999878
-0.4534393548965454,4.84676456451416,1.575873613357544,7.819999999999878
-0.6271662712097168,3.986117362976074,1.277618646621704,7.8299999999998775
-0.5744187831878662,3.078951835632324,0.7836759090423584,7.839999999999877
-0.3335977792739868,2.2995777130126953,0.25860750675201416,7.849999999999877
-0.04370987415313721,1.3371162414550781,-0.1698002815246582,7.859999999999877
0.057982563972473145,0.29993152618408203,-0.4913896322250366,7.869999999999877
0.3137245178222656,-0.8684425354003906,-0.9006891250610352,7.879999999999876
0.27656638622283936,-1.5621452331542969,-1.5041977167129517,7.889999999999876
-0.09384310245513916,-2.362298011779785,-1.8930143117904663,7.899999999999876
-0.3177671432495117,-2.6130971908569336,-2.017350196838379,7.909999999999876
-0.5139966011047363,-2.252027988433838,-1.7210617065429688,7.919999999999876
-0.7846971750259399,-1.3480033874511719,-1.392514705657959,7.929999999999875
-1.1289169788360596,0.12071037292480469,-1.2265183925628662,7.939999999999875
-1.5999664068222046,1.7400989532470703,-0.9801197052001953,7.949999999999875
-1.931244969367981,2.933725357055664,-0.31313759088516235,7.959999999999875
-1.744788408279419,3.7877206802368164,-0.18364784121513367,7.9699999999998745
-1.497566819190979,4.108139991760254,-0.35251757502555847,7.979999999999874
-1.342768907546997,4.170170783996582,-0.6969092488288879,7.989999999999874
-1.0555830001831055,4.351749420166016,-0.8355341553688049,7.999999999999874
