AccX,AccY,AccZ,SampleRate
-1.7361834049224854,-2.556248188018799,0.19109845161437988,0
-1.654297947883606,-2.1070499420166016,0.045558929443359375,0.01
-1.511744499206543,-1.7008042335510254,-0.024819612503051758,0.02
-1.4926810264587402,-1.3038849830627441,-0.08748269081115723,0.03
-1.5017169713974,-0.8658599853515625,-0.2075209617614746,0.04
-1.53413724899292,-0.4224214553833008,-0.4669773578643799,0.05
-1.4224485158920288,0.05057239532470703,-0.9002634286880493,0.060000000000000005
-1.2122275829315186,0.5724115371704102,-1.3694252967834473,0.07
-0.9947227239608765,1.1623430252075195,-1.5355085134506226,0.08
-0.6889948844909668,1.8823480606079102,-1.0803548097610474,0.09
-0.44361042976379395,2.6577863693237305,0.056627750396728516,0.09999999999999999
-0.10530304908752441,3.4904184341430664,1.6519172191619873,0.10999999999999999
0.3167686462402344,4.38429069519043,3.3939287662506104,0.11999999999999998
0.6886091232299805,5.307727813720703,4.9642558097839355,0.12999999999999998
1.268986701965332,6.109667778015137,6.106195449829102,0.13999999999999999
1.83058762550354,6.909646987915039,6.995513916015625,0.15
2.3538174629211426,7.54736328125,7.817803859710693,0.16
2.4924259185791016,8.51750659942627,8.443029403686523,0.17
3.1572306156158447,8.377388954162598,7.856231212615967,0.18000000000000002
3.7943050861358643,6.963253021240234,6.783490180969238,0.19000000000000003
4.124948978424072,4.016178131103516,5.714959621429443,0.20000000000000004
4.1944732666015625,2.6584815979003906,5.5004730224609375,0.21000000000000005
4.550455093383789,0.046822547912597656,5.499635696411133,0.22000000000000006
4.766366958618164,-1.862107276916504,5.179597854614258,0.23000000000000007
4.358281135559082,-3.016500473022461,5.019587516784668,0.24000000000000007
3.4920408725738525,-3.785271167755127,5.3271989822387695,0.25000000000000006
3.176197052001953,-4.539421081542969,5.670371055603027,0.26000000000000006
2.470334768295288,-5.306829452514648,5.279298782348633,0.2700000000000001
1.999513864517212,-6.203262805938721,3.582895517349243,0.2800000000000001
1.2348902225494385,-6.512046813964844,1.295867919921875,0.2900000000000001
0.012626409530639648,-6.418904781341553,-0.12069571018218994,0.3000000000000001
-1.1400293111801147,-5.794064521789551,-1.2986664772033691,0.3100000000000001
-2.1087465286254883,-4.993695259094238,-2.304656744003296,0.3200000000000001
-2.619734525680542,-3.9842567443847656,-3.066333770751953,0.3300000000000001
-2.5337882041931152,-2.9527273178100586,-3.9245386123657227,0.34000000000000014
-2.6472907066345215,-1.5381803512573242,-5.020981311798096,0.35000000000000014
-2.69950008392334,0.6485786437988281,-6.310111999511719,0.36000000000000015
-2.37255597114563,3.7662534713745117,-7.141780853271484,0.37000000000000016
-1.599900722503662,7.367243766784668,-7.191036224365234,0.38000000000000017
-1.0584453344345093,12.175725936889648,-7.100643157958984,0.3900000000000002
0.012941598892211914,18.33068084716797,-6.813745498657227,0.4000000000000002
0.6900210380554199,20.801944732666016,-6.150396347045898,0.4100000000000002
1.2822835445404053,25.477275848388672,-5.9160308837890625,0.4200000000000002
0.6840732097625732,26.19793128967285,-6.434473991394043,0.4300000000000002
-1.308192491531372,23.871505737304688,-7.615840911865234,0.4400000000000002
-4.1817240715026855,19.31173324584961,-9.133983612060547,0.45000000000000023
-4.869667053222656,12.193839073181152,-9.822319984436035,0.46000000000000024
-5.5468244552612305,7.4127044677734375,-9.042264938354492,0.47000000000000025
-5.612546920776367,4.019402503967285,-6.645586013793945,0.48000000000000026
-4.682554721832275,1.228276252746582,-3.366060256958008,0.49000000000000027
-3.5608296394348145,-1.065704345703125,-0.5846078395843506,0.5000000000000002
-2.0839293003082275,-3.3897085189819336,0.47462964057922363,0.5100000000000002
-0.49209535121917725,-5.274958610534668,-0.07401204109191895,0.5200000000000002
0.9662814140319824,-6.702326774597168,-1.440826177597046,0.5300000000000002
1.504791021347046,-7.064325332641602,-2.770811080932617,0.5400000000000003
0.7209789752960205,-6.672473907470703,-3.3791704177856445,0.5500000000000003
0.7324643135070801,-6.697408199310303,-3.3257803916931152,0.5600000000000003
1.124362826347351,-6.8669915199279785,-3.2585301399230957,0.5700000000000003
1.5093928575515747,-6.978994369506836,-3.2363672256469727,0.5800000000000003
1.502230167388916,-7.046518802642822,-3.1746814250946045,0.5900000000000003
1.386841058731079,-7.034751892089844,-3.3045904636383057,0.6000000000000003
1.0127631425857544,-6.846486568450928,-3.7495803833007812,0.6100000000000003
0.7580142021179199,-6.401332855224609,-4.154961585998535,0.6200000000000003
0.5724745988845825,-5.956051826477051,-4.616387844085693,0.6300000000000003
0.36719226837158203,-5.66413688659668,-4.889387130737305,0.6400000000000003
0.06030416488647461,-5.312264442443848,-5.194507598876953,0.6500000000000004
-0.34579217433929443,-4.856706142425537,-5.364302635192871,0.6600000000000004
-0.6730518341064453,-4.1842360496521,-5.470005512237549,0.6700000000000004
-0.9268726110458374,-3.2891736030578613,-5.218782424926758,0.6800000000000004
-1.2472057342529297,-1.9241905212402344,-4.971707344055176,0.6900000000000004
-2.15592098236084,-0.13381576538085938,-4.76627254486084,0.7000000000000004
-3.354198455810547,1.8483943939208984,-4.036995887756348,0.7100000000000004
-3.9602227210998535,3.064138412475586,-2.93369722366333,0.7200000000000004
-3.73982834815979,3.8878307342529297,-2.374527931213379,0.7300000000000004
-3.341003894805908,4.071419715881348,-2.2257208824157715,0.7400000000000004
-2.685716152191162,3.7899351119995117,-2.0168848037719727,0.7500000000000004
-1.5010216236114502,2.414423942565918,-1.236193060874939,0.7600000000000005
-0.9334373474121094,1.420827865600586,-0.36038124561309814,0.7700000000000005
-0.8086494207382202,0.6598634719848633,0.30410975217819214,0.7800000000000005
-0.7182199954986572,-0.0030078887939453125,0.19505339860916138,0.7900000000000005
-0.5334672927856445,-0.7022151947021484,-0.21060863137245178,0.8000000000000005
-0.25749945640563965,-1.2804384231567383,-0.6602333784103394,0.8100000000000005
0.1589815616607666,-1.6787080764770508,-0.8201580047607422,0.8200000000000005
0.5020418167114258,-2.041379928588867,-0.931674063205719,0.8300000000000005
0.7349853515625,-2.381096839904785,-0.886417031288147,0.8400000000000005
0.8631658554077148,-2.71012020111084,-0.9079678058624268,0.8500000000000005
1.0826334953308105,-2.9089879989624023,-0.8546444177627563,0.8600000000000005
1.2493619918823242,-3.0758371353149414,-0.7721628546714783,0.8700000000000006
1.4804439544677734,-3.337425708770752,-0.6944634914398193,0.8800000000000006
1.63484787940979,-3.21073055267334,-0.33702489733695984,0.8900000000000006
1.5202970504760742,-3.291317939758301,-0.17631995677947998,0.9000000000000006
1.4088325500488281,-3.4160971641540527,0.08921042084693909,0.9100000000000006
1.3330700397491455,-3.4628424644470215,0.3472976088523865,0.9200000000000006
1.3087611198425293,-3.3740158081054688,0.5957275032997131,0.9300000000000006
1.3106563091278076,-3.3431081771850586,0.8658850193023682,0.9400000000000006
1.3637893199920654,-3.1593070030212402,1.0930956602096558,0.9500000000000006
1.4743082523345947,-3.04252290725708,1.2295727729797363,0.9600000000000006
1.522141933441162,-2.765406608581543,1.4118671417236328,0.9700000000000006
1.5694117546081543,-2.447676658630371,1.51095712184906,0.9800000000000006
1.6258490085601807,-2.1444091796875,1.4889130592346191,0.9900000000000007
1.5748331546783447,-1.9656829833984375,1.3175218105316162,1.0000000000000007
1.5296809673309326,-1.9975781440734863,1.1383898258209229,1.0100000000000007
1.5221221446990967,-1.9817008972167969,1.1315467357635498,1.0200000000000007
1.5167367458343506,-2.0711960792541504,1.1775224208831787,1.0300000000000007
1.4993855953216553,-2.215719223022461,1.213956594467163,1.0400000000000007
1.5057175159454346,-2.357738494873047,1.182807445526123,1.0500000000000007
1.48750638961792,-2.210261344909668,1.2242858409881592,1.0600000000000007
1.5445847511291504,-2.098738193511963,1.3060657978057861,1.0700000000000007
1.674187421798706,-1.965747356414795,1.4748005867004395,1.0800000000000007
1.9093050956726074,-1.818511962890625,1.5737203359603882,1.0900000000000007
2.2115423679351807,-1.6834897994995117,1.6303315162658691,1.1000000000000008
2.346409320831299,-1.5105242729187012,1.7542715072631836,1.1100000000000008
2.4022903442382812,-1.2876710891723633,1.787937879562378,1.1200000000000008
2.4679815769195557,-1.058049201965332,1.863815426826477,1.1300000000000008
2.4598047733306885,-0.7451276779174805,1.9298839569091797,1.1400000000000008
2.384816884994507,-0.2652435302734375,1.8170592784881592,1.1500000000000008
2.353179454803467,0.2666330337524414,1.6671136617660522,1.1600000000000008
2.2666754722595215,0.77874755859375,1.4874706268310547,1.1700000000000008
2.1297566890716553,1.3668174743652344,1.3401559591293335,1.1800000000000008
1.937052607536316,1.9399652481079102,1.2486703395843506,1.1900000000000008
1.680908203125,2.3619918823242188,1.298870325088501,1.2000000000000008
1.476052165031433,2.702366828918457,1.2604764699935913,1.2100000000000009
1.314995527267456,2.9204845428466797,1.0707205533981323,1.2200000000000009
1.2144473791122437,2.98055362701416,0.9158651828765869,1.2300000000000009
1.2437570095062256,2.8492813110351562,0.8486894369125366,1.2400000000000009
1.1632341146469116,2.7661752700805664,1.0899615287780762,1.2500000000000009
1.231215000152588,2.5185136795043945,1.5378024578094482,1.260000000000001
1.5220242738723755,2.159176826477051,2.0091471672058105,1.270000000000001
1.9330763816833496,1.9441003799438477,2.3394198417663574,1.280000000000001
2.3736913204193115,1.8156623840332031,2.655630111694336,1.290000000000001
2.69804310798645,1.991292953491211,3.0316925048828125,1.300000000000001
2.8724350929260254,2.2698135375976562,3.331193208694458,1.310000000000001
2.9828295707702637,2.6415576934814453,3.4919164180755615,1.320000000000001
2.931164264678955,2.972454071044922,3.434558868408203,1.330000000000001
2.6244494915008545,3.09989070892334,3.3286612033843994,1.340000000000001
2.1969046592712402,3.0192909240722656,3.1236886978149414,1.350000000000001
1.8425980806350708,2.7237234115600586,2.886888265609741,1.360000000000001
1.6484460830688477,2.3018245697021484,2.5948328971862793,1.370000000000001
1.5121744871139526,1.8062686920166016,2.209639072418213,1.380000000000001
1.2950084209442139,1.4547061920166016,1.4537904262542725,1.390000000000001
1.4057425260543823,1.1751155853271484,0.39121437072753906,1.400000000000001
1.7124015092849731,1.0294990539550781,-0.3686845302581787,1.410000000000001
1.9487261772155762,0.9197559356689453,-0.8453904390335083,1.420000000000001
2.2340309619903564,0.8099813461303711,-1.369606614112854,1.430000000000001
2.165313243865967,1.0063800811767578,-1.8963582515716553,1.440000000000001
2.088778018951416,1.157155990600586,-2.464602470397949,1.450000000000001
2.2102739810943604,1.192915916442871,-3.218505382537842,1.460000000000001
2.0959300994873047,1.4318733215332031,-3.8455352783203125,1.470000000000001
2.2095799446105957,1.3788480758666992,-4.229268550872803,1.480000000000001
2.2084412574768066,1.4742517471313477,-4.588288307189941,1.490000000000001
2.079561233520508,1.7013988494873047,-4.746185779571533,1.500000000000001
2.035125255584717,1.6012754440307617,-4.825404167175293,1.5100000000000011
1.8937253952026367,1.3010139465332031,-4.889232158660889,1.5200000000000011
1.6043349504470825,1.28131103515625,-5.060883522033691,1.5300000000000011
0.9637855291366577,1.4986772537231445,-4.90162992477417,1.5400000000000011
-0.0021744966506958008,1.7234716415405273,-4.616751670837402,1.5500000000000012
-1.286076307296753,1.9297599792480469,-4.674402236938477,1.5600000000000012
-2.3428592681884766,2.352142333984375,-5.034796714782715,1.5700000000000012
-3.124948501586914,2.8062705993652344,-5.0663933753967285,1.5800000000000012
-3.5632848739624023,3.3064918518066406,-4.640730381011963,1.5900000000000012
-3.7557015419006348,3.6781349182128906,-4.045276165008545,1.6000000000000012
-3.5793116092681885,4.014396667480469,-3.3475770950317383,1.6100000000000012
-3.2296948432922363,4.4179887771606445,-2.6434075832366943,1.6200000000000012
-2.701768159866333,4.690306663513184,-2.1813929080963135,1.6300000000000012
-2.172097682952881,4.783595085144043,-2.0281918048858643,1.6400000000000012
-1.491728663444519,4.963346481323242,-1.761612057685852,1.6500000000000012
-0.9045770168304443,4.968758583068848,-1.4380701780319214,1.6600000000000013
-0.45803606510162354,4.842974662780762,-1.251060128211975,1.6700000000000013
-0.33367300033569336,4.674609184265137,-1.3561725616455078,1.6800000000000013
-0.5098140239715576,4.303539276123047,-1.4300696849822998,1.6900000000000013
-0.4839271306991577,4.0384063720703125,-1.3265490531921387,1.7000000000000013
-0.8716328144073486,3.525324821472168,-1.0211684703826904,1.7100000000000013
-1.1088093519210815,2.9511823654174805,-0.5923514366149902,1.7200000000000013
-1.2150580883026123,2.495354652404785,-0.21433591842651367,1.7300000000000013
-1.3052552938461304,1.8945531845092773,0.019961118698120117,1.7400000000000013
-1.3863459825515747,1.048415184020996,0.04830777645111084,1.7500000000000013
-1.551483392715454,0.029023170471191406,-0.05844271183013916,1.7600000000000013
-1.3557738065719604,-0.21166706085205078,-0.0213392972946167,1.7700000000000014
-1.247114658355713,-0.6357202529907227,-0.13505017757415771,1.7800000000000014
-1.2855015993118286,-0.6640872955322266,-0.49555230140686035,1.7900000000000014
-1.3918869495391846,-0.7060708999633789,-1.1004071235656738,1.8000000000000014
-1.587336540222168,-0.6613330841064453,-1.638347864151001,1.8100000000000014
-1.364539384841919,-0.4631233215332031,-2.073430299758911,1.8200000000000014
-1.0411945581436157,-0.7887163162231445,-2.168147087097168,1.8300000000000014
-0.8561902046203613,-1.5870323181152344,-1.9982908964157104,1.8400000000000014
-1.9653593301773071,-3.297253131866455,-2.185784339904785,1.8500000000000014
-1.780261754989624,-4.21183443069458,-2.044842481613159,1.8600000000000014
-0.5113260746002197,-3.9851317405700684,-1.778184175491333,1.8700000000000014
0.37589097023010254,-4.200140476226807,-1.271396279335022,1.8800000000000014
0.8992350101470947,-4.737666130065918,-1.0029383897781372,1.8900000000000015
1.2555739879608154,-5.026710033416748,-0.4344487190246582,1.9000000000000015
1.0411655902862549,-5.015034198760986,-0.2172536849975586,1.9100000000000015
0.7472355365753174,-5.039846420288086,-0.23331999778747559,1.9200000000000015
0.13617801666259766,-4.849320888519287,-0.26669788360595703,1.9300000000000015
-0.4586164951324463,-4.64622688293457,-0.24918580055236816,1.9400000000000015
-0.9289978742599487,-4.678564071655273,-0.11005830764770508,1.9500000000000015
-1.3315558433532715,-4.3022003173828125,-0.01077127456665039,1.9600000000000015
-1.875620722770691,-4.055088520050049,-0.04322552680969238,1.9700000000000015
-2.133448839187622,-3.9512648582458496,-0.004305601119995117,1.9800000000000015
-2.4015791416168213,-3.8590826988220215,-0.018705129623413086,1.9900000000000015
-2.49014949798584,-3.845520496368408,-0.09669756889343262,2.0000000000000013
-2.5182435512542725,-3.9989242553710938,-0.2581000328063965,2.010000000000001
-2.4425437450408936,-4.259252071380615,-0.41248202323913574,2.020000000000001
-2.3346147537231445,-4.468576908111572,-0.5696280002593994,2.0300000000000007
-2.194384813308716,-4.52426290512085,-0.6646637916564941,2.0400000000000005
-1.9494426250457764,-4.649163722991943,-0.6518014669418335,2.0500000000000003
-1.7188713550567627,-4.881776809692383,-0.5855005979537964,2.06
-1.948262095451355,-4.717563152313232,-0.46950364112854004,2.07
-2.1547889709472656,-4.331817626953125,-0.24981164932250977,2.0799999999999996
-2.2333056926727295,-4.1172003746032715,-0.08589816093444824,2.0899999999999994
-2.233945369720459,-3.9923806190490723,0.022768020629882812,2.099999999999999
-2.2357795238494873,-3.9524765014648438,0.16485381126403809,2.109999999999999
-2.2891266345977783,-3.9041056632995605,0.36907172203063965,2.1199999999999988
-2.257298231124878,-3.780393123626709,0.592371940612793,2.1299999999999986
-2.1063315868377686,-3.600597858428955,0.7412705421447754,2.1399999999999983
-2.1092042922973633,-3.7901721000671387,0.9085886478424072,2.149999999999998
-1.99587082862854,-3.7268033027648926,1.0486881732940674,2.159999999999998
-1.814467191696167,-3.604294776916504,0.9961869716644287,2.1699999999999977
-1.6344985961914062,-3.4751229286193848,0.9372835159301758,2.1799999999999975
-1.6023471355438232,-3.2720284461975098,0.7876331806182861,2.1899999999999973
-1.397608757019043,-2.9708662033081055,0.5630502700805664,2.199999999999997
-1.1902976036071777,-2.6646947860717773,0.33176279067993164,2.209999999999997
-1.1118392944335938,-2.2192840576171875,0.0803215503692627,2.2199999999999966
-1.1547958850860596,-1.6679410934448242,-0.20007789134979248,2.2299999999999964
-1.2476413249969482,-0.9961977005004883,-0.3501768112182617,2.239999999999996
-1.4219028949737549,-0.34256744384765625,-0.5530372858047485,2.249999999999996
-1.5390503406524658,0.3532066345214844,-1.1812946796417236,2.259999999999996
-1.6280665397644043,1.0915460586547852,-1.892317295074463,2.2699999999999956
-1.672451376914978,2.016132354736328,-2.1277055740356445,2.2799999999999954
-1.725048303604126,3.038219451904297,-1.3855676651000977,2.289999999999995
-1.7427773475646973,4.240995407104492,0.3132481575012207,2.299999999999995
-1.577233910560608,5.525517463684082,2.549928665161133,2.3099999999999947
-1.1110937595367432,6.821372985839844,4.916831970214844,2.3199999999999945
-0.48112237453460693,8.19931411743164,7.071705341339111,2.3299999999999943
0.6579372882843018,9.139299392700195,8.714755058288574,2.339999999999994
1.5485572814941406,10.217507362365723,9.592352867126465,2.349999999999994
2.2374517917633057,10.821418762207031,9.530817985534668,2.3599999999999937
3.015669584274292,10.418577194213867,8.58402156829834,2.3699999999999934
3.8011655807495117,8.503565788269043,7.347817897796631,2.3799999999999932
4.104274272918701,5.230962753295898,6.2032880783081055,2.389999999999993
4.4632110595703125,1.261439323425293,5.448292255401611,2.399999999999993
4.685143947601318,-2.2500457763671875,4.780647277832031,2.4099999999999926
4.8219313621521,-5.187394142150879,4.370445251464844,2.4199999999999924
4.5606513023376465,-6.706901550292969,3.1588361263275146,2.429999999999992
2.9892947673797607,-7.631009578704834,0.7104288339614868,2.439999999999992
2.136152505874634,-8.215008735656738,-0.6052224636077881,2.4499999999999917
1.2965419292449951,-8.15941047668457,-1.4764901399612427,2.4599999999999915
0.5135159492492676,-7.6839189529418945,-2.592298984527588,2.4699999999999913
-0.6368403434753418,-6.778090476989746,-3.792853832244873,2.479999999999991
-2.0939817428588867,-5.312177658081055,-4.495207786560059,2.489999999999991
-3.0381360054016113,-3.621580123901367,-4.926560401916504,2.4999999999999907
-3.2983198165893555,-1.5615463256835938,-5.324578762054443,2.5099999999999905
-3.0067248344421387,1.2062149047851562,-6.214593410491943,2.5199999999999902
-2.1974856853485107,5.0388689041137695,-7.074736595153809,2.52999999999999
-1.0610346794128418,10.03447151184082,-7.302056312561035,2.53999999999999
0.18106818199157715,16.529041290283203,-7.030727386474609,2.5499999999999896
1.2787322998046875,21.75748062133789,-6.029101848602295,2.5599999999999894
1.9911630153656006,25.402420043945312,-5.931829452514648,2.569999999999989
1.261391282081604,27.34458351135254,-6.039327621459961,2.579999999999989
-0.33251917362213135,26.7663631439209,-6.32675838470459,2.5899999999999888
-1.5995099544525146,23.481168746948242,-7.36652135848999,2.5999999999999885
-3.398674964904785,16.334270477294922,-8.919241905212402,2.6099999999999883
-4.68656063079834,10.4445219039917,-9.150421142578125,2.619999999999988
-4.982590675354004,6.307279586791992,-6.579869270324707,2.629999999999988
-4.348910331726074,3.0702123641967773,-3.1123456954956055,2.6399999999999877
-3.471273899078369,0.24575138092041016,-0.18235468864440918,2.6499999999999875
-2.358468770980835,-2.5377368927001953,0.9544916152954102,2.6599999999999873
-1.2144622802734375,-5.2754740715026855,0.491565465927124,2.669999999999987
0.03194248676300049,-8.062714576721191,-0.7323366403579712,2.679999999999987
1.160786509513855,-10.344060897827148,-1.7492103576660156,2.6899999999999866
1.5232902765274048,-11.538310050964355,-2.4140937328338623,2.6999999999999864
-0.08117783069610596,-11.232207298278809,-2.655982732772827,2.709999999999986
-0.48194420337677,-11.025471687316895,-2.3224618434906006,2.719999999999986
0.2184385061264038,-10.857881546020508,-1.9563355445861816,2.7299999999999858
0.8854973316192627,-10.242103576660156,-1.5069669485092163,2.7399999999999856
1.2707574367523193,-9.611773490905762,-1.5381312370300293,2.7499999999999853
1.1226904392242432,-8.724467277526855,-2.4345169067382812,2.759999999999985
1.0236072540283203,-8.009308815002441,-3.45129656791687,2.769999999999985
1.2852635383605957,-7.844266414642334,-4.27421760559082,2.7799999999999847
1.704505205154419,-7.410874843597412,-4.747841835021973,2.7899999999999845
1.9888349771499634,-6.541296005249023,-5.120501518249512,2.7999999999999843
2.0617780685424805,-4.6270928382873535,-5.412550449371338,2.809999999999984
1.7291102409362793,-1.9641070365905762,-5.511767387390137,2.819999999999984
0.937665581703186,1.0157337188720703,-5.3011369705200195,2.8299999999999836
-0.1592259407043457,3.1466407775878906,-4.541406631469727,2.8399999999999834
-1.4402668476104736,4.952425003051758,-3.9361915588378906,2.849999999999983
-2.424304485321045,6.46800422668457,-3.2268261909484863,2.859999999999983
-3.352691411972046,7.170927047729492,-2.2954835891723633,2.869999999999983
-3.6963512897491455,7.258642196655273,-1.7635276317596436,2.8799999999999826
-2.2795417308807373,5.382444381713867,-1.124428629875183,2.8899999999999824
-1.149672031402588,3.17911434173584,-0.42928534746170044,2.899999999999982
-1.0978657007217407,1.5237836837768555,-0.06708818674087524,2.909999999999982
-1.4747332334518433,0.4659547805786133,0.03532302379608154,2.9199999999999817
-1.6473063230514526,-0.5836772918701172,0.3277795612812042,2.9299999999999815
-1.7765508890151978,-1.4248161315917969,0.5528870820999146,2.9399999999999813
-1.7819950580596924,-2.0749197006225586,0.5367281436920166,2.949999999999981
-1.5255041122436523,-2.5682616233825684,0.4069189429283142,2.959999999999981
-1.105603575706482,-2.905686855316162,0.2386709451675415,2.9699999999999807
-0.714319109916687,-3.0305862426757812,-0.06509315967559814,2.9799999999999804
-0.18017363548278809,-3.087246894836426,-0.2831059396266937,2.9899999999999802
0.17524123191833496,-3.193424701690674,-0.7484561204910278,2.99999999999998
0.5941126346588135,-3.2584338188171387,-0.89765864610672,3.00999999999998
0.8701465129852295,-3.2679219245910645,-0.6966609954833984,3.0199999999999796
1.031341791152954,-3.1644020080566406,-0.36483365297317505,3.0299999999999794
1.2801415920257568,-3.1534223556518555,-0.10260611772537231,3.039999999999979
1.5080533027648926,-3.229863166809082,0.058959055691957474,3.049999999999979
1.6590819358825684,-2.8888025283813477,0.36345374584198,3.0599999999999787
1.5976502895355225,-2.7376270294189453,0.3625349998474121,3.0699999999999785
1.5614030361175537,-2.4456787109375,0.5149731040000916,3.0799999999999783
1.5873596668243408,-2.2160730361938477,0.8491071462631226,3.089999999999978
1.6892685890197754,-2.0701141357421875,1.2170641422271729,3.099999999999978
1.8095693588256836,-2.057875633239746,1.4112343788146973,3.1099999999999777
1.6586740016937256,-2.20780086517334,1.274559497833252,3.1199999999999775
1.4406938552856445,-2.4743242263793945,1.035902976989746,3.1299999999999772
1.21211838722229,-2.9651694297790527,0.7104650139808655,3.139999999999977
0.8973267078399658,-3.1278648376464844,0.7093861103057861,3.149999999999977
0.5539493560791016,-3.01063871383667,0.8474452495574951,3.1599999999999766
0.5169124603271484,-2.857771873474121,0.9797341227531433,3.1699999999999764
0.47243475914001465,-2.544969081878662,1.0331535339355469,3.179999999999976
0.5923476219177246,-2.2421822547912598,1.133317470550537,3.189999999999976
0.8331935405731201,-1.9063825607299805,1.2721060514450073,3.1999999999999758
1.0819742679595947,-1.5208349227905273,1.4488728046417236,3.2099999999999755
1.3335225582122803,-1.212320327758789,1.5578696727752686,3.2199999999999753
1.6141273975372314,-0.9449176788330078,1.6972315311431885,3.229999999999975
1.8832662105560303,-0.8597097396850586,1.8575371503829956,3.239999999999975
2.0548717975616455,-0.7962942123413086,1.9240224361419678,3.2499999999999747
2.124417304992676,-0.7785987854003906,1.937617540359497,3.2599999999999745
2.029866933822632,-0.658289909362793,1.9538686275482178,3.2699999999999743
1.9561301469802856,-0.7177047729492188,2.0524301528930664,3.279999999999974
1.9013893604278564,-0.6864595413208008,2.1168553829193115,3.289999999999974
1.729113221168518,-0.5908651351928711,2.102144718170166,3.2999999999999736
1.5845822095870972,-0.2587261199951172,2.027113437652588,3.3099999999999734
1.601188063621521,0.22601604461669922,1.886554479598999,3.319999999999973
1.862956166267395,0.5067310333251953,1.8881053924560547,3.329999999999973
2.080063819885254,0.9015941619873047,1.8105366230010986,3.3399999999999728
2.208719253540039,1.4726390838623047,1.6529591083526611,3.3499999999999726
2.1332530975341797,2.140810012817383,1.6061084270477295,3.3599999999999723
2.192840576171875,2.542548179626465,1.5761326551437378,3.369999999999972
2.0538744926452637,2.8791608810424805,1.586725115776062,3.379999999999972
1.928086519241333,3.1031341552734375,1.621490478515625,3.3899999999999717
1.802430272102356,2.959095001220703,1.7631909847259521,3.3999999999999715
1.580246090888977,2.493276596069336,1.9990202188491821,3.4099999999999713
1.5995616912841797,1.6750507354736328,2.330479621887207,3.419999999999971
2.0604963302612305,0.5190715789794922,2.7517905235290527,3.429999999999971
2.6553587913513184,-0.3383798599243164,2.9882023334503174,3.4399999999999706
3.178900718688965,-0.6896982192993164,3.4084866046905518,3.4499999999999704
3.5112733840942383,-0.36570262908935547,3.644059419631958,3.45999999999997
3.69039249420166,0.30045413970947266,3.8742012977600098,3.46999999999997
3.581944704055786,1.2175254821777344,4.029173374176025,3.47999999999997
3.1353774070739746,2.000242233276367,3.8596463203430176,3.4899999999999696
2.503986358642578,2.5243139266967773,3.5227627754211426,3.4999999999999694
1.7699909210205078,2.7133378982543945,3.0992698669433594,3.509999999999969
0.9200494289398193,2.6465110778808594,2.7567214965820312,3.519999999999969
0.4002187252044678,2.2451791763305664,2.433659076690674,3.5299999999999687
0.21344828605651855,1.6960716247558594,1.7376381158828735,3.5399999999999685
0.1834275722503662,1.3242578506469727,0.8069061040878296,3.5499999999999683
0.08056461811065674,1.1604194641113281,-0.23492753505706787,3.559999999999968
-0.09627854824066162,1.2809228897094727,-1.2424322366714478,3.569999999999968
-0.029589295387268066,1.4510726928710938,-2.115893602371216,3.5799999999999677
0.26342880725860596,1.627732276916504,-2.6000216007232666,3.5899999999999674
0.43762147426605225,2.0810909271240234,-3.104757308959961,3.5999999999999672
0.5594929456710815,2.621800422668457,-3.82517671585083,3.609999999999967
0.5976245403289795,2.802713394165039,-4.2803192138671875,3.619999999999967
0.491735577583313,3.143159866333008,-4.712867736816406,3.6299999999999666
0.4830714464187622,3.4634618759155273,-5.069759368896484,3.6399999999999664
0.5276682376861572,3.8593740463256836,-5.239776611328125,3.649999999999966
0.6462994813919067,4.070366859436035,-5.462730407714844,3.659999999999966
0.9708150625228882,3.652003288269043,-5.47581672668457,3.6699999999999657
0.8463501930236816,3.073833465576172,-5.437253952026367,3.6799999999999655
0.4629185199737549,2.716428756713867,-5.540560722351074,3.6899999999999653
-0.019940853118896484,2.541508674621582,-5.36485481262207,3.699999999999965
-0.7587209939956665,2.2334890365600586,-5.046355247497559,3.709999999999965
-1.5397452116012573,2.01041316986084,-4.7331390380859375,3.7199999999999647
-2.2436394691467285,2.0923995971679688,-4.528818607330322,3.7299999999999645
-2.506622076034546,2.1968860626220703,-4.423307418823242,3.7399999999999642
-2.44863224029541,2.400313377380371,-4.223154067993164,3.749999999999964
-2.1027743816375732,2.5373897552490234,-3.867094039916992,3.759999999999964
-1.810831069946289,2.8615503311157227,-3.494934320449829,3.7699999999999636
-1.6757327318191528,3.731318473815918,-3.238939046859741,3.7799999999999634
-1.506251335144043,4.070182800292969,-2.8376400470733643,3.789999999999963
-1.1151041984558105,4.191943168640137,-2.2195940017700195,3.799999999999963
-0.6830191612243652,4.416963577270508,-1.6341965198516846,3.8099999999999627
-0.6135883331298828,4.730555534362793,-1.2818547487258911,3.8199999999999625
-0.9335111379623413,4.95100212097168,-0.973681628704071,3.8299999999999623
-1.2435845136642456,5.006778717041016,-0.5976576805114746,3.839999999999962
-1.4795856475830078,5.0439863204956055,-0.23061376810073853,3.849999999999962
-1.751744031906128,4.603546142578125,0.14910870790481567,3.8599999999999617
-1.9025225639343262,3.9969091415405273,0.5347357988357544,3.8699999999999615
-1.9180197715759277,3.0735912322998047,0.9821643829345703,3.8799999999999613
-1.6764458417892456,2.656418800354004,1.2215263843536377,3.889999999999961
-1.4817140102386475,1.6687030792236328,1.0230205059051514,3.899999999999961
-1.21953547000885,0.8836708068847656,0.6873703002929688,3.9099999999999606
-0.5553296804428101,0.6717844009399414,0.3118668794631958,3.9199999999999604
0.03955245018005371,0.2695913314819336,-0.2667352557182312,3.92999999999996
0.3028907775878906,0.1943035125732422,-0.8070101737976074,3.93999999999996
0.8898336887359619,-0.2054615020751953,-1.1506121158599854,3.9499999999999598
0.9402656555175781,-0.6640777587890625,-1.585344672203064,3.9599999999999596
0.8470287322998047,-1.2722320556640625,-1.941936731338501,3.9699999999999593
0.6778695583343506,-1.5922346115112305,-2.3332324028015137,3.979999999999959
0.7307603359222412,-2.1389780044555664,-2.521897792816162,3.989999999999959
0.8703110218048096,-2.757437229156494,-2.3771250247955322,3.9999999999999587
0.9559049606323242,-3.486438751220703,-1.999830961227417,4.009999999999959
1.1649401187896729,-4.221155166625977,-1.869365930557251,4.019999999999959
1.4829950332641602,-4.9331817626953125,-1.9010039567947388,4.0299999999999585
1.577369213104248,-5.388461112976074,-1.9861249923706055,4.039999999999958
1.416318655014038,-5.805315971374512,-1.4217861890792847,4.049999999999958
1.15635085105896,-5.951907157897949,-0.6999796628952026,4.059999999999958
0.688410758972168,-5.809012413024902,-0.4049656391143799,4.069999999999958
0.21708011627197266,-5.6897759437561035,-0.25736451148986816,4.079999999999957
-0.3689342737197876,-5.4454345703125,-0.22449254989624023,4.089999999999957
-0.8455837965011597,-5.353127956390381,-0.12543869018554688,4.099999999999957
-1.2947747707366943,-5.060763835906982,-0.19358444213867188,4.109999999999957
-1.6312878131866455,-4.91506290435791,-0.13976335525512695,4.119999999999957
-2.0355021953582764,-4.894164085388184,-0.145857572555542,4.129999999999956
-2.260453701019287,-4.45980978012085,-0.2559018135070801,4.139999999999956
-2.511741876602173,-4.210019588470459,-0.4543900489807129,4.149999999999956
-2.624366044998169,-4.115866661071777,-0.497417688369751,4.159999999999956
-2.547954559326172,-4.007472038269043,-0.5980299711227417,4.1699999999999555
-2.5141897201538086,-4.138365745544434,-0.7492450475692749,4.179999999999955
-2.4509165287017822,-4.197390556335449,-0.8748729228973389,4.189999999999955
-2.24527645111084,-4.356898307800293,-1.049126148223877,4.199999999999955
-2.045311689376831,-4.523675918579102,-1.042107343673706,4.209999999999955
-1.8963260650634766,-4.652401447296143,-0.9995605945587158,4.2199999999999545
-1.7187389135360718,-4.851015090942383,-0.8396008014678955,4.229999999999954
-1.6297988891601562,-4.961762428283691,-0.6478292942047119,4.239999999999954
-1.698945164680481,-5.058903694152832,-0.4622385501861572,4.249999999999954
-1.7922438383102417,-5.199817180633545,-0.24443483352661133,4.259999999999954
-2.030028820037842,-5.183403491973877,-0.047089576721191406,4.269999999999953
-2.216897964477539,-4.7394866943359375,0.2135910987854004,4.279999999999953
-2.1666579246520996,-4.236732482910156,0.4131035804748535,4.289999999999953
-2.0495142936706543,-3.9166359901428223,0.558610200881958,4.299999999999953
-2.018791913986206,-3.6425528526306152,0.7791047096252441,4.3099999999999525
-1.897413969039917,-3.3354334831237793,0.964292049407959,4.319999999999952
-1.6993826627731323,-3.246263027191162,0.9724061489105225,4.329999999999952
-1.5589251518249512,-2.982400417327881,0.9512732028961182,4.339999999999952
-1.483201503753662,-2.6634554862976074,0.9768962860107422,4.349999999999952
-1.5055924654006958,-2.160189151763916,1.0819170475006104,4.3599999999999515
-1.4027541875839233,-1.8983845710754395,1.2126104831695557,4.369999999999951
-1.499780535697937,-1.2965688705444336,1.423041820526123,4.379999999999951
-1.9958713054656982,-0.7899637222290039,1.5040608644485474,4.389999999999951
-1.9144586324691772,-0.3663454055786133,1.3850980997085571,4.399999999999951
-1.9515210390090942,0.3215475082397461,0.7262086868286133,4.40999999999995
-1.9506915807724,1.2286262512207031,-0.9141795039176941,4.41999999999995
-1.9716815948486328,2.2857666015625,-2.332768440246582,4.42999999999995
-2.053992986679077,3.440436363220215,-2.867703914642334,4.43999999999995
-2.134380578994751,4.603852272033691,-1.9340314865112305,4.4499999999999496
-2.0242347717285156,5.775372505187988,0.2718847990036011,4.459999999999949
-1.7782340049743652,6.906373023986816,2.9345574378967285,4.469999999999949
-1.0049755573272705,7.816317558288574,5.658666610717773,4.479999999999949
0.0718073844909668,8.405911445617676,8.318307876586914,4.489999999999949
1.2756097316741943,8.62615966796875,10.417682647705078,4.4999999999999485
2.1105244159698486,8.65119743347168,11.354724884033203,4.509999999999948
2.593498468399048,8.096549034118652,11.079757690429688,4.519999999999948
3.4911134243011475,7.16232967376709,10.1083345413208,4.529999999999948
4.472560882568359,5.577175140380859,8.641870498657227,4.539999999999948
5.333636283874512,3.098356246948242,7.311426162719727,4.549999999999947
5.883617401123047,-0.03606891632080078,5.196229934692383,4.559999999999947
6.173303604125977,-3.0600051879882812,2.4405832290649414,4.569999999999947
6.390260219573975,-5.124752521514893,0.36041057109832764,4.579999999999947
4.7365007400512695,-5.587283611297607,-1.382779598236084,4.589999999999947
2.9910573959350586,-5.306591987609863,-2.98457932472229,4.599999999999946
2.370908260345459,-4.593667030334473,-3.804605484008789,4.609999999999946
1.7131333351135254,-3.5324974060058594,-4.071322441101074,4.619999999999946
0.7745230197906494,-2.0948915481567383,-4.372331142425537,4.629999999999946
-0.06340765953063965,-0.29376792907714844,-4.826746940612793,4.6399999999999455
-0.8434300422668457,1.6738615036010742,-5.551235675811768,4.649999999999945
-0.5041966438293457,5.170045852661133,-6.063881874084473,4.659999999999945
0.46342968940734863,9.888795852661133,-6.680139541625977,4.669999999999945
1.3968092203140259,15.196005821228027,-6.807089805603027,4.679999999999945
2.406132221221924,20.019357681274414,-6.3344268798828125,4.689999999999944
1.8569508790969849,22.778812408447266,-6.07705020904541,4.699999999999944
0.39035189151763916,23.82066535949707,-6.0099568367004395,4.709999999999944
-2.169851779937744,23.490575790405273,-5.9332122802734375,4.719999999999944
-4.028622627258301,19.334749221801758,-6.061264514923096,4.729999999999944
-5.652184963226318,13.391080856323242,-6.857884407043457,4.739999999999943
-6.515741348266602,8.246445655822754,-7.295852184295654,4.749999999999943
-6.852827548980713,4.572288513183594,-6.378018856048584,4.759999999999943
-5.657845497131348,1.3618354797363281,-3.7235195636749268,4.769999999999943
-3.841189384460449,-1.6231727600097656,-0.774486243724823,4.7799999999999425
-2.9911651611328125,-4.261293888092041,1.3215535879135132,4.789999999999942
-1.988502025604248,-6.779791355133057,1.5980026721954346,4.799999999999942
-1.0506610870361328,-9.367137908935547,0.48749518394470215,4.809999999999942
-0.026389598846435547,-11.786055564880371,-0.7429323196411133,4.819999999999942
0.048390984535217285,-13.215681076049805,-1.7018849849700928,4.8299999999999415
-1.333813190460205,-13.297301292419434,-2.459986448287964,4.839999999999941
-1.4203386306762695,-13.299944877624512,-2.584014892578125,4.849999999999941
-0.31604814529418945,-13.244205474853516,-2.183767795562744,4.859999999999941
0.4942692518234253,-12.608125686645508,-1.8099098205566406,4.869999999999941
1.1045784950256348,-11.693081855773926,-1.679301381111145,4.87999999999994
1.6064121723175049,-10.666400909423828,-2.0373785495758057,4.88999999999994
1.98798406124115,-9.611281394958496,-2.8775997161865234,4.89999999999994
2.2014288902282715,-8.940479278564453,-3.800462245941162,4.90999999999994
2.8152003288269043,-8.13097095489502,-4.510318756103516,4.9199999999999395
3.35768723487854,-6.757575988769531,-5.11529541015625,4.929999999999939
3.86897349357605,-3.9071860313415527,-5.459429740905762,4.939999999999939
3.9199166297912598,0.3555459976196289,-5.8231000900268555,4.949999999999939
1.9888917207717896,4.865228652954102,-6.253602027893066,4.959999999999939
-0.5605766773223877,7.065309524536133,-5.2917160987854,4.9699999999999385
-3.152216911315918,9.016813278198242,-4.220292568206787,4.979999999999938
-5.146244049072266,10.673501968383789,-3.3311495780944824,4.989999999999938
-6.119915008544922,11.974089622497559,-2.787367820739746,4.999999999999938
-5.801662445068359,12.313483238220215,-2.124420166015625,5.009999999999938
-3.542417526245117,9.63267707824707,-0.9372016191482544,5.019999999999937
-2.1058058738708496,4.724135398864746,0.03922891616821289,5.029999999999937
-1.2542533874511719,1.1818456649780273,0.501367449760437,5.039999999999937
-0.6652567386627197,-1.161336898803711,0.6334223747253418,5.049999999999937
-0.7039902210235596,-2.6514625549316406,0.6525732278823853,5.0599999999999365
-1.1096794605255127,-3.6459383964538574,0.5591183304786682,5.069999999999936
-1.1977133750915527,-4.148020267486572,0.38804590702056885,5.079999999999936
-1.2548084259033203,-4.505337238311768,0.2065114676952362,5.089999999999936
-0.5540510416030884,-4.890894412994385,0.10333609580993652,5.099999999999936
-0.33291375637054443,-4.891592979431152,0.06212010979652405,5.1099999999999355
-0.03503227233886719,-4.780910015106201,0.22967219352722168,5.119999999999935
0.16353940963745117,-4.423092365264893,0.41579359769821167,5.129999999999935
0.38115882873535156,-4.244411945343018,0.015364140272140503,5.139999999999935
0.5613002777099609,-4.015294551849365,-0.7507662773132324,5.149999999999935
0.741926908493042,-3.5276451110839844,-1.2493339776992798,5.159999999999934
1.0417652130126953,-2.9417295455932617,-1.2302628755569458,5.169999999999934
1.215287446975708,-2.6111302375793457,-1.0322749614715576,5.179999999999934
1.6122708320617676,-1.5594472885131836,-0.5182603597640991,5.189999999999934
1.8880131244659424,-0.6645021438598633,0.05388336628675461,5.199999999999934
1.9638020992279053,-0.26749229431152344,0.434494286775589,5.209999999999933
2.0943615436553955,-0.24554443359375,0.7794370055198669,5.219999999999933
2.1355721950531006,-0.4713268280029297,1.0250177383422852,5.229999999999933
2.032702684402466,-0.8560676574707031,1.0548378229141235,5.239999999999933
1.8513083457946777,-1.356663703918457,0.9483521580696106,5.2499999999999325
1.5738587379455566,-2.076070785522461,0.6841573715209961,5.259999999999932
1.2261219024658203,-2.7704687118530273,0.6159390211105347,5.269999999999932
0.8068664073944092,-3.232084274291992,0.8933826684951782,5.279999999999932
0.5226306915283203,-3.5618152618408203,1.288250207901001,5.289999999999932
0.4673435688018799,-3.8915534019470215,1.5699079036712646,5.299999999999931
0.478426456451416,-3.8675169944763184,1.6971155405044556,5.309999999999931
0.46250295639038086,-3.5427680015563965,1.6936898231506348,5.319999999999931
0.514991283416748,-3.0850157737731934,1.6552784442901611,5.329999999999931
0.5277862548828125,-2.511092185974121,1.658221960067749,5.339999999999931
0.6844837665557861,-1.9669384956359863,1.6134018898010254,5.34999999999993
0.91267991065979,-1.452479362487793,1.5777180194854736,5.35999999999993
1.1642286777496338,-0.974822998046875,1.6301229000091553,5.36999999999993
1.333591341972351,-0.6533994674682617,1.6968259811401367,5.37999999999993
1.5831902027130127,-0.47118377685546875,1.7974361181259155,5.3899999999999295
1.7021632194519043,-0.2557344436645508,1.9109129905700684,5.399999999999929
1.7524542808532715,-0.10741138458251953,1.9180543422698975,5.409999999999929
1.8125817775726318,0.05045509338378906,1.876313328742981,5.419999999999929
1.9129775762557983,0.2968864440917969,2.0226638317108154,5.429999999999929
2.0675458908081055,0.4979572296142578,2.330885410308838,5.4399999999999284
2.1704111099243164,0.8139419555664062,2.4678783416748047,5.449999999999928
2.37204647064209,1.1011133193969727,2.533352851867676,5.459999999999928
2.638819932937622,1.359330177307129,2.476114273071289,5.469999999999928
2.8678364753723145,1.4976186752319336,2.4103939533233643,5.479999999999928
3.1650638580322266,1.3724794387817383,2.448395252227783,5.489999999999927
3.2866764068603516,1.184992790222168,2.3458328247070312,5.499999999999927
3.174807071685791,1.1528043746948242,1.8607269525527954,5.509999999999927
2.9743576049804688,1.2399892807006836,1.337844729423523,5.519999999999927
2.682011127471924,1.4514379501342773,0.9456436634063721,5.5299999999999265
2.5015974044799805,1.2874565124511719,0.8725152015686035,5.539999999999926
2.394702434539795,0.9519948959350586,0.9548217058181763,5.549999999999926
2.2197608947753906,0.7228240966796875,1.2340563535690308,5.559999999999926
2.4609873294830322,0.26021289825439453,1.75369393825531,5.569999999999926
2.683617115020752,0.10473823547363281,2.2792863845825195,5.5799999999999255
2.770679473876953,0.35157299041748047,2.7123184204101562,5.589999999999925
2.650082588195801,0.9475698471069336,3.1096131801605225,5.599999999999925
2.4100351333618164,1.6077604293823242,3.4038515090942383,5.609999999999925
2.1227059364318848,2.224365234375,3.446528434753418,5.619999999999925
1.7213650941848755,2.6873550415039062,3.117947578430176,5.629999999999924
1.0553736686706543,3.0351619720458984,2.6789772510528564,5.639999999999924
0.4430497884750366,3.1436452865600586,2.318974256515503,5.649999999999924
0.13105535507202148,2.972311019897461,1.6451401710510254,5.659999999999924
0.22735297679901123,2.719693183898926,0.8456249833106995,5.6699999999999235
0.41845035552978516,2.467015266418457,-0.14245617389678955,5.679999999999923
0.4507204294204712,2.336195945739746,-1.249752163887024,5.689999999999923
0.3045773506164551,2.205280303955078,-2.117093563079834,5.699999999999923
0.367179274559021,2.1102914810180664,-2.6413662433624268,5.709999999999923
0.6427685022354126,2.211275100708008,-3.2328855991363525,5.7199999999999225
0.8720395565032959,2.321345329284668,-3.764131546020508,5.729999999999922
0.9179633855819702,2.598234176635742,-4.279568672180176,5.739999999999922
0.9761911630630493,2.8408021926879883,-4.749619007110596,5.749999999999922
0.9526915550231934,3.099365234375,-5.022255897521973,5.759999999999922
0.7580467462539673,3.1828832626342773,-5.124200820922852,5.769999999999921
0.8421459197998047,2.8263368606567383,-5.148787975311279,5.779999999999921
0.7697808742523193,2.4583797454833984,-5.388319969177246,5.789999999999921
0.34491872787475586,2.294438362121582,-5.663699626922607,5.799999999999921
-0.27545273303985596,2.2698898315429688,-5.586779594421387,5.809999999999921
-1.1207568645477295,2.229397773742676,-5.435830116271973,5.81999999999992
-1.8614654541015625,2.120513916015625,-5.445717811584473,5.82999999999992
-2.373953342437744,2.251707077026367,-5.40224027633667,5.83999999999992
-2.688455104827881,2.273592948913574,-5.031323432922363,5.84999999999992
-2.605830430984497,2.489884376525879,-4.569474220275879,5.8599999999999195
-2.2570552825927734,2.711209297180176,-4.1848063468933105,5.869999999999919
-2.084899425506592,3.1575698852539062,-3.913527011871338,5.879999999999919
-1.9558038711547852,3.5323543548583984,-3.7771239280700684,5.889999999999919
-1.9563193321228027,4.1108245849609375,-3.679513692855835,5.899999999999919
-2.100947380065918,4.706372261047363,-3.5433647632598877,5.909999999999918
-2.152513027191162,5.263968467712402,-3.3943378925323486,5.919999999999918
-2.0197763442993164,5.410548210144043,-2.85581636428833,5.929999999999918
-2.109135150909424,5.459739685058594,-2.3165791034698486,5.939999999999918
-2.315112829208374,5.363746643066406,-1.6633319854736328,5.949999999999918
-2.673818349838257,5.318820953369141,-1.1999351978302002,5.959999999999917
-2.8505849838256836,5.229260444641113,-0.8430873155593872,5.969999999999917
-2.8719823360443115,5.0185651779174805,-0.4470818042755127,5.979999999999917
-2.627973794937134,4.670017242431641,-0.19828230142593384,5.989999999999917
-2.31980037689209,3.8441600799560547,-0.029016733169555664,5.9999999999999165
-1.5794546604156494,3.299468994140625,0.061461031436920166,6.009999999999916
-1.1445963382720947,2.748654365539551,0.08604472875595093,6.019999999999916
-0.9678002595901489,1.9646759033203125,-0.024637699127197266,6.029999999999916
-0.718336820602417,1.3828344345092773,-0.14888179302215576,6.039999999999916
-0.6737009286880493,1.2736444473266602,-0.3010087013244629,6.0499999999999154
-0.295379638671875,0.3216266632080078,-0.7801846861839294,6.059999999999915
0.4906165599822998,-0.6308536529541016,-0.9894507527351379,6.069999999999915
0.28481173515319824,-0.656315803527832,-0.19093239307403564,6.079999999999915
-0.4801769256591797,-0.14603614807128906,-0.18318259716033936,6.089999999999915
-1.2218756675720215,-0.09757137298583984,-1.1350409984588623,6.099999999999914
-1.3659523725509644,-0.37389659881591797,-1.7100532054901123,6.109999999999914
-1.0293675661087036,-0.8147850036621094,-1.6685740947723389,6.119999999999914
-0.4343132972717285,-1.4374604225158691,-1.1880381107330322,6.129999999999914
0.2596266269683838,-1.95548677444458,-0.9004793167114258,6.1399999999999135
0.787388801574707,-2.4387259483337402,-1.079703688621521,6.149999999999913
1.231048822402954,-3.0765624046325684,-1.320094108581543,6.159999999999913
1.6386313438415527,-3.7593154907226562,-1.2372887134552002,6.169999999999913
1.789377212524414,-4.303124904632568,-0.9493390321731567,6.179999999999913
1.73974609375,-4.698451519012451,-0.6975588798522949,6.1899999999999125
1.215632677078247,-5.152932167053223,-0.640343427658081,6.199999999999912
0.7520415782928467,-5.5582356452941895,-0.7526547908782959,6.209999999999912
0.08482718467712402,-5.662761688232422,-0.8227918148040771,6.219999999999912
-0.5501033067703247,-5.798836708068848,-0.8394265174865723,6.229999999999912
-1.1797393560409546,-6.002125263214111,-0.7285797595977783,6.239999999999911
-1.4482500553131104,-6.107370376586914,-0.8064277172088623,6.249999999999911
-1.786834478378296,-6.22691535949707,-0.8890011310577393,6.259999999999911
-1.8129699230194092,-6.262612342834473,-0.979021430015564,6.269999999999911
-1.8043558597564697,-6.092684745788574,-1.0979441404342651,6.2799999999999105
-1.6747548580169678,-6.047435760498047,-1.1501336097717285,6.28999999999991
-1.6297893524169922,-6.031111717224121,-1.135743260383606,6.29999999999991
-1.7631155252456665,-5.814136028289795,-1.1214627027511597,6.30999999999991
-2.0083885192871094,-5.1696977615356445,-0.9342632293701172,6.31999999999991
-1.983202576637268,-4.775228500366211,-0.7002787590026855,6.3299999999999095
-1.9342628717422485,-4.525333881378174,-0.5196559429168701,6.339999999999909
-2.0555641651153564,-4.364861011505127,-0.29651308059692383,6.349999999999909
-2.1201303005218506,-4.226736545562744,-0.040311574935913086,6.359999999999909
-2.175715446472168,-4.101418495178223,0.30866360664367676,6.369999999999909
-2.361070394515991,-3.862236499786377,0.6453261375427246,6.379999999999908
-2.3119497299194336,-3.8298306465148926,0.8834209442138672,6.389999999999908
-2.314913749694824,-3.681103229522705,1.0607421398162842,6.399999999999908
-2.319378614425659,-3.5787715911865234,1.2010116577148438,6.409999999999908
-2.294166326522827,-3.489187717437744,1.327803611755371,6.419999999999908
-2.383096933364868,-3.309342384338379,1.3380374908447266,6.429999999999907
-2.2654576301574707,-3.146908760070801,1.408623456954956,6.439999999999907
-1.9649393558502197,-3.011512279510498,1.4916784763336182,6.449999999999907
-1.766007661819458,-2.786020278930664,1.5107762813568115,6.459999999999907
-1.6183576583862305,-2.535086154937744,1.5043418407440186,6.4699999999999065
-1.447693109512329,-2.3496298789978027,1.5084316730499268,6.479999999999906
-1.1583278179168701,-2.179384231567383,1.4395592212677002,6.489999999999906
-0.9249951839447021,-2.0337281227111816,1.26155686378479,6.499999999999906
-0.653878927230835,-1.9170637130737305,0.8654062747955322,6.509999999999906
-0.42383265495300293,-1.7977638244628906,0.31397032737731934,6.519999999999905
-0.17977726459503174,-1.567741870880127,-0.220017671585083,6.529999999999905
0.1411724090576172,-1.2625503540039062,-0.861173152923584,6.539999999999905
0.4410231113433838,-0.7430295944213867,-1.6886717081069946,6.549999999999905
0.25296854972839355,0.13935279846191406,-2.35298752784729,6.559999999999905
0.07141375541687012,1.284311294555664,-3.006784439086914,6.569999999999904
-0.44239819049835205,2.56978702545166,-2.743530511856079,6.579999999999904
-0.6383881568908691,3.674631118774414,-1.238555669784546,6.589999999999904
0.2852170467376709,4.1051788330078125,1.1238629817962646,6.599999999999904
0.37575531005859375,4.29417610168457,3.244302988052368,6.6099999999999035
0.4307591915130615,4.671421051025391,5.289257049560547,6.619999999999903
0.6706464290618896,5.2575273513793945,6.747163772583008,6.629999999999903
0.8108649253845215,5.958552360534668,7.8259596824646,6.639999999999903
1.0450994968414307,6.5422468185424805,8.507833480834961,6.649999999999903
0.9950497150421143,6.855979919433594,8.496244430541992,6.659999999999902
1.1467108726501465,6.80723762512207,7.921850204467773,6.669999999999902
1.53713059425354,6.387088775634766,7.211402893066406,6.679999999999902
2.0532357692718506,5.457447052001953,6.520448684692383,6.689999999999902
2.49837064743042,3.7822351455688477,5.79669189453125,6.699999999999902
2.6093568801879883,1.5916004180908203,5.163612365722656,6.709999999999901
2.35062313079834,-0.5524406433105469,4.510947227478027,6.719999999999901
1.7600953578948975,-2.442093849182129,3.4503109455108643,6.729999999999901
1.2768771648406982,-4.232685089111328,1.596508502960205,6.739999999999901
0.7113795280456543,-5.808815002441406,-0.036032676696777344,6.7499999999999005
-0.17053139209747314,-6.304185390472412,-1.9396675825119019,6.7599999999999
-0.7564822435379028,-5.776711463928223,-3.3090813159942627,6.7699999999999
-1.338774561882019,-5.131038188934326,-3.0106804370880127,6.7799999999999
-2.2736475467681885,-4.493960380554199,-2.4812474250793457,6.7899999999999
-2.610405683517456,-3.471675395965576,-1.9072951078414917,6.7999999999998995
-2.600633144378662,-2.516606330871582,-2.5348756313323975,6.809999999999899
-2.528169631958008,-0.6459856033325195,-3.125059127807617,6.819999999999899
-1.8533251285552979,1.5860366821289062,-3.593090534210205,6.829999999999899
-1.1484296321868896,4.120783805847168,-3.765401601791382,6.839999999999899
-0.5470880270004272,6.9069719314575195,-3.9768223762512207,6.849999999999898
0.34563302993774414,9.84054946899414,-4.032226085662842,6.859999999999898
0.8025503158569336,12.657663345336914,-5.143620014190674,6.869999999999898
1.4648972749710083,15.290534973144531,-6.971913814544678,6.879999999999898
2.1067466735839844,17.21978759765625,-6.619174957275391,6.8899999999998975
-1.3886655569076538,16.701045989990234,-6.439578533172607,6.899999999999897
-2.2662248611450195,17.697601318359375,-7.893516540527344,6.909999999999897
-0.1557682752609253,16.75551414489746,-7.727901458740234,6.919999999999897
1.2318817377090454,12.486273765563965,-6.622767448425293,6.929999999999897
-0.05065000057220459,8.364858627319336,-5.830316543579102,6.9399999999998965
-1.1647738218307495,5.897428512573242,-3.935561180114746,6.949999999999896
-1.4884289503097534,3.3138904571533203,-1.5787665843963623,6.959999999999896
-1.2148369550704956,0.38410377502441406,-0.3957916498184204,6.969999999999896
-0.5680111050605774,-2.200592517852783,-0.5650485754013062,6.979999999999896
0.19462251663208008,-4.361489772796631,-1.065927505493164,6.989999999999895
0.7905881404876709,-5.902655601501465,-1.4525351524353027,6.999999999999895
0.1259216070175171,-6.439208984375,-1.703931212425232,7.009999999999895
-0.991980791091919,-6.64396858215332,-1.6603193283081055,7.019999999999895
-0.9371084570884705,-6.637404918670654,-1.466644287109375,7.0299999999998946
-0.3129216432571411,-6.583441734313965,-1.3869199752807617,7.039999999999894
-0.0432887077331543,-6.650521278381348,-1.9074692726135254,7.049999999999894
0.750555157661438,-6.521862030029297,-2.772221803665161,7.059999999999894
1.6774078607559204,-6.276309490203857,-3.262028694152832,7.069999999999894
1.9264113903045654,-5.638585567474365,-3.356954574584961,7.0799999999998935
2.068216323852539,-5.1743855476379395,-3.879760265350342,7.089999999999893
2.493825674057007,-4.599231243133545,-4.683765411376953,7.099999999999893
2.9327545166015625,-3.8459630012512207,-5.45640754699707,7.109999999999893
2.6024434566497803,-2.6987738609313965,-5.633061408996582,7.119999999999893
2.680147171020508,-1.0302305221557617,-5.7610697746276855,7.129999999999892
2.296356678009033,0.6080303192138672,-5.301774024963379,7.139999999999892
1.063491940498352,1.9666528701782227,-4.681120872497559,7.149999999999892
-0.38712894916534424,2.8992929458618164,-4.0399651527404785,7.159999999999892
-1.794736623764038,3.4315176010131836,-3.3676328659057617,7.169999999999892
-2.8120369911193848,3.4688758850097656,-2.791027069091797,7.179999999999891
-2.7962474822998047,2.938081741333008,-2.3239076137542725,7.189999999999891
-1.843690276145935,1.8680477142333984,-1.9096755981445312,7.199999999999891
-1.1895782947540283,0.63427734375,-1.3851613998413086,7.209999999999891
-1.5524415969848633,-0.7562265396118164,-1.0603876113891602,7.2199999999998905
-1.791176199913025,-1.1918516159057617,-0.9061053395271301,7.22999999999989
-1.9664344787597656,-2.0275845527648926,-0.9627965688705444,7.23999999999989
-1.9044227600097656,-2.256702423095703,-1.0703177452087402,7.24999999999989
-2.102461576461792,-2.6643853187561035,-1.1813087463378906,7.25999999999989
-2.3450253009796143,-3.1333274841308594,-1.2651402950286865,7.269999999999889
-2.4186573028564453,-3.1352834701538086,-1.400587558746338,7.279999999999889
-2.04414439201355,-2.9297523498535156,-1.5100328922271729,7.289999999999889
-1.6295572519302368,-2.579775333404541,-1.2949085235595703,7.299999999999889
-1.5362980365753174,-2.221996784210205,-1.1818867921829224,7.309999999999889
-1.5426760911941528,-1.959127426147461,-1.1555306911468506,7.319999999999888
-1.2949509620666504,-1.7050490379333496,-1.070930004119873,7.329999999999888
-0.990185022354126,-1.5194830894470215,-0.9986457228660583,7.339999999999888
-0.8431605100631714,-1.1604194641113281,-1.1198960542678833,7.349999999999888
-0.5615062713623047,-0.8523502349853516,-1.0424355268478394,7.3599999999998875
-0.19257235527038574,-0.6114950180053711,-0.8432385921478271,7.369999999999887
0.15205073356628418,-0.3823890686035156,-0.6373901963233948,7.379999999999887
0.6917872428894043,-0.16962528228759766,-0.18115466833114624,7.389999999999887
1.2280926704406738,-0.19554615020751953,0.22117364406585693,7.399999999999887
1.6295368671417236,-0.37372684478759766,0.3394453525543213,7.4099999999998865
1.757819414138794,-0.5700788497924805,0.3720055818557739,7.419999999999886
1.7835683822631836,-0.7129611968994141,0.5295916199684143,7.429999999999886
1.7605772018432617,-0.9533414840698242,0.7024452686309814,7.439999999999886
1.7575628757476807,-1.2508525848388672,0.7732863426208496,7.449999999999886
1.555506944656372,-1.3808822631835938,0.7035355567932129,7.459999999999885
1.2173361778259277,-1.721583366394043,0.7018998265266418,7.469999999999885
0.9106802940368652,-2.0503435134887695,0.5556344985961914,7.479999999999885
0.7148981094360352,-2.3266372680664062,0.6160485744476318,7.489999999999885
0.49863696098327637,-2.433438301086426,0.8828569650650024,7.4999999999998845
0.3624851703643799,-2.4762024879455566,1.2102395296096802,7.509999999999884
0.2512671947479248,-2.4095396995544434,1.3773994445800781,7.519999999999884
0.28934454917907715,-2.2551088333129883,1.495847225189209,7.529999999999884
0.564974308013916,-2.0584487915039062,1.6511852741241455,7.539999999999884
0.713834285736084,-1.7525248527526855,1.7165167331695557,7.5499999999998835
0.8960859775543213,-1.5478506088256836,1.7088197469711304,7.559999999999883
1.044360876083374,-1.4155187606811523,1.6948174238204956,7.569999999999883
1.244769811630249,-1.2526321411132812,1.6934013366699219,7.579999999999883
1.3204047679901123,-1.236189842224121,1.8297284841537476,7.589999999999883
1.2832424640655518,-1.1579265594482422,1.8055905103683472,7.599999999999882
1.3462567329406738,-1.1804981231689453,1.7387146949768066,7.609999999999882
1.3969590663909912,-1.2463712692260742,1.643664002418518,7.619999999999882
1.3773820400238037,-1.2549076080322266,1.4988458156585693,7.629999999999882
1.3396756649017334,-1.2921180725097656,1.4834978580474854,7.6399999999998816
1.3887906074523926,-1.4463748931884766,1.4704155921936035,7.649999999999881
1.4406609535217285,-1.6051034927368164,1.521426796913147,7.659999999999881
1.4759438037872314,-1.6702213287353516,1.5598047971725464,7.669999999999881
1.6100964546203613,-1.909757137298584,1.758575201034546,7.679999999999881
1.6900811195373535,-2.029376983642578,1.888449788093567,7.6899999999998805
1.775386095046997,-2.041092872619629,1.9160089492797852,7.69999999999988
1.6045551300048828,-1.784660816192627,1.9894723892211914,7.70999999999988
1.6485240459442139,-1.5879058837890625,2.087191104888916,7.71999999999988
1.7779927253723145,-1.302567481994629,1.9192224740982056,7.72999999999988
1.7335608005523682,-0.8401641845703125,1.546953797340393,7.739999999999879
1.6082631349563599,-0.4663200378417969,1.1302579641342163,7.749999999999879
1.627150058746338,-0.38901233673095703,0.8557825088500977,7.759999999999879
1.6557915210723877,-0.22291851043701172,0.36172112822532654,7.769999999999879
1.4108513593673706,0.03437614440917969,-0.007927775382995605,7.779999999999879
1.3754537105560303,0.2991209030151367,0.005514323711395264,7.789999999999878
1.3249894380569458,0.42300987243652344,0.23723715543746948,7.799999999999878
1.2095513343811035,0.5424280166625977,0.41440337896347046,7.809999999999878
1.0869687795639038,0.7481536865234375,0.5992554426193237,7.819999999999878
0.9647295475006104,1.087850570678711,0.9833203554153442,7.8299999999998775
0.9173973798751831,1.4632635116577148,1.3850157260894775,7.839999999999877
0.88792884349823,1.9722814559936523,1.5436104536056519,7.849999999999877
0.8722230195999146,2.34683895111084,1.9500101804733276,7.859999999999877
0.8414864540100098,3.1249942779541016,1.8902745246887207,7.869999999999877
0.7905906438827515,3.780202865600586,2.0052943229675293,7.879999999999876
0.6959117650985718,3.9132814407348633,2.1923844814300537,7.889999999999876
0.8360196352005005,4.031619071960449,2.449413537979126,7.899999999999876
0.9167628288269043,3.6952333450317383,2.687967300415039,7.909999999999876
1.1583330631256104,2.9836130142211914,2.870178461074829,7.919999999999876
1.6568564176559448,2.71962833404541,2.8645434379577637,7.929999999999875
1.9710506200790405,3.452381134033203,2.6662473678588867,7.939999999999875
2.7445690631866455,3.533066749572754,2.3803439140319824,7.949999999999875
3.2686495780944824,3.6248884201049805,1.8583980798721313,7.959999999999875
3.451519012451172,3.7759056091308594,1.3662550449371338,7.9699999999998745
3.177159309387207,3.759202003479004,0.6002196073532104,7.979999999999874
3.636364459991455,3.830946922302246,0.29242318868637085,7.989999999999874
3.571290969848633,3.706724166870117,-0.3735858201980591,7.999999999999874
