AccX,AccY,AccZ,SampleRate
2.350832223892212,3.3730173110961914,0.36345911026000977,0
2.666121482849121,2.308574676513672,0.10701930522918701,0.01
2.9100613594055176,1.083573341369629,0.09618330001831055,0.02
3.2862863540649414,0.033043861389160156,0.4119577407836914,0.03
3.5394630432128906,-0.8050813674926758,0.5949454307556152,0.04
3.346747398376465,-1.4599814414978027,1.0614558458328247,0.05
3.2866978645324707,-2.0972518920898438,1.1199411153793335,0.060000000000000005
2.8248841762542725,-2.439887046813965,1.0723780393600464,0.07
2.391019344329834,-2.564958095550537,1.427044153213501,0.08
1.7634451389312744,-2.719041347503662,1.9575140476226807,0.09
1.206717848777771,-2.8233590126037598,1.9944102764129639,0.09999999999999999
0.7940137386322021,-2.7894372940063477,2.289715051651001,0.10999999999999999
0.8046501874923706,-3.5534863471984863,1.661927580833435,0.11999999999999998
-0.37982892990112305,-4.297396659851074,1.1906623840332031,0.12999999999999998
-1.062211036682129,-4.849104404449463,1.1450930833816528,0.13999999999999999
-1.2181122303009033,-4.952666282653809,1.2188787460327148,0.15
-1.1480748653411865,-4.670709133148193,1.4743820428848267,0.16
-0.6033859252929688,-4.968107223510742,0.9726190567016602,0.17
-1.0345256328582764,-5.306347370147705,0.5790402889251709,0.18000000000000002
-0.866018533706665,-5.154563903808594,0.4847257137298584,0.19000000000000003
-0.9231910705566406,-5.385690212249756,0.4763977527618408,0.20000000000000004
-0.2160792350769043,-5.7810211181640625,0.4158957004547119,0.21000000000000005
-0.013355493545532227,-5.223004341125488,1.1630713939666748,0.22000000000000006
0.7364809513092041,-5.2531280517578125,0.22896528244018555,0.23000000000000007
0.9473632574081421,-4.995018005371094,0.3236415386199951,0.24000000000000007
1.1392818689346313,-5.538322448730469,0.9234282970428467,0.25000000000000006
1.1344523429870605,-5.3388447761535645,2.407924175262451,0.26000000000000006
1.4032745361328125,-6.201035022735596,1.6014716625213623,0.2700000000000001
1.7441210746765137,-6.902609825134277,0.4885087013244629,0.2800000000000001
1.8898189067840576,-7.3914642333984375,-0.1402902603149414,0.2900000000000001
1.8410903215408325,-7.682063579559326,-0.21116089820861816,0.3000000000000001
1.7036473751068115,-6.997228622436523,0.03361916542053223,0.3100000000000001
1.9909238815307617,-5.919206142425537,0.0647282600402832,0.3200000000000001
2.112715721130371,-5.180253982543945,0.19806814193725586,0.3300000000000001
1.8560484647750854,-4.70353889465332,0.1820850372314453,0.34000000000000014
1.702132225036621,-4.1994171142578125,0.0570523738861084,0.35000000000000014
1.718737244606018,-4.131938934326172,-0.24390220642089844,0.36000000000000015
1.4602749347686768,-4.25445032119751,-0.8905377388000488,0.37000000000000016
1.4836466312408447,-4.105104446411133,-1.1130261421203613,0.38000000000000017
1.6704001426696777,-3.4401798248291016,-1.0552959442138672,0.3900000000000002
2.0567786693573,-3.905259609222412,-1.4333460330963135,0.4000000000000002
1.5450446605682373,-3.5978102684020996,-1.468733787536621,0.4100000000000002
1.826330304145813,-3.1594958305358887,-1.2448256015777588,0.4200000000000002
1.9591598510742188,-2.4024434089660645,-0.6624581813812256,0.4300000000000002
2.114931106567383,-1.750028133392334,-0.7532761096954346,0.4400000000000002
1.821104645729065,-1.0513410568237305,-0.7238247394561768,0.45000000000000023
1.8400808572769165,-0.32552242279052734,-0.4444248676300049,0.46000000000000024
2.1325440406799316,0.10686492919921875,0.011074304580688477,0.47000000000000025
1.914862871170044,0.6646833419799805,0.5447587966918945,0.48000000000000026
1.9048506021499634,1.2765188217163086,1.032992959022522,0.49000000000000027
1.8428871631622314,1.9374990463256836,1.1790298223495483,0.5000000000000002
1.6552518606185913,2.716963768005371,0.9661041498184204,0.5100000000000002
1.3382983207702637,3.6242799758911133,0.30988025665283203,0.5200000000000002
0.9820780158042908,4.697207450866699,-0.9755656719207764,0.5300000000000002
0.7704384922981262,5.635979652404785,-2.505014419555664,0.5400000000000003
0.5682358741760254,6.650425910949707,-4.025384902954102,0.5500000000000003
0.4795879125595093,7.311466217041016,-5.369509220123291,0.5600000000000003
0.2119758129119873,7.63316535949707,-6.120732307434082,0.5700000000000003
-0.12301528453826904,7.474271774291992,-6.493461608886719,0.5800000000000003
-0.48868072032928467,7.189032554626465,-6.492853164672852,0.5900000000000003
-1.0872091054916382,7.229601860046387,-6.36015510559082,0.6000000000000003
-1.433829665184021,6.412027359008789,-6.474127292633057,0.6100000000000003
-1.4931769371032715,4.782961845397949,-6.25856876373291,0.6200000000000003
-1.6342462301254272,2.9559030532836914,-6.152472496032715,0.6300000000000003
-0.9249083995819092,0.6059494018554688,-5.853245258331299,0.6400000000000003
-0.8123284578323364,-1.3504180908203125,-5.422720909118652,0.6500000000000004
-0.5626276731491089,-2.8728370666503906,-4.915858745574951,0.6600000000000004
-0.16352009773254395,-3.578848361968994,-4.636425018310547,0.6700000000000004
0.6139825582504272,-4.78187370300293,-4.4034342765808105,0.6800000000000004
0.19502520561218262,-5.421145439147949,-3.2273411750793457,0.6900000000000004
0.23926103115081787,-5.5470380783081055,-2.1923835277557373,0.7000000000000004
0.39728212356567383,-5.965394496917725,-0.8442144393920898,0.7100000000000004
0.9549211859703064,-6.328144550323486,1.2501407861709595,0.7200000000000004
1.3910585641860962,-6.295865535736084,2.386963367462158,0.7300000000000004
1.3480781316757202,-5.914020538330078,4.362055778503418,0.7400000000000004
1.58071768283844,-4.5796661376953125,6.264151573181152,0.7500000000000004
1.5832229852676392,-2.355802536010742,7.773124694824219,0.7600000000000005
1.3694493770599365,0.39461231231689453,9.014715194702148,0.7700000000000005
1.3148143291473389,4.246502876281738,10.397756576538086,0.7800000000000005
0.9562739133834839,9.709702491760254,11.192147254943848,0.7900000000000005
0.06793642044067383,17.431297302246094,11.37222671508789,0.8000000000000005
-1.4284625053405762,28.862302780151367,10.372587203979492,0.8100000000000005
-4.353727340698242,42.577293395996094,8.48936939239502,0.8200000000000005
-6.80810546875,49.36032485961914,6.1830854415893555,0.8300000000000005
-7.089319229125977,43.14302062988281,5.614666938781738,0.8400000000000005
-7.252494812011719,25.144084930419922,7.310733795166016,0.8500000000000005
-3.5944128036499023,9.30569839477539,6.0542073249816895,0.8600000000000005
0.38672107458114624,-1.8875398635864258,2.2677829265594482,0.8700000000000006
3.299959897994995,-9.281296730041504,0.12694454193115234,0.8800000000000006
4.8148417472839355,-12.733695983886719,-0.6975967884063721,0.8900000000000006
4.702781677246094,-13.785152435302734,0.10065913200378418,0.9000000000000006
4.730840682983398,-13.318319320678711,1.6619428396224976,0.9100000000000006
4.817051410675049,-12.669710159301758,3.134432077407837,0.9200000000000006
5.026888847351074,-12.630512237548828,3.7933359146118164,0.9300000000000006
5.468751907348633,-12.511428833007812,4.194458961486816,0.9400000000000006
5.527553558349609,-12.431073188781738,3.3720874786376953,0.9500000000000006
4.555160999298096,-12.32215690612793,3.235747814178467,0.9600000000000006
3.450253486633301,-11.577163696289062,3.5333774089813232,0.9700000000000006
2.1800687313079834,-10.173027038574219,3.5750606060028076,0.9800000000000006
0.8718534708023071,-8.006032943725586,4.501604080200195,0.9900000000000007
-0.15653538703918457,-6.868856430053711,4.831423282623291,1.0000000000000007
-1.5094027519226074,-5.403870582580566,4.556364059448242,1.0100000000000007
-3.322737693786621,-3.9387316703796387,5.153162002563477,1.0200000000000007
-4.579945087432861,-2.227963447570801,5.801327705383301,1.0300000000000007
-5.418754577636719,-0.06983470916748047,6.040765762329102,1.0400000000000007
-6.371004104614258,2.820366859436035,5.948992729187012,1.0500000000000007
-7.056150436401367,5.675166130065918,5.373563289642334,1.0600000000000007
-6.643535614013672,7.328993797302246,5.102027416229248,1.0700000000000007
-5.604106903076172,7.781954765319824,3.446686267852783,1.0800000000000007
-3.5028505325317383,8.456578254699707,2.1352005004882812,1.0900000000000007
-1.1339948177337646,7.9807233810424805,1.4718196392059326,1.1000000000000008
0.9057173728942871,6.270275115966797,0.48794496059417725,1.1100000000000008
2.526906728744507,4.0251312255859375,0.1195516586303711,1.1200000000000008
3.7195420265197754,2.2091379165649414,0.19868552684783936,1.1300000000000008
4.1003313064575195,0.6558361053466797,0.04980182647705078,1.1400000000000008
3.6647214889526367,-0.8725290298461914,-0.10249817371368408,1.1500000000000008
3.3750815391540527,-1.9818649291992188,-0.0029784440994262695,1.1600000000000008
3.4431819915771484,-2.723358631134033,-0.055184364318847656,1.1700000000000008
3.399233818054199,-3.3489322662353516,-0.002570033073425293,1.1800000000000008
3.37448787689209,-3.9116568565368652,0.3245019316673279,1.1900000000000008
3.2732529640197754,-4.438040256500244,0.933046281337738,1.2000000000000008
3.067495822906494,-4.7560553550720215,1.2498688697814941,1.2100000000000009
2.8173458576202393,-4.878100872039795,1.3149590492248535,1.2200000000000009
2.3718297481536865,-4.802353382110596,1.1607153415679932,1.2300000000000009
1.5964131355285645,-4.364273548126221,1.1089497804641724,1.2400000000000009
0.80899977684021,-4.001948833465576,1.3217432498931885,1.2500000000000009
0.09053874015808105,-3.607483386993408,1.5170507431030273,1.260000000000001
-0.5754241943359375,-3.1519675254821777,1.506913423538208,1.270000000000001
-1.1430869102478027,-2.434401035308838,1.3674769401550293,1.280000000000001
-1.7247607707977295,-1.6654086112976074,0.9313049912452698,1.290000000000001
-2.313361883163452,-0.7563591003417969,0.927689790725708,1.300000000000001
-2.401418924331665,-0.13026905059814453,-0.047175824642181396,1.310000000000001
-2.1792564392089844,-0.07583045959472656,-0.9789671301841736,1.320000000000001
-1.954397439956665,-0.3316841125488281,-1.284140706062317,1.330000000000001
-1.748204231262207,-0.7375431060791016,-1.4341940879821777,1.340000000000001
-1.6836743354797363,-1.6044707298278809,-1.7464430332183838,1.350000000000001
-1.7381010055541992,-2.3917431831359863,-1.767059564590454,1.360000000000001
-1.6635267734527588,-2.8966236114501953,-1.5980547666549683,1.370000000000001
-1.5668761730194092,-3.253598213195801,-1.5311763286590576,1.380000000000001
-1.3749032020568848,-3.494028091430664,-1.6196279525756836,1.390000000000001
-1.1383006572723389,-3.6825122833251953,-1.7011466026306152,1.400000000000001
-1.014646291732788,-3.735352039337158,-1.8194056749343872,1.410000000000001
-1.1304330825805664,-3.6525726318359375,-1.9726693630218506,1.420000000000001
-1.30336594581604,-3.482051372528076,-2.053527355194092,1.430000000000001
-1.5212841033935547,-3.324127674102783,-2.1820151805877686,1.440000000000001
-1.5613586902618408,-2.973031997680664,-2.0439743995666504,1.450000000000001
-1.6004688739776611,-2.517428398132324,-1.9665799140930176,1.460000000000001
-1.497490644454956,-2.1844286918640137,-1.849067211151123,1.470000000000001
-1.3118572235107422,-1.856410026550293,-1.8086020946502686,1.480000000000001
-0.9828031063079834,-1.633582592010498,-1.7805836200714111,1.490000000000001
-0.837378740310669,-1.7262182235717773,-1.7484960556030273,1.500000000000001
-0.9113974571228027,-1.3758087158203125,-1.51524019241333,1.5100000000000011
-1.0793640613555908,-1.0395240783691406,-1.537245750427246,1.5200000000000011
-1.2209703922271729,-0.5810918807983398,-1.684208869934082,1.5300000000000011
-1.5391470193862915,0.23838329315185547,-1.7344691753387451,1.5400000000000011
-1.6861717700958252,0.9209709167480469,-1.9218409061431885,1.5500000000000012
-1.8318978548049927,1.4189033508300781,-2.277195453643799,1.5600000000000012
-1.6990848779678345,2.3419179916381836,-2.1554996967315674,1.5700000000000012
-1.710936188697815,3.3593883514404297,-2.120986223220825,1.5800000000000012
-1.5345205068588257,4.153224945068359,-2.1477913856506348,1.5900000000000012
-1.0859344005584717,4.974702835083008,-1.871802568435669,1.6000000000000012
-0.6972713470458984,5.6706953048706055,-1.4380364418029785,1.6100000000000012
-0.3050568103790283,5.8804473876953125,-1.3348997831344604,1.6200000000000012
0.2927265167236328,5.367962837219238,-1.4676480293273926,1.6300000000000012
0.7850635647773743,4.724762916564941,-1.521149754524231,1.6400000000000012
0.6625653505325317,3.754863739013672,-1.7141666412353516,1.6500000000000012
-0.1661137342453003,2.5495214462280273,-2.077303886413574,1.6600000000000013
-1.3529162406921387,1.8621768951416016,-2.4918479919433594,1.6700000000000013
-2.7361111640930176,1.6013727188110352,-3.3167834281921387,1.6800000000000013
-3.7319908142089844,1.7234869003295898,-4.051191329956055,1.6900000000000013
-4.558296203613281,2.0342798233032227,-4.529253959655762,1.7000000000000013
-5.07616662979126,2.2991561889648438,-4.607091426849365,1.7100000000000013
-5.330928802490234,2.446523666381836,-4.435549736022949,1.7200000000000013
-5.166634559631348,2.493396759033203,-3.986196517944336,1.7300000000000013
-4.60443639755249,2.4234142303466797,-3.752725601196289,1.7400000000000013
-3.7729732990264893,2.1939172744750977,-3.422985076904297,1.7500000000000013
-2.887463331222534,2.0801639556884766,-2.7825725078582764,1.7600000000000013
-1.9672209024429321,1.962416648864746,-2.0090296268463135,1.7700000000000014
-1.259137511253357,1.7209692001342773,-1.192897081375122,1.7800000000000014
-0.7469571828842163,0.9037046432495117,-0.5371367931365967,1.7900000000000014
-0.9826135635375977,0.5177822113037109,0.47243595123291016,1.8000000000000014
-0.7286531925201416,0.15362930297851562,1.3492634296417236,1.8100000000000014
-0.9898941516876221,-0.07649421691894531,2.2263574600219727,1.8200000000000014
-1.227627158164978,-0.22298526763916016,2.7315492630004883,1.8300000000000014
-1.3940130472183228,-0.2526054382324219,2.764026165008545,1.8400000000000014
-1.4082351922988892,-0.13937854766845703,2.683454990386963,1.8500000000000014
-1.1224548816680908,0.15474319458007812,2.6428263187408447,1.8600000000000014
-0.6639983654022217,0.5222845077514648,2.670544385910034,1.8700000000000014
-0.39639711380004883,0.867924690246582,3.158864736557007,1.8800000000000014
-0.5495257377624512,0.9983100891113281,3.393232583999634,1.8900000000000015
-1.2104634046554565,1.2441129684448242,4.537320613861084,1.9000000000000015
-0.938965916633606,2.014500617980957,5.432918548583984,1.9100000000000015
-0.5358301401138306,3.1441965103149414,5.847703456878662,1.9200000000000015
0.10801315307617188,4.343653678894043,5.959765434265137,1.9300000000000015
0.7207497358322144,5.672941207885742,5.626698017120361,1.9400000000000015
1.3733837604522705,6.450430870056152,5.423556804656982,1.9500000000000015
1.6826205253601074,6.7079057693481445,4.746844291687012,1.9600000000000015
1.911248803138733,6.649257659912109,4.067313194274902,1.9700000000000015
2.116224765777588,6.475821495056152,3.436863899230957,1.9800000000000015
2.438746452331543,6.264281272888184,2.998685359954834,1.9900000000000015
2.524600028991699,6.0837812423706055,2.614335775375366,2.0000000000000013
2.272073984146118,6.139324188232422,2.37056827545166,2.010000000000001
1.912750244140625,6.430058479309082,2.5070481300354004,2.020000000000001
1.4821467399597168,6.77364444732666,2.5925910472869873,2.0300000000000007
1.3807470798492432,7.1291656494140625,2.4422478675842285,2.0400000000000005
1.3853609561920166,7.317323684692383,2.1528677940368652,2.0500000000000003
1.8221676349639893,6.917389869689941,0.9026894569396973,2.06
1.966990351676941,6.451362609863281,0.26961231231689453,2.07
2.581879138946533,6.113030433654785,0.2903057336807251,2.0799999999999996
2.990835428237915,5.344968795776367,0.06952047348022461,2.0899999999999994
3.0891852378845215,4.255586624145508,-0.4496842622756958,2.099999999999999
3.058289051055908,3.099172592163086,-0.7485067844390869,2.109999999999999
2.958292245864868,2.1103267669677734,-0.6556565761566162,2.1199999999999988
2.8818812370300293,0.7506752014160156,-0.4344048500061035,2.1299999999999986
2.594374895095825,-0.38432884216308594,-0.3634779453277588,2.1399999999999983
2.067607879638672,-1.1877031326293945,0.08547711372375488,2.149999999999998
1.662482500076294,-1.6577720642089844,1.089008092880249,2.159999999999998
1.1365764141082764,-2.2306790351867676,1.5979080200195312,2.1699999999999977
0.6878910064697266,-2.5835390090942383,2.3530702590942383,2.1799999999999975
0.6854133605957031,-3.384411334991455,2.7244222164154053,2.1899999999999973
0.5004732608795166,-4.660384654998779,2.0516040325164795,2.199999999999997
-0.647752046585083,-5.322792053222656,2.1253135204315186,2.209999999999997
-0.7952084541320801,-5.747515678405762,2.4519381523132324,2.2199999999999966
-1.173269510269165,-5.748578071594238,2.0946664810180664,2.2299999999999964
-1.5533900260925293,-6.345730781555176,1.2766069173812866,2.239999999999996
-1.9321784973144531,-6.469351768493652,1.3516762256622314,2.249999999999996
-2.18951416015625,-6.473459720611572,1.8122200965881348,2.259999999999996
-2.1709258556365967,-6.489696502685547,1.633527398109436,2.2699999999999956
-1.628934383392334,-6.66905403137207,0.8819053173065186,2.2799999999999954
-1.61533784866333,-6.663755416870117,1.098663091659546,2.289999999999995
-0.47427797317504883,-7.270362854003906,0.588841438293457,2.299999999999995
-0.101898193359375,-7.340638160705566,0.14257025718688965,2.3099999999999947
0.03513145446777344,-7.063756465911865,0.16485810279846191,2.3199999999999945
0.6764744520187378,-6.418067932128906,0.37874650955200195,2.3299999999999943
1.1938204765319824,-6.168939113616943,0.44539380073547363,2.339999999999994
1.3552064895629883,-6.193399429321289,0.7541248798370361,2.349999999999994
1.6962735652923584,-6.531260967254639,1.0075221061706543,2.3599999999999937
1.8383816480636597,-5.947412490844727,1.3975145816802979,2.3699999999999934
2.177942991256714,-5.019346237182617,2.302063465118408,2.3799999999999932
2.0011844635009766,-5.613490104675293,1.127920389175415,2.389999999999993
2.0652878284454346,-6.310476303100586,0.4735679626464844,2.399999999999993
1.941175103187561,-6.529353618621826,-0.049630165100097656,2.4099999999999926
2.1264920234680176,-5.837669372558594,0.08183169364929199,2.4199999999999924
2.323317289352417,-5.135461807250977,0.36310410499572754,2.429999999999992
2.122622489929199,-4.735918045043945,0.42610621452331543,2.439999999999992
1.9932091236114502,-4.44020414352417,0.29015541076660156,2.4499999999999917
2.035484790802002,-3.98048734664917,0.11045503616333008,2.4599999999999915
2.2614784240722656,-4.325557231903076,-0.6075153350830078,2.4699999999999913
1.73874831199646,-4.235477447509766,-0.6911296844482422,2.479999999999991
1.9782891273498535,-3.949662685394287,-0.7652261257171631,2.489999999999991
2.220093011856079,-3.6760315895080566,-0.7261929512023926,2.4999999999999907
2.2183380126953125,-3.1943187713623047,-0.6498703956604004,2.5099999999999905
2.229182243347168,-2.7890067100524902,-0.5613982677459717,2.5199999999999902
2.0154929161071777,-2.1916632652282715,-0.22719073295593262,2.52999999999999
1.9770714044570923,-1.4905929565429688,-0.0045931339263916016,2.53999999999999
1.9291858673095703,-0.7621479034423828,0.27063488960266113,2.5499999999999896
1.7395672798156738,-0.025236129760742188,0.5470046997070312,2.5599999999999894
1.76678466796875,0.6653308868408203,1.040933609008789,2.569999999999989
1.7587238550186157,1.4221410751342773,1.7916028499603271,2.579999999999989
1.759756088256836,2.2049121856689453,2.5203137397766113,2.5899999999999888
1.9233832359313965,3.079056739807129,2.6886675357818604,2.5999999999999885
1.8592987060546875,4.213984489440918,1.55697500705719,2.6099999999999883
1.870241403579712,5.403302192687988,-0.09359264373779297,2.619999999999988
1.8546394109725952,6.423429489135742,-2.3812615871429443,2.629999999999988
1.8102635145187378,7.376958847045898,-4.183990478515625,2.6399999999999877
1.8036212921142578,8.021262168884277,-6.070113182067871,2.6499999999999875
1.4771772623062134,8.84734058380127,-7.5468645095825195,2.6599999999999873
0.9908882975578308,8.93054485321045,-8.278377532958984,2.669999999999987
0.4597780108451843,8.433964729309082,-8.397943496704102,2.679999999999987
-0.15959537029266357,7.264883041381836,-8.17189884185791,2.6899999999999866
-0.6858682632446289,5.09190559387207,-7.493901252746582,2.6999999999999864
-1.3652743101119995,2.4428834915161133,-6.698448181152344,2.709999999999986
-1.8322950601577759,-0.2530994415283203,-6.039317607879639,2.719999999999986
-1.6414299011230469,-2.5510854721069336,-5.680171489715576,2.7299999999999858
-1.387795090675354,-3.8657617568969727,-5.445767879486084,2.7399999999999856
-1.1008989810943604,-4.908510684967041,-5.103949546813965,2.7499999999999853
-1.2426384687423706,-5.5814208984375,-4.841538429260254,2.759999999999985
-1.0270127058029175,-6.015803813934326,-4.370295524597168,2.769999999999985
-0.7306959629058838,-6.285141468048096,-3.28356671333313,2.7799999999999847
-0.6122252941131592,-6.156912803649902,-2.338129997253418,2.7899999999999845
-0.2834233045578003,-5.860352516174316,-1.1715238094329834,2.7999999999999843
0.09047341346740723,-5.516536712646484,0.23914647102355957,2.809999999999984
0.520418107509613,-5.051067352294922,1.3414031267166138,2.819999999999984
1.154452919960022,-4.293620586395264,3.0077507495880127,2.8299999999999836
1.623460054397583,-2.533487319946289,4.762451648712158,2.8399999999999834
2.0425703525543213,0.20702362060546875,6.1939005851745605,2.849999999999983
2.5323386192321777,3.744675636291504,7.383075714111328,2.859999999999983
2.708934783935547,8.003303527832031,8.704143524169922,2.869999999999983
2.3007450103759766,13.248758316040039,9.895824432373047,2.8799999999999826
0.9522500038146973,21.244932174682617,10.347209930419922,2.8899999999999824
-1.6425056457519531,31.693696975708008,6.344880104064941,2.899999999999982
-2.914215564727783,40.22356033325195,5.459006309509277,2.909999999999982
-2.585867404937744,44.829063415527344,5.706347465515137,2.9199999999999817
-1.579986810684204,38.603553771972656,5.215215682983398,2.9299999999999815
-2.98476505279541,22.642513275146484,4.564370632171631,2.9399999999999813
-3.2102885246276855,7.683957099914551,3.6928892135620117,2.949999999999981
-2.162842035293579,-3.5250144004821777,2.784635066986084,2.959999999999981
-1.553976058959961,-10.54515552520752,1.9101632833480835,2.9699999999999807
-0.9211210012435913,-14.514917373657227,1.5821622610092163,2.9799999999999804
0.20639485120773315,-15.93404769897461,2.6803579330444336,2.9899999999999802
0.9551036953926086,-15.767837524414062,3.9445013999938965,2.99999999999998
2.104372978210449,-14.495136260986328,4.830608367919922,3.00999999999998
2.775423288345337,-13.228291511535645,5.0690765380859375,3.0199999999999796
3.1493053436279297,-12.488245964050293,4.970073699951172,3.0299999999999794
3.2209548950195312,-12.174068450927734,4.779726028442383,3.039999999999979
3.2878777980804443,-11.8770112991333,4.476594924926758,3.049999999999979
3.2424893379211426,-11.074644088745117,4.113806247711182,3.0599999999999787
2.5844061374664307,-9.993987083435059,3.926896572113037,3.0699999999999785
1.5415947437286377,-8.4072847366333,4.015758037567139,3.0799999999999783
0.13965654373168945,-5.911100387573242,4.82757568359375,3.089999999999978
-1.425094723701477,-4.81222677230835,4.836540222167969,3.099999999999978
-2.579303741455078,-3.351090431213379,4.14788293838501,3.1099999999999777
-4.0228190422058105,-1.3583259582519531,4.296926975250244,3.1199999999999775
-4.961516857147217,1.3701400756835938,4.844912528991699,3.1299999999999772
-5.570460319519043,4.265829086303711,5.649410724639893,3.139999999999977
-6.401740550994873,7.207719802856445,5.850010871887207,3.149999999999977
-6.179018020629883,9.761683464050293,5.112534523010254,3.1599999999999766
-4.64962911605835,10.06181812286377,3.4225950241088867,3.1699999999999764
-2.3547332286834717,10.046163558959961,2.6327948570251465,3.179999999999976
-0.19380474090576172,8.862297058105469,2.37397837638855,3.189999999999976
2.0907340049743652,6.382567405700684,1.304640531539917,3.1999999999999758
3.241868257522583,3.3224449157714844,-0.0011817216873168945,3.2099999999999755
1.9601472616195679,0.4612903594970703,-1.089154601097107,3.2199999999999753
0.6262876391410828,-1.5484085083007812,-0.49610185623168945,3.229999999999975
1.288118839263916,-2.5234270095825195,0.42084288597106934,3.239999999999975
1.9432153701782227,-2.9436826705932617,0.5500442385673523,3.2499999999999747
2.120424270629883,-3.467813014984131,0.38477158546447754,3.2599999999999745
2.55483341217041,-3.7561964988708496,1.0276857614517212,3.2699999999999743
3.580289363861084,-4.096552848815918,1.0493967533111572,3.279999999999974
3.8352041244506836,-4.530109405517578,0.616134524345398,3.289999999999974
3.3542394638061523,-4.925761699676514,0.4769344925880432,3.2999999999999736
2.539641857147217,-5.374550819396973,0.9295644164085388,3.3099999999999734
1.906738042831421,-5.471986293792725,2.0717613697052,3.319999999999973
1.8489874601364136,-5.220873832702637,2.481771469116211,3.329999999999973
1.7577272653579712,-4.770272731781006,2.02113938331604,3.3399999999999728
1.3228790760040283,-4.101617813110352,1.1130017042160034,3.3499999999999726
0.13432824611663818,-3.1886401176452637,1.134498953819275,3.3599999999999723
-0.9954674243927002,-2.105410575866699,1.7213470935821533,3.369999999999972
-1.852198839187622,-1.186509132385254,1.9099969863891602,3.379999999999972
-2.504899740219116,-0.10588264465332031,1.8168981075286865,3.3899999999999717
-2.3578908443450928,0.7708549499511719,0.9396263360977173,3.3999999999999715
-2.349374294281006,1.3151473999023438,0.16793018579483032,3.4099999999999713
-2.3601651191711426,1.4008474349975586,-0.5924423933029175,3.419999999999971
-2.193047523498535,1.081106185913086,-1.0787293910980225,3.429999999999971
-2.118462562561035,0.33452510833740234,-1.3292338848114014,3.4399999999999706
-2.078313112258911,-0.547175407409668,-1.4227263927459717,3.4499999999999704
-2.0247232913970947,-1.4495306015014648,-1.4902890920639038,3.45999999999997
-1.7756831645965576,-2.109851837158203,-1.5120527744293213,3.46999999999997
-1.4285213947296143,-2.8252906799316406,-1.7138264179229736,3.47999999999997
-1.1089966297149658,-3.959193706512451,-1.9017503261566162,3.4899999999999696
-0.7808544635772705,-4.2339558601379395,-1.6356509923934937,3.4999999999999694
-0.6655302047729492,-4.1742844581604,-1.5877118110656738,3.509999999999969
-0.6479949951171875,-4.079498767852783,-1.8640050888061523,3.519999999999969
-0.8502991199493408,-3.8442749977111816,-2.146904706954956,3.5299999999999687
-1.123483657836914,-3.5379281044006348,-2.2639448642730713,3.5399999999999685
-1.4428632259368896,-3.134099006652832,-2.3271801471710205,3.5499999999999683
-1.7553000450134277,-2.7045512199401855,-2.4127328395843506,3.559999999999968
-2.1131370067596436,-2.3473310470581055,-2.321735143661499,3.569999999999968
-2.5163283348083496,-2.040741443634033,-2.1808454990386963,3.5799999999999677
-2.636929512023926,-1.7822160720825195,-2.045280933380127,3.5899999999999674
-2.709256172180176,-1.6313834190368652,-2.042224407196045,3.5999999999999672
-2.59932804107666,-1.3703603744506836,-1.8845107555389404,3.609999999999967
-2.414318561553955,-1.5179920196533203,-1.9195220470428467,3.619999999999967
-2.0486226081848145,-1.385066032409668,-1.718231439590454,3.6299999999999666
-1.8486753702163696,-1.0054197311401367,-1.5737287998199463,3.6399999999999664
-1.641609787940979,-0.692601203918457,-1.7463817596435547,3.649999999999966
-1.4009475708007812,-0.5494556427001953,-1.9438871145248413,3.659999999999966
-1.3781956434249878,0.10311412811279297,-1.6598663330078125,3.6699999999999657
-1.4198591709136963,0.824366569519043,-1.4626816511154175,3.6799999999999655
-1.3341519832611084,1.4012956619262695,-1.4572086334228516,3.6899999999999653
-1.267125129699707,1.7646455764770508,-1.5977246761322021,3.699999999999965
-1.1255384683609009,2.5744924545288086,-1.378403663635254,3.709999999999965
-0.9591761827468872,3.4308738708496094,-1.4111411571502686,3.7199999999999647
-0.8081362247467041,4.128144264221191,-1.6533361673355103,3.7299999999999645
-0.6697618961334229,4.398710250854492,-1.7917543649673462,3.7399999999999642
-0.6010843515396118,4.556246757507324,-1.5268523693084717,3.749999999999964
-0.6707994937896729,4.555564880371094,-1.4265074729919434,3.759999999999964
-0.8925504684448242,4.107891082763672,-1.9665322303771973,3.7699999999999636
-0.8856105804443359,3.7113122940063477,-2.2151148319244385,3.7799999999999634
-1.3484470844268799,3.1147947311401367,-2.6880621910095215,3.789999999999963
-2.034712076187134,2.6580371856689453,-3.0028066635131836,3.799999999999963
-3.0932703018188477,2.300081253051758,-3.4678778648376465,3.8099999999999627
-3.9506921768188477,2.131559371948242,-3.8794772624969482,3.8199999999999625
-4.674596786499023,2.085209846496582,-4.009928226470947,3.8299999999999623
-5.035455703735352,2.1513614654541016,-4.014711856842041,3.839999999999962
-4.808211326599121,2.2367019653320312,-3.987409830093384,3.849999999999962
-4.346922874450684,2.1953277587890625,-3.731811761856079,3.8599999999999617
-3.6972789764404297,2.0799264907836914,-3.3818678855895996,3.8699999999999615
-3.0869998931884766,1.8808813095092773,-3.109426498413086,3.8799999999999613
-2.595703125,1.4977827072143555,-2.8259220123291016,3.889999999999961
-2.259871006011963,1.05523681640625,-2.3715553283691406,3.899999999999961
-1.835587739944458,0.9526157379150391,-1.4255305528640747,3.9099999999999606
-1.367833137512207,0.7470588684082031,-0.5117637515068054,3.9199999999999604
-1.3519654273986816,0.44565296173095703,0.4588693380355835,3.92999999999996
-1.5972940921783447,0.5100669860839844,1.0088398456573486,3.93999999999996
-1.3489937782287598,0.5381917953491211,1.4423590898513794,3.9499999999999598
-1.5517946481704712,0.7284488677978516,1.9785021543502808,3.9599999999999596
-1.4490039348602295,1.0160188674926758,2.6208229064941406,3.9699999999999593
-1.3847604990005493,1.1424999237060547,3.0639350414276123,3.979999999999959
-1.3183729648590088,1.1798152923583984,3.0818960666656494,3.989999999999959
-0.9221123456954956,1.2164220809936523,2.784595012664795,3.9999999999999587
-0.3832688331604004,1.405217170715332,2.643509864807129,4.009999999999959
0.2568541169166565,1.6338024139404297,2.6234302520751953,4.019999999999959
0.6107620596885681,1.687408447265625,2.8846826553344727,4.0299999999999585
0.30788540840148926,1.33734130859375,2.9868927001953125,4.039999999999958
-0.2568356990814209,1.0891971588134766,4.155365943908691,4.049999999999958
0.15642619132995605,1.160792350769043,5.131150245666504,4.059999999999958
0.29472482204437256,1.5566825866699219,5.722180366516113,4.069999999999958
0.2979910373687744,2.0756092071533203,6.265069961547852,4.079999999999957
0.08310770988464355,2.7604637145996094,6.400979042053223,4.089999999999957
-0.09598088264465332,3.5825424194335938,6.134118556976318,4.099999999999957
0.21564066410064697,4.23586368560791,5.702523708343506,4.109999999999957
0.8002749085426331,4.936065673828125,5.034228324890137,4.119999999999957
1.3753845691680908,5.566034317016602,4.254773139953613,4.129999999999956
1.8111867904663086,6.142515182495117,3.408461093902588,4.139999999999956
1.998818278312683,6.739309310913086,2.621177911758423,4.149999999999956
1.8520723581314087,7.20030403137207,2.0403037071228027,4.159999999999956
1.6090391874313354,7.508394241333008,1.7830055952072144,4.1699999999999555
1.4344542026519775,7.727945327758789,1.4685492515563965,4.179999999999955
1.4892184734344482,7.559883117675781,0.6613637804985046,4.189999999999955
1.250945806503296,7.499778747558594,0.8510253429412842,4.199999999999955
2.0294461250305176,6.947505950927734,0.8036407828330994,4.209999999999955
2.6994266510009766,6.099764823913574,0.44886159896850586,4.2199999999999545
3.0448954105377197,5.059574127197266,-0.4271833896636963,4.229999999999954
3.1508216857910156,3.832052230834961,-1.1447985172271729,4.239999999999954
3.1264655590057373,2.47257137298584,-1.3856098651885986,4.249999999999954
2.7291626930236816,1.235006332397461,-1.132903814315796,4.259999999999954
2.4175379276275635,0.14110851287841797,-0.9515261650085449,4.269999999999953
2.3779592514038086,-0.6154689788818359,-0.42929232120513916,4.279999999999953
2.1753087043762207,-1.2243032455444336,-0.23016154766082764,4.289999999999953
1.6833730936050415,-1.994636058807373,-0.06129145622253418,4.299999999999953
1.147786021232605,-2.522688388824463,0.4540358781814575,4.3099999999999525
0.3929612636566162,-2.6701745986938477,1.3508131504058838,4.319999999999952
-0.03314542770385742,-2.9302730560302734,2.3930084705352783,4.329999999999952
-0.5297627449035645,-3.1258044242858887,3.080930709838867,4.339999999999952
-0.6162450313568115,-3.1563477516174316,3.5653562545776367,4.349999999999952
-0.5701985359191895,-3.93406343460083,3.037824869155884,4.3599999999999515
-1.2324013710021973,-4.775028228759766,2.272740602493286,4.369999999999951
-2.0824074745178223,-5.396990776062012,1.7627830505371094,4.379999999999951
-1.8824912309646606,-5.981977462768555,1.4063894748687744,4.389999999999951
-2.3061962127685547,-5.694997787475586,1.85216224193573,4.399999999999951
-1.9996305704116821,-5.2855939865112305,1.8577196598052979,4.40999999999995
-1.4241220951080322,-5.721078872680664,1.1926677227020264,4.41999999999995
-2.4982919692993164,-5.737567901611328,1.1611595153808594,4.42999999999995
-1.9471030235290527,-5.598092079162598,1.2651735544204712,4.43999999999995
-1.0104877948760986,-5.730688095092773,1.4409189224243164,4.4499999999999496
-0.781806468963623,-5.7163543701171875,1.4209033250808716,4.459999999999949
-0.38641297817230225,-5.605510234832764,1.0283803939819336,4.469999999999949
0.29546570777893066,-5.718793869018555,0.6297833919525146,4.479999999999949
0.8780003786087036,-5.873895645141602,0.7881100177764893,4.489999999999949
1.1580300331115723,-5.898138046264648,1.0856379270553589,4.4999999999999485
1.4565306901931763,-5.882194519042969,1.351241111755371,4.509999999999948
1.5820536613464355,-6.098564624786377,1.4565982818603516,4.519999999999948
1.5365701913833618,-6.728894233703613,1.064801812171936,4.529999999999948
1.1562548875808716,-6.703688621520996,0.9824211597442627,4.539999999999948
1.4608416557312012,-6.341687202453613,0.9434671401977539,4.549999999999947
1.81221342086792,-6.001935958862305,0.9909887313842773,4.559999999999947
1.799262523651123,-5.679498672485352,1.113297939300537,4.569999999999947
1.7047125101089478,-5.091980934143066,1.413178563117981,4.579999999999947
1.9559390544891357,-4.875872611999512,1.2876898050308228,4.589999999999947
1.6865196228027344,-4.8397603034973145,0.8014535903930664,4.599999999999946
1.5939056873321533,-4.7923455238342285,0.32986950874328613,4.609999999999946
1.397549033164978,-4.556582927703857,0.17653942108154297,4.619999999999946
1.569638729095459,-4.292751789093018,0.14258837699890137,4.629999999999946
1.7141077518463135,-4.043929576873779,-0.09282970428466797,4.6399999999999455
1.9464119672775269,-3.7310051918029785,-0.22524094581604004,4.649999999999945
1.9651700258255005,-3.222334861755371,-0.23984074592590332,4.659999999999945
2.088787317276001,-2.993896484375,-0.7237992286682129,4.669999999999945
1.5472460985183716,-2.418539047241211,-0.7284870147705078,4.679999999999945
1.7041411399841309,-1.7618408203125,-0.724726676940918,4.689999999999944
1.769826889038086,-1.078770637512207,-0.7453474998474121,4.699999999999944
1.8037649393081665,-0.5892210006713867,-0.6913142204284668,4.709999999999944
1.694887638092041,-0.0440826416015625,-0.5353949069976807,4.719999999999944
1.813401222229004,0.559168815612793,-0.24320173263549805,4.729999999999944
1.9409701824188232,1.239394187927246,-0.01329183578491211,4.739999999999943
2.104802370071411,1.9587326049804688,0.6033949851989746,4.749999999999943
2.1256003379821777,2.9859743118286133,0.7604775428771973,4.759999999999943
1.9433882236480713,4.150940895080566,0.32451748847961426,4.769999999999943
1.721022129058838,5.322059631347656,-0.45760583877563477,4.7799999999999425
1.3398866653442383,6.374493598937988,-1.8337774276733398,4.789999999999942
0.8696091175079346,7.6738128662109375,-3.2314441204071045,4.799999999999942
0.40182065963745117,8.479813575744629,-5.044242858886719,4.809999999999942
-0.13745951652526855,8.820180892944336,-6.806650638580322,4.819999999999942
-0.187735915184021,8.548364639282227,-7.762657165527344,4.8299999999999415
-0.7033562660217285,7.853211402893066,-8.202341079711914,4.839999999999941
-1.2852648496627808,6.577070236206055,-8.358807563781738,4.849999999999941
-1.5520092248916626,4.768583297729492,-8.078264236450195,4.859999999999941
-1.8380022048950195,2.9452695846557617,-8.196558952331543,4.869999999999941
-1.3693023920059204,1.021592140197754,-7.595550537109375,4.87999999999994
-1.7213637828826904,-0.9995946884155273,-6.9190521240234375,4.88999999999994
-2.0475473403930664,-2.88375186920166,-6.629561424255371,4.89999999999994
-2.479346752166748,-4.3248724937438965,-6.211539268493652,4.90999999999994
-2.692667007446289,-5.41420841217041,-5.703028678894043,4.9199999999999395
-2.8144431114196777,-5.97001838684082,-5.386075496673584,4.929999999999939
-2.304548978805542,-5.9872846603393555,-4.507563591003418,4.939999999999939
-1.9727214574813843,-5.953462600708008,-2.9097342491149902,4.949999999999939
-1.9856880903244019,-5.853548049926758,-1.63966703414917,4.959999999999939
-1.7378395795822144,-5.598649501800537,-0.1781001091003418,4.9699999999999385
-1.3427834510803223,-5.341818809509277,1.2207914590835571,4.979999999999938
-0.9175258874893188,-4.7408270835876465,2.619386911392212,4.989999999999938
-0.21064239740371704,-3.4199681282043457,4.31201696395874,4.999999999999938
0.4576055109500885,-1.3436250686645508,6.832774639129639,5.009999999999938
0.11044788360595703,1.3905220031738281,6.35024356842041,5.019999999999937
1.4362845420837402,4.916498184204102,6.245690822601318,5.029999999999937
2.5825588703155518,9.2683744430542,7.16133451461792,5.039999999999937
2.5822057723999023,14.932339668273926,7.881494522094727,5.049999999999937
1.7706990242004395,23.27313995361328,8.343174934387207,5.0599999999999365
0.5053656101226807,34.00694274902344,7.672467231750488,5.069999999999936
-0.9724106788635254,41.36845016479492,6.877355098724365,5.079999999999936
-1.9327764511108398,42.18504333496094,5.94704532623291,5.089999999999936
-2.9484078884124756,31.14246940612793,6.040315628051758,5.099999999999936
-2.3874428272247314,16.18638038635254,6.116292953491211,5.1099999999999355
-0.26051509380340576,3.9427175521850586,3.8624191284179688,5.119999999999935
1.4329026937484741,-5.118542671203613,2.71138072013855,5.129999999999935
2.105088710784912,-11.19737720489502,1.383978009223938,5.139999999999935
2.046525478363037,-14.024120330810547,0.5122133493423462,5.149999999999935
2.5420889854431152,-14.38791561126709,1.4066438674926758,5.159999999999934
3.0413575172424316,-13.67958927154541,2.190730571746826,5.169999999999934
3.4988415241241455,-13.097024917602539,3.761279821395874,5.179999999999934
4.09341287612915,-12.508331298828125,4.196094512939453,5.189999999999934
3.7701175212860107,-12.205801010131836,4.025528907775879,5.199999999999934
3.6251220703125,-12.096763610839844,3.647754669189453,5.209999999999933
3.8821682929992676,-11.629426002502441,3.9579503536224365,5.219999999999933
3.4601292610168457,-10.59283447265625,3.758455991744995,5.229999999999933
2.3209128379821777,-9.15668773651123,3.8297550678253174,5.239999999999933
0.9977505803108215,-7.009189128875732,4.353745460510254,5.2499999999999325
-0.38019973039627075,-5.598679542541504,4.616252899169922,5.259999999999932
-2.2168679237365723,-4.408902645111084,4.423103332519531,5.269999999999932
-3.374346971511841,-3.095695972442627,4.522458076477051,5.279999999999932
-4.201305389404297,-1.674941062927246,5.034090042114258,5.289999999999932
-4.889545917510986,0.3900413513183594,5.444004535675049,5.299999999999931
-5.860489845275879,3.1446914672851562,5.518381118774414,5.309999999999931
-6.799071311950684,6.215845108032227,5.1423726081848145,5.319999999999931
-6.538373947143555,8.482566833496094,4.323215484619141,5.329999999999931
-5.468519687652588,9.461585998535156,3.336125373840332,5.339999999999931
-3.3880982398986816,8.921134948730469,2.074146032333374,5.34999999999993
-0.8428430557250977,6.983149528503418,0.3069261312484741,5.35999999999993
1.3192909955978394,5.172740936279297,0.16964232921600342,5.36999999999993
2.9639086723327637,2.900999069213867,-0.19892430305480957,5.37999999999993
2.61765718460083,0.695948600769043,-0.7096002101898193,5.3899999999999295
1.5687575340270996,-1.0747785568237305,-0.936415433883667,5.399999999999929
1.5880826711654663,-2.2421560287475586,-0.5530977249145508,5.409999999999929
2.039105176925659,-3.077320098876953,-0.25355780124664307,5.419999999999929
2.5231773853302,-3.6501970291137695,0.1872004270553589,5.429999999999929
2.742316722869873,-4.0976786613464355,0.333997905254364,5.4399999999999284
2.486447334289551,-4.664135932922363,0.44948384165763855,5.449999999999928
2.2392220497131348,-4.8907647132873535,0.39987993240356445,5.459999999999928
1.7985783815383911,-4.694455146789551,1.5933837890625,5.469999999999928
1.6638681888580322,-4.590007305145264,1.9355018138885498,5.479999999999928
1.2243313789367676,-4.350341796875,1.8303937911987305,5.489999999999927
0.6279809474945068,-3.8657164573669434,1.887664556503296,5.499999999999927
0.1497114896774292,-3.315664768218994,1.9660608768463135,5.509999999999927
-0.32748448848724365,-2.707217216491699,2.0951125621795654,5.519999999999927
-0.8054407835006714,-1.8535947799682617,2.0483670234680176,5.5299999999999265
-0.8812421560287476,-0.9413661956787109,1.656774878501892,5.539999999999926
-1.0088846683502197,-0.38643836975097656,1.206709861755371,5.549999999999926
-1.2762354612350464,-0.04475116729736328,0.5323964953422546,5.559999999999926
-1.4006160497665405,0.12482643127441406,0.22591353952884674,5.569999999999926
-1.142185091972351,0.09870719909667969,-0.18114764988422394,5.5799999999999255
-0.9168933629989624,-0.07276058197021484,-0.7197392582893372,5.589999999999925
-0.8517848253250122,-0.5066604614257812,-1.062199354171753,5.599999999999925
-0.6337251663208008,-1.037841796875,-1.1897923946380615,5.609999999999925
-0.44045543670654297,-1.666511058807373,-1.4834107160568237,5.619999999999925
-0.5244336128234863,-2.2946691513061523,-1.1009215116500854,5.629999999999924
-0.25705838203430176,-2.872110366821289,-0.9418071508407593,5.639999999999924
-0.08580899238586426,-3.403902053833008,-1.2888885736465454,5.649999999999924
-0.1382758617401123,-3.706233501434326,-1.5395543575286865,5.659999999999924
-0.377077579498291,-3.987546443939209,-1.6351561546325684,5.6699999999999235
-0.6138479709625244,-4.2882609367370605,-1.7065746784210205,5.679999999999923
-0.8381843566894531,-4.101201057434082,-1.593213677406311,5.689999999999923
-1.07784903049469,-3.6780662536621094,-1.6491148471832275,5.699999999999923
-1.3690470457077026,-3.2749876976013184,-1.7142367362976074,5.709999999999923
-1.6713939905166626,-2.9157919883728027,-1.7554469108581543,5.7199999999999225
-1.8965773582458496,-2.4830832481384277,-1.8158743381500244,5.729999999999922
-1.9510090351104736,-2.170393943786621,-1.7546379566192627,5.739999999999922
-1.9083423614501953,-1.9056854248046875,-1.657567024230957,5.749999999999922
-1.8925684690475464,-1.6719975471496582,-1.4573456048965454,5.759999999999922
-1.8408939838409424,-1.6268730163574219,-1.4239697456359863,5.769999999999921
-1.7331959009170532,-1.2749710083007812,-1.2383971214294434,5.779999999999921
-1.7215715646743774,-1.0111637115478516,-1.3260554075241089,5.789999999999921
-1.6931664943695068,-0.4718923568725586,-1.197503685951233,5.799999999999921
-1.6591006517410278,5.054473876953125E-4,-1.2826513051986694,5.809999999999921
-1.6429203748703003,0.2600584030151367,-1.446351408958435,5.81999999999992
-1.5897493362426758,0.887782096862793,-1.4620305299758911,5.82999999999992
-1.571306586265564,1.443007469177246,-1.6518858671188354,5.83999999999992
-1.468210220336914,1.985367774963379,-1.9509356021881104,5.84999999999992
-1.300438404083252,2.3879852294921875,-2.2396187782287598,5.8599999999999195
-1.1118124723434448,3.009556770324707,-2.2111332416534424,5.869999999999919
-1.0335551500320435,3.4432735443115234,-2.226788282394409,5.879999999999919
-0.9025511741638184,3.5412473678588867,-2.3902852535247803,5.889999999999919
-0.6085296869277954,3.5167465209960938,-2.4505414962768555,5.899999999999919
-0.3376798629760742,3.5205001831054688,-2.041245222091675,5.909999999999918
-0.48616623878479004,3.141341209411621,-2.026930332183838,5.919999999999918
-0.5483152866363525,2.7481374740600586,-1.98251211643219,5.929999999999918
-0.8825643062591553,2.3889713287353516,-2.2037439346313477,5.939999999999918
-1.4788379669189453,2.0472774505615234,-2.6080758571624756,5.949999999999918
-2.2386984825134277,1.8092632293701172,-3.0814967155456543,5.959999999999917
-3.073306083679199,1.6796340942382812,-3.540729522705078,5.969999999999917
-4.042381763458252,1.7275104522705078,-3.930494785308838,5.979999999999917
-4.91400671005249,1.8640871047973633,-4.24331521987915,5.989999999999917
-5.492555141448975,2.072321891784668,-4.325347900390625,5.9999999999999165
-5.692619800567627,2.280242919921875,-4.231095314025879,6.009999999999916
-5.459824562072754,2.3921279907226562,-3.9770987033843994,6.019999999999916
-4.935807704925537,2.41046142578125,-3.4797284603118896,6.029999999999916
-4.211788654327393,2.3688268661499023,-2.7990150451660156,6.039999999999916
-3.5271143913269043,2.4202919006347656,-2.143040180206299,6.0499999999999154
-2.936859607696533,2.366302490234375,-1.6457830667495728,6.059999999999915
-2.488693952560425,2.2499589920043945,-1.024366855621338,6.069999999999915
-2.0914807319641113,2.2386722564697266,-0.0869588851928711,6.079999999999915
-1.6106098890304565,1.8252925872802734,0.8743578195571899,6.089999999999915
-1.721718192100525,1.4982023239135742,1.660765528678894,6.099999999999914
-1.534301996231079,1.3867664337158203,1.9440404176712036,6.109999999999914
-1.1328198909759521,1.0412988662719727,2.324406147003174,6.119999999999914
-1.801619291305542,1.1005210876464844,2.9462714195251465,6.129999999999914
-1.6849381923675537,1.052072525024414,3.397458553314209,6.1399999999999135
-1.9070528745651245,1.1230640411376953,3.8093113899230957,6.149999999999913
-1.9460203647613525,1.1101570129394531,3.6828644275665283,6.159999999999913
-1.7802717685699463,0.860438346862793,3.467329502105713,6.169999999999913
-1.6608620882034302,0.7423553466796875,3.2415335178375244,6.179999999999913
-1.4778693914413452,1.2074995040893555,3.248992919921875,6.1899999999999125
-1.1685371398925781,1.9227628707885742,3.28121280670166,6.199999999999912
-0.47545433044433594,2.3716506958007812,3.316185235977173,6.209999999999912
0.3352919816970825,2.554983139038086,3.4980061054229736,6.219999999999912
1.3029968738555908,2.6456403732299805,4.3522233963012695,6.229999999999912
2.100037097930908,2.8328628540039062,4.867433071136475,6.239999999999911
2.294254779815674,3.2912988662719727,5.268632411956787,6.249999999999911
2.3920719623565674,3.906015396118164,5.261995315551758,6.259999999999911
2.4184727668762207,4.564571380615234,4.895810604095459,6.269999999999911
2.4385392665863037,5.178586006164551,4.440778732299805,6.2799999999999105
2.6081347465515137,5.733771324157715,4.078683376312256,6.28999999999991
2.8118844032287598,6.175274848937988,3.6320271492004395,6.29999999999991
3.1286020278930664,6.397856712341309,3.160064935684204,6.30999999999991
3.0213847160339355,6.738624572753906,2.7316038608551025,6.31999999999991
2.8597471714019775,7.132640838623047,2.4681684970855713,6.3299999999999095
3.0445175170898438,7.3285980224609375,2.3559436798095703,6.339999999999909
3.2230358123779297,7.364920616149902,2.3283069133758545,6.349999999999909
3.4906411170959473,7.258495330810547,2.0933244228363037,6.359999999999909
3.7729744911193848,6.485780715942383,1.169728398323059,6.369999999999909
3.723395347595215,5.673906326293945,0.7711964845657349,6.379999999999908
3.8230438232421875,4.707828521728516,0.16549479961395264,6.389999999999908
3.636604070663452,3.5349531173706055,-0.368297815322876,6.399999999999908
3.0405147075653076,2.1533050537109375,-0.7895554304122925,6.409999999999908
2.3930435180664062,1.465165138244629,-0.46611690521240234,6.419999999999908
1.981413722038269,1.0371856689453125,-0.021789073944091797,6.429999999999907
1.244537115097046,0.40537071228027344,1.0472042560577393,6.439999999999907
0.7949424982070923,-0.47036075592041016,2.187157154083252,6.449999999999907
0.21162128448486328,-1.5632519721984863,3.505460739135742,6.459999999999907
-0.11734867095947266,-3.10128116607666,2.410822868347168,6.4699999999999065
-0.8873982429504395,-4.181253910064697,0.9049015045166016,6.479999999999906
-1.4476492404937744,-4.730725288391113,-0.5962005853652954,6.489999999999906
-1.7251911163330078,-4.205989360809326,-1.2022041082382202,6.499999999999906
-0.5991106033325195,-3.036600112915039,0.23595893383026123,6.509999999999906
-0.4279754161834717,-2.623849868774414,2.157167434692383,6.519999999999905
-0.21569347381591797,-2.652474880218506,3.4031777381896973,6.529999999999905
0.2920501232147217,-2.7461438179016113,3.8072562217712402,6.539999999999905
0.5474090576171875,-3.1326632499694824,2.7597410678863525,6.549999999999905
0.11761641502380371,-3.5540871620178223,2.130481719970703,6.559999999999905
-0.4376809597015381,-4.644582271575928,1.3946336507797241,6.569999999999904
-1.1981117725372314,-5.293569087982178,1.2742350101470947,6.579999999999904
-1.3267886638641357,-5.917387008666992,0.8668994903564453,6.589999999999904
-1.1522462368011475,-6.439040660858154,0.6516945362091064,6.599999999999904
-0.641165018081665,-6.111996650695801,1.0911716222763062,6.6099999999999035
0.4975064992904663,-5.93480110168457,0.6686155796051025,6.619999999999903
0.8224296569824219,-5.7878828048706055,0.5666241645812988,6.629999999999903
1.0561113357543945,-5.376914978027344,0.40546751022338867,6.639999999999903
1.1486196517944336,-5.588685035705566,0.7723641395568848,6.649999999999903
2.218557357788086,-5.565813064575195,1.4171983003616333,6.659999999999902
2.5321381092071533,-5.648136138916016,1.4822269678115845,6.669999999999902
2.368678331375122,-4.913330554962158,0.8555045127868652,6.679999999999902
1.6174418926239014,-3.9485011100769043,0.8240017890930176,6.689999999999902
1.3781251907348633,-3.95628023147583,1.1815330982208252,6.699999999999902
1.6066936254501343,-4.717738151550293,1.014108419418335,6.709999999999901
1.5792123079299927,-5.072424411773682,0.6782867908477783,6.719999999999901
1.5444691181182861,-5.0258917808532715,0.2812621593475342,6.729999999999901
1.8010549545288086,-5.037720680236816,0.12923741340637207,6.739999999999901
1.911030888557434,-5.186577796936035,0.2390141487121582,6.7499999999999005
2.0542922019958496,-5.307263374328613,0.13460469245910645,6.7599999999999
1.977290391921997,-6.266373157501221,0.5905885696411133,6.7699999999999
3.618346929550171,-8.124707221984863,1.1357622146606445,6.7799999999999
3.9496917724609375,-7.655271530151367,-1.0214908123016357,6.7899999999999
2.5512657165527344,-6.214860916137695,-1.870889663696289,6.7999999999998995
1.9520827531814575,-5.193234920501709,-1.570725679397583,6.809999999999899
2.3662376403808594,-4.266594886779785,-1.3553199768066406,6.819999999999899
1.9477801322937012,-3.6184964179992676,-1.2234783172607422,6.829999999999899
1.4970641136169434,-2.8371548652648926,-1.20302152633667,6.839999999999899
1.0565717220306396,-1.8601694107055664,-0.6923561096191406,6.849999999999898
0.8942503929138184,-1.411695957183838,-0.37381553649902344,6.859999999999898
1.0527912378311157,-0.9813928604125977,-0.24249863624572754,6.869999999999898
0.5593057870864868,-0.37517738342285156,0.2799050807952881,6.879999999999898
0.5953931212425232,0.3927173614501953,0.8288519382476807,6.8899999999998975
0.9349957704544067,1.2149085998535156,1.3395134210586548,6.899999999999897
1.0892521142959595,1.8765592575073242,1.7660315036773682,6.909999999999897
1.1251354217529297,2.512213706970215,1.6597641706466675,6.919999999999897
1.5109317302703857,3.303755760192871,0.7601315975189209,6.929999999999897
1.714843988418579,4.877110481262207,-0.6966540813446045,6.9399999999998965
1.9231789112091064,7.7423505783081055,-3.2769529819488525,6.949999999999896
1.1386045217514038,8.35586166381836,-6.244895935058594,6.959999999999896
1.3541450500488281,8.722437858581543,-7.918241500854492,6.969999999999896
1.291433572769165,8.546520233154297,-8.945350646972656,6.979999999999896
1.5460517406463623,8.863975524902344,-8.653604507446289,6.989999999999895
1.0190284252166748,8.967806816101074,-9.050639152526855,6.999999999999895
0.5056756734848022,7.695956230163574,-8.628913879394531,7.009999999999895
-0.227882981300354,5.538175582885742,-7.716957092285156,7.019999999999895
-0.9166877269744873,2.9002304077148438,-6.905076026916504,7.0299999999998946
-1.3817142248153687,0.11287879943847656,-6.499713897705078,7.039999999999894
-1.568081021308899,-2.625380039215088,-6.195668697357178,7.049999999999894
-1.9832139015197754,-4.748137950897217,-5.4417524337768555,7.059999999999894
-2.6969704627990723,-6.10585355758667,-5.341030120849609,7.069999999999894
-2.969322681427002,-6.8978047370910645,-5.567683219909668,7.0799999999998935
-2.3097100257873535,-7.429592132568359,-4.356646537780762,7.089999999999893
-1.417604923248291,-7.745872974395752,-3.235283374786377,7.099999999999893
-0.5304508209228516,-7.7003045082092285,-2.249976396560669,7.109999999999893
0.17421209812164307,-6.91203498840332,-1.1040313243865967,7.119999999999893
0.17764067649841309,-5.926575660705566,0.5859014987945557,7.129999999999892
0.22616636753082275,-4.862825870513916,2.811311960220337,7.139999999999892
0.5352962017059326,-3.8085741996765137,4.442138671875,7.149999999999892
1.073670744895935,-1.763343334197998,6.074738502502441,7.159999999999892
1.773356556892395,1.1500358581542969,7.246344566345215,7.169999999999892
1.964343547821045,4.520136833190918,7.357566833496094,7.179999999999891
1.8606297969818115,9.058639526367188,7.849872589111328,7.189999999999891
1.7488863468170166,15.217996597290039,7.858447074890137,7.199999999999891
1.1517640352249146,24.42402458190918,7.13663387298584,7.209999999999891
-0.06384092569351196,35.46555709838867,5.833861351013184,7.2199999999998905
-0.15021520853042603,41.450836181640625,5.383905410766602,7.22999999999989
0.4639107286930084,40.68415069580078,4.963106632232666,7.23999999999989
-1.4879992008209229,31.56109619140625,3.981968402862549,7.24999999999989
-2.3304262161254883,17.211091995239258,2.900622844696045,7.25999999999989
-0.294050395488739,4.709420204162598,0.6506578922271729,7.269999999999889
0.047238171100616455,-4.288054466247559,-0.28976964950561523,7.279999999999889
0.6297469139099121,-10.309467315673828,-0.2370603084564209,7.289999999999889
0.788221538066864,-14.127592086791992,0.5826385021209717,7.299999999999889
0.16135495901107788,-15.124197006225586,2.273037910461426,7.309999999999889
-0.08320468664169312,-14.52728271484375,4.5725812911987305,7.319999999999888
0.42312198877334595,-13.286381721496582,6.132840633392334,7.329999999999888
1.1634550094604492,-12.441865921020508,6.561820030212402,7.339999999999888
1.9271856546401978,-11.654098510742188,6.208354949951172,7.349999999999888
2.2076282501220703,-10.954998016357422,5.2705183029174805,7.3599999999998875
2.7316930294036865,-9.90074634552002,4.275378227233887,7.369999999999887
3.2544326782226562,-8.710554122924805,3.619520902633667,7.379999999999887
3.2563724517822266,-7.464787006378174,3.2687113285064697,7.389999999999887
2.6873714923858643,-5.949230670928955,3.4204540252685547,7.399999999999887
1.4014968872070312,-4.864030361175537,2.9023003578186035,7.4099999999998865
0.21961981058120728,-3.6213631629943848,2.9851760864257812,7.419999999999886
-1.3253157138824463,-2.151660919189453,3.6812615394592285,7.429999999999886
-2.8692004680633545,-0.19853496551513672,4.203307151794434,7.439999999999886
-4.228105068206787,2.4628477096557617,4.1931047439575195,7.449999999999886
-5.4871296882629395,5.253613471984863,3.8267018795013428,7.459999999999885
-6.310376167297363,7.339929580688477,3.337493896484375,7.469999999999885
-6.287983417510986,8.601823806762695,2.964433431625366,7.479999999999885
-5.546750068664551,8.805027961730957,2.9572043418884277,7.489999999999885
-3.8099279403686523,7.681563377380371,2.3525214195251465,7.4999999999998845
-1.4194657802581787,5.713632583618164,1.2352960109710693,7.509999999999884
0.1560598611831665,3.5404977798461914,0.70151287317276,7.519999999999884
1.280517816543579,1.6020517349243164,0.3942241668701172,7.529999999999884
1.6831189393997192,1.0000371932983398,0.8536677360534668,7.539999999999884
2.5665810108184814,-0.32668113708496094,0.8531019687652588,7.5499999999998835
2.2854156494140625,-1.8830509185791016,0.08660769462585449,7.559999999999883
1.791015625,-3.1909961700439453,0.1483297348022461,7.569999999999883
1.7000137567520142,-4.071810245513916,0.6489285230636597,7.579999999999883
1.6765942573547363,-4.676974296569824,1.274340271949768,7.589999999999883
1.7005609273910522,-5.134068965911865,1.5670161247253418,7.599999999999882
1.521468162536621,-5.548983097076416,1.3161234855651855,7.609999999999882
1.1308588981628418,-5.823732376098633,1.8730692863464355,7.619999999999882
1.411849021911621,-5.8650970458984375,2.2629637718200684,7.629999999999882
1.721695899963379,-5.93861198425293,2.2103052139282227,7.6399999999998816
1.829677700996399,-5.917252063751221,2.152358055114746,7.649999999999881
1.890673279762268,-5.666924476623535,1.9782719612121582,7.659999999999881
1.870582938194275,-5.022605895996094,1.8673099279403687,7.669999999999881
1.6178488731384277,-4.149539470672607,1.676175832748413,7.679999999999881
1.2004104852676392,-2.729764461517334,1.4657440185546875,7.6899999999998805
0.7336723804473877,-1.1247081756591797,1.29019296169281,7.69999999999988
0.30929791927337646,0.18267345428466797,0.8329301476478577,7.70999999999988
-0.01218867301940918,1.217036247253418,1.0331571102142334,7.71999999999988
0.10044360160827637,1.8377342224121094,0.697583019733429,7.72999999999988
0.034883975982666016,2.033125877380371,0.13988593220710754,7.739999999999879
-0.25006937980651855,1.6885271072387695,-0.5805290937423706,7.749999999999879
-0.8085455894470215,1.0984296798706055,-0.7989329099655151,7.759999999999879
-1.0890617370605469,0.5499086380004883,-0.6614731550216675,7.769999999999879
-1.0328521728515625,-0.06971359252929688,-0.8428014516830444,7.779999999999879
-1.0143215656280518,-0.7962093353271484,-0.42667901515960693,7.789999999999878
-0.6506483554840088,-1.5267953872680664,-0.8301994800567627,7.799999999999878
-0.5525684356689453,-2.22348690032959,-1.2332687377929688,7.809999999999878
-0.5845162868499756,-2.716808319091797,-1.5027276277542114,7.819999999999878
-0.658898115158081,-3.1173806190490723,-1.6770977973937988,7.8299999999998775
-0.9470751285552979,-3.480663776397705,-1.8076595067977905,7.839999999999877
-1.42885160446167,-3.825366973876953,-1.7210553884506226,7.849999999999877
-1.3848481178283691,-3.696793556213379,-1.430991291999817,7.859999999999877
-1.5171256065368652,-3.339383602142334,-1.4994769096374512,7.869999999999877
-1.7346253395080566,-3.0234742164611816,-1.5629674196243286,7.879999999999876
-1.812147617340088,-2.787041664123535,-1.5185012817382812,7.889999999999876
-1.8160550594329834,-2.5031075477600098,-1.4756321907043457,7.899999999999876
-1.7530877590179443,-2.2815818786621094,-1.551833152770996,7.909999999999876
-1.6803889274597168,-2.2370195388793945,-1.4913142919540405,7.919999999999876
-1.585679531097412,-2.0272293090820312,-1.3201980590820312,7.929999999999875
-1.5406948328018188,-1.8101344108581543,-1.1309409141540527,7.939999999999875
-1.3894340991973877,-1.6286931037902832,-1.3059866428375244,7.949999999999875
-1.1555912494659424,-1.5258393287658691,-1.2011747360229492,7.959999999999875
-0.8986343145370483,-1.2743263244628906,-0.9621284604072571,7.9699999999998745
-0.6901395320892334,-1.1206903457641602,-0.9355659484863281,7.979999999999874
-0.5087831020355225,-1.1294317245483398,-1.0229320526123047,7.989999999999874
-0.39773571491241455,-0.7767143249511719,-0.9170466661453247,7.999999999999874
