AccX,AccY,AccZ,SampleRate
-1.9681178331375122,0.33800792694091797,-0.19203662872314453,0
-1.9632933139801025,0.7257556915283203,-0.6120927333831787,0.01
-1.8737159967422485,1.153458595275879,-0.9525477886199951,0.02
-1.6523739099502563,1.7336597442626953,-1.0442359447479248,0.03
-1.4202383756637573,2.461292266845703,-0.5184099674224854,0.04
-1.0770896673202515,3.5701446533203125,0.45549917221069336,0.05
-0.7549610137939453,4.597801208496094,1.8884406089782715,0.060000000000000005
-0.40106725692749023,5.519617080688477,3.6058452129364014,0.07
0.10144734382629395,6.793739318847656,5.260562896728516,0.08
0.6165342330932617,7.624885559082031,6.863197326660156,0.09
1.0655457973480225,7.627520561218262,8.448872566223145,0.09999999999999999
1.9003832340240479,7.858283042907715,9.515647888183594,0.10999999999999999
2.7484843730926514,6.7885637283325195,9.707255363464355,0.11999999999999998
3.0515518188476562,4.987065315246582,8.966239929199219,0.12999999999999998
3.189850330352783,3.132328987121582,7.732247352600098,0.13999999999999999
3.128678321838379,0.9292068481445312,6.517900466918945,0.15
3.3890018463134766,-0.34989166259765625,5.616498947143555,0.16
3.4167320728302,-1.9301233291625977,5.038172721862793,0.17
3.197223424911499,-3.0793967247009277,4.748948097229004,0.18000000000000002
2.7151198387145996,-3.965768337249756,4.816640377044678,0.19000000000000003
1.9826633930206299,-4.580136775970459,5.18073844909668,0.20000000000000004
1.782289981842041,-5.154749870300293,5.304473876953125,0.21000000000000005
1.777273178100586,-5.7803053855896,5.131291389465332,0.22000000000000006
2.1603996753692627,-6.124048233032227,4.426733016967773,0.23000000000000007
1.9824388027191162,-6.400025367736816,2.1618685722351074,0.24000000000000007
1.74127197265625,-6.460989475250244,0.0990896224975586,0.25000000000000006
1.2861216068267822,-5.741758823394775,-1.5767946243286133,0.26000000000000006
0.49189579486846924,-4.474501132965088,-3.0776567459106445,0.2700000000000001
-0.2818673849105835,-3.4534740447998047,-3.965731143951416,0.2800000000000001
-0.9130373001098633,-2.5011258125305176,-4.951340198516846,0.2900000000000001
-1.2109484672546387,-1.3324575424194336,-6.047962188720703,0.3000000000000001
-1.3266888856887817,0.6524333953857422,-6.685545921325684,0.3100000000000001
-1.379571795463562,3.956249237060547,-6.834725379943848,0.3200000000000001
-1.1610140800476074,7.952220916748047,-6.834320545196533,0.3300000000000001
-0.9566174149513245,13.49825382232666,-7.176830768585205,0.34000000000000014
-0.5561230182647705,20.308555603027344,-6.660103797912598,0.35000000000000014
-0.3698923587799072,28.381404876708984,-4.583420276641846,0.36000000000000015
-1.5652482509613037,33.43767547607422,-4.012573719024658,0.37000000000000016
-4.510707378387451,38.4853401184082,-4.51248025894165,0.38000000000000017
-6.594817638397217,35.20338439941406,-5.873913764953613,0.3900000000000002
-6.849455833435059,24.284114837646484,-7.990939140319824,0.4000000000000002
-5.066617488861084,14.845232963562012,-9.364216804504395,0.4100000000000002
-3.5691823959350586,7.915101051330566,-8.596334457397461,0.4200000000000002
-2.453483819961548,2.648787498474121,-5.050340175628662,0.4300000000000002
-1.6375058889389038,-2.8023300170898438,-0.540184736251831,0.4400000000000002
-0.8892714381217957,-7.552188873291016,1.7585701942443848,0.45000000000000023
-0.791064441204071,-10.608875274658203,1.0145924091339111,0.46000000000000024
-0.3940150737762451,-12.808282852172852,-0.9985995292663574,0.47000000000000025
0.12019777297973633,-14.240166664123535,-2.599842071533203,0.48000000000000026
0.7091970443725586,-14.78896713256836,-3.419405937194824,0.49000000000000027
-0.9283060431480408,-13.681313514709473,-3.5366415977478027,0.5000000000000002
-2.2218997478485107,-12.689014434814453,-3.4079036712646484,0.5100000000000002
-1.9243192672729492,-11.94941520690918,-2.851212739944458,0.5200000000000002
-1.2638232707977295,-11.30527114868164,-2.6816301345825195,0.5300000000000002
-0.2777172327041626,-10.81928825378418,-3.0382232666015625,0.5400000000000003
0.4551604986190796,-10.063742637634277,-3.5579605102539062,0.5500000000000003
1.03570556640625,-9.264119148254395,-4.0936994552612305,0.5600000000000003
1.6193633079528809,-8.695663452148438,-4.859748840332031,0.5700000000000003
2.3911023139953613,-7.598449230194092,-5.461705684661865,0.5800000000000003
3.0494465827941895,-6.401905536651611,-5.3420305252075195,0.5900000000000003
3.6761629581451416,-4.7357258796691895,-5.149599075317383,0.6000000000000003
4.617212295532227,-1.574561595916748,-5.173534393310547,0.6100000000000003
5.635927200317383,1.8129749298095703,-5.385137557983398,0.6200000000000003
5.783799171447754,4.545772552490234,-5.714961051940918,0.6300000000000003
4.76763916015625,6.566684722900391,-5.744217872619629,0.6400000000000003
3.5999715328216553,8.0092134475708,-5.109542369842529,0.6500000000000004
2.178868532180786,8.750528335571289,-4.337131500244141,0.6600000000000004
0.753341555595398,8.804486274719238,-3.702760934829712,0.6700000000000004
-1.348600149154663,8.039310455322266,-3.7183122634887695,0.6800000000000004
-4.116258144378662,5.730088233947754,-3.3918890953063965,0.6900000000000004
-5.761260509490967,3.2725048065185547,-2.1265029907226562,0.7000000000000004
-6.310690879821777,1.3979921340942383,-1.012434959411621,0.7100000000000004
-5.399472713470459,-0.5091238021850586,-0.23921871185302734,0.7200000000000004
-3.975398063659668,-2.521329879760742,0.31228137016296387,0.7300000000000004
-3.4604339599609375,-4.13439416885376,0.33505284786224365,0.7400000000000004
-3.272637367248535,-4.96713399887085,0.35942673683166504,0.7500000000000004
-3.482534885406494,-4.997914791107178,1.015248417854309,0.7600000000000005
-2.9291329383850098,-5.060756683349609,1.5970654487609863,0.7700000000000005
-1.9879984855651855,-5.220213890075684,0.38734227418899536,0.7800000000000005
-0.8312214612960815,-5.009873390197754,-1.723623275756836,0.7900000000000005
0.11629128456115723,-4.645483493804932,-3.2451000213623047,0.8000000000000005
0.8251633644104004,-4.402889251708984,-3.6914772987365723,0.8100000000000005
0.910031795501709,-3.990588665008545,-3.3469648361206055,0.8200000000000005
0.7516615390777588,-3.3752708435058594,-2.1251983642578125,0.8300000000000005
0.6460227966308594,-2.9225878715515137,-1.0149116516113281,0.8400000000000005
0.8074831962585449,-2.390202522277832,-0.37223684787750244,0.8500000000000005
1.0628533363342285,-1.4569940567016602,-0.3123980760574341,0.8600000000000005
1.3475310802459717,-0.5315923690795898,-0.5177841186523438,0.8700000000000006
1.7632259130477905,0.1568775177001953,-0.4536883533000946,0.8800000000000006
2.069911003112793,0.41762256622314453,-0.16269707679748535,0.8900000000000006
2.238239288330078,0.35170745849609375,0.4896392226219177,0.9000000000000006
2.30899715423584,-0.0070362091064453125,1.0960147380828857,0.9100000000000006
2.1085476875305176,-0.531682014465332,1.251650094985962,0.9200000000000006
1.7035573720932007,-1.3036375045776367,1.039232850074768,0.9300000000000006
1.2424718141555786,-2.0002241134643555,0.6409092545509338,0.9400000000000006
0.5788191556930542,-2.6648788452148438,0.16352379322052002,0.9500000000000006
-0.008058667182922363,-3.180807113647461,-0.10169903934001923,0.9600000000000006
-0.33551883697509766,-3.4144997596740723,-0.12455415725708008,0.9700000000000006
-0.518468976020813,-3.4022231101989746,-0.2361750602722168,0.9800000000000006
-0.5719689130783081,-3.1202807426452637,-0.21710029244422913,0.9900000000000007
-0.5070829391479492,-2.5377097129821777,-0.0016068220138549805,1.0000000000000007
-0.30380821228027344,-1.7503299713134766,0.3972702920436859,1.0100000000000007
0.005434393882751465,-0.9638776779174805,0.8927080631256104,1.0200000000000007
0.3745650053024292,-0.27878379821777344,1.380915880203247,1.0300000000000007
0.9349979162216187,0.19497108459472656,1.9494850635528564,1.0400000000000007
1.098122477531433,0.3571281433105469,2.1574554443359375,1.0500000000000007
1.330950140953064,0.23906898498535156,2.490908145904541,1.0600000000000007
1.4040868282318115,0.0109100341796875,2.8098485469818115,1.0700000000000007
1.655186653137207,-0.30086231231689453,2.9174938201904297,1.0800000000000007
1.847312331199646,-0.6195087432861328,2.928131103515625,1.0900000000000007
2.1406402587890625,-0.8539962768554688,2.9966676235198975,1.1000000000000008
2.4082770347595215,-0.920649528503418,2.9397780895233154,1.1100000000000008
2.587841510772705,-0.7885513305664062,2.814908981323242,1.1200000000000008
2.671830177307129,-0.3790302276611328,2.4946985244750977,1.1300000000000008
2.650081157684326,0.12827301025390625,2.2918238639831543,1.1400000000000008
2.6204004287719727,0.745147705078125,2.207639455795288,1.1500000000000008
2.642638683319092,1.5286970138549805,2.0591278076171875,1.1600000000000008
2.53494930267334,2.1700963973999023,1.6704087257385254,1.1700000000000008
2.160581111907959,2.8200607299804688,1.1096441745758057,1.1800000000000008
1.5666605234146118,3.265852928161621,0.6733670234680176,1.1900000000000008
1.0657188892364502,3.4314489364624023,0.44639354944229126,1.2000000000000008
0.582747220993042,3.279214859008789,0.6455980539321899,1.2100000000000009
0.36629998683929443,2.761887550354004,1.1429072618484497,1.2200000000000009
0.35648930072784424,2.372504234313965,1.7138190269470215,1.2300000000000009
0.6541554927825928,2.2709808349609375,2.2432875633239746,1.2400000000000009
0.9489073753356934,2.320528030395508,2.5973057746887207,1.2500000000000009
1.2033040523529053,2.5279712677001953,2.8449583053588867,1.260000000000001
1.470937728881836,2.8498916625976562,3.0384507179260254,1.270000000000001
1.5086089372634888,3.094773292541504,3.359600067138672,1.280000000000001
1.393553376197815,3.250748634338379,3.691467761993408,1.290000000000001
1.3174701929092407,3.248607635498047,3.8575210571289062,1.300000000000001
1.1894766092300415,3.050281524658203,3.750349760055542,1.310000000000001
1.1318578720092773,2.5913496017456055,3.4413580894470215,1.320000000000001
0.9217724800109863,2.1375732421875,3.167300224304199,1.330000000000001
0.6808058023452759,1.605337142944336,2.9186794757843018,1.340000000000001
0.5115387439727783,1.0905141830444336,2.603070020675659,1.350000000000001
0.4928053617477417,0.6791925430297852,2.139585256576538,1.360000000000001
0.6770570278167725,0.4309263229370117,1.4008384943008423,1.370000000000001
0.9589356184005737,0.2975168228149414,0.6368030309677124,1.380000000000001
1.3436638116836548,0.17337608337402344,0.053894758224487305,1.390000000000001
1.6925458908081055,0.3404207229614258,-0.517534613609314,1.400000000000001
1.9935259819030762,0.30559730529785156,-1.490350604057312,1.410000000000001
2.030460834503174,0.4255857467651367,-2.3380520343780518,1.420000000000001
2.049165725708008,0.4206972122192383,-3.0190014839172363,1.430000000000001
2.0463411808013916,0.2818183898925781,-3.565485954284668,1.440000000000001
2.2745814323425293,-0.01704120635986328,-4.123668193817139,1.450000000000001
2.5911474227905273,-0.21485614776611328,-4.614891052246094,1.460000000000001
3.0977935791015625,-0.5529918670654297,-5.0933685302734375,1.470000000000001
3.4710898399353027,-1.2295417785644531,-5.685029983520508,1.480000000000001
3.525137424468994,-1.6702404022216797,-6.302252769470215,1.490000000000001
3.192601203918457,-1.5739803314208984,-6.948898792266846,1.500000000000001
2.576411485671997,-0.4964752197265625,-7.247380256652832,1.5100000000000011
1.5243854522705078,0.8127613067626953,-7.258297920227051,1.5200000000000011
0.1729949712753296,2.353732109069824,-6.860141754150391,1.5300000000000011
-1.1427998542785645,4.009302139282227,-6.107781410217285,1.5400000000000011
-2.4007673263549805,5.310869216918945,-5.029409408569336,1.5500000000000012
-3.3720614910125732,6.151298522949219,-4.09792423248291,1.5600000000000012
-4.098512649536133,6.849163055419922,-3.0682756900787354,1.5700000000000012
-4.250805377960205,7.342310905456543,-2.227015256881714,1.5800000000000012
-3.88407564163208,7.487137794494629,-1.7191025018692017,1.5900000000000012
-3.242532253265381,7.606401443481445,-1.1483254432678223,1.6000000000000012
-2.7358484268188477,7.725986480712891,-0.8935937881469727,1.6100000000000012
-2.1643528938293457,7.702054977416992,-0.6066824793815613,1.6200000000000012
-1.454297661781311,7.532264709472656,-0.37799206376075745,1.6300000000000012
-1.3083045482635498,7.448946952819824,-0.29112035036087036,1.6400000000000012
-1.351599097251892,7.007455825805664,-0.6550597548484802,1.6500000000000012
-0.8866497278213501,6.160482406616211,-0.7324672341346741,1.6600000000000013
-0.6642841100692749,5.293651580810547,-0.3552364110946655,1.6700000000000013
-0.6426818370819092,4.541094779968262,-0.22444629669189453,1.6800000000000013
-0.49697017669677734,3.826300621032715,-0.42905527353286743,1.6900000000000013
-0.17435133457183838,3.0750532150268555,-0.6870576739311218,1.7000000000000013
-0.03581035137176514,2.3685855865478516,-0.7137845754623413,1.7100000000000013
-0.1954190731048584,1.565629005432129,-0.6529963612556458,1.7200000000000013
-0.5125769376754761,0.9940404891967773,-0.7392309904098511,1.7300000000000013
-0.6444910764694214,0.8500785827636719,-1.3388630151748657,1.7400000000000013
-0.8685694932937622,0.6575021743774414,-1.8806394338607788,1.7500000000000013
-0.9698811769485474,0.6336517333984375,-2.1618995666503906,1.7600000000000013
-1.1476433277130127,0.5627813339233398,-2.539417266845703,1.7700000000000014
-1.21573007106781,0.2603111267089844,-2.665883779525757,1.7800000000000014
-1.1439770460128784,-0.34798717498779297,-2.859522819519043,1.7900000000000014
-0.9340325593948364,-0.9463958740234375,-3.0912461280822754,1.8000000000000014
-0.7673473358154297,-1.2769737243652344,-3.1546993255615234,1.8100000000000014
-0.3322882652282715,-1.993516445159912,-2.7158870697021484,1.8200000000000014
0.15305352210998535,-2.574841022491455,-2.2302072048187256,1.8300000000000014
0.5128045082092285,-3.42372989654541,-1.1918705701828003,1.8400000000000014
0.9490060806274414,-4.4974188804626465,-0.22321534156799316,1.8500000000000014
1.1595065593719482,-4.917720317840576,-0.48035621643066406,1.8600000000000014
1.3904683589935303,-5.36908483505249,-0.6380152702331543,1.8700000000000014
1.380807876586914,-5.920699119567871,-0.6991379261016846,1.8800000000000014
1.0653151273727417,-6.194332599639893,-0.6644346714019775,1.8900000000000015
0.5528545379638672,-5.9388532638549805,-0.6684615612030029,1.9000000000000015
0.059870362281799316,-5.831338405609131,-0.6132993698120117,1.9100000000000015
-0.268612265586853,-5.859418869018555,-0.5639922618865967,1.9200000000000015
-0.5981727838516235,-5.582512855529785,-0.6844058036804199,1.9300000000000015
-0.7740206718444824,-5.536062240600586,-0.8298742771148682,1.9400000000000015
-0.9350947737693787,-5.7625274658203125,-0.9487016201019287,1.9500000000000015
-0.9665329456329346,-6.067631244659424,-1.1063919067382812,1.9600000000000015
-1.0261268615722656,-6.274135589599609,-1.2151821851730347,1.9700000000000015
-0.9075900316238403,-6.589883804321289,-1.3983206748962402,1.9800000000000015
-0.8609792590141296,-7.041085720062256,-1.6418439149856567,1.9900000000000015
-1.2000898122787476,-7.020455360412598,-1.5095553398132324,2.0000000000000013
-1.2032564878463745,-6.473812103271484,-1.328479528427124,2.010000000000001
-1.1631325483322144,-5.860943794250488,-1.4857747554779053,2.020000000000001
-1.173011064529419,-5.15357780456543,-1.485171914100647,2.0300000000000007
-1.139259696006775,-4.980926513671875,-1.5511516332626343,2.0400000000000005
-1.2437304258346558,-4.77103853225708,-1.3650861978530884,2.0500000000000003
-1.352555274963379,-4.624510288238525,-1.1875206232070923,2.06
-1.5353652238845825,-4.43613338470459,-1.0492117404937744,2.07
-1.7398796081542969,-4.299221515655518,-0.8232114315032959,2.0799999999999996
-1.9518048763275146,-4.213695049285889,-0.5526657104492188,2.0899999999999994
-2.2406768798828125,-4.031201362609863,-0.26873064041137695,2.099999999999999
-2.5156469345092773,-3.8832993507385254,0.03563499450683594,2.109999999999999
-2.666637897491455,-3.745889663696289,0.22849678993225098,2.1199999999999988
-2.7033214569091797,-3.523171901702881,0.39331626892089844,2.1299999999999986
-2.694995880126953,-3.2366509437561035,0.5178365707397461,2.1399999999999983
-2.557447910308838,-3.101639747619629,0.64034104347229,2.149999999999998
-2.3623552322387695,-2.8212833404541016,0.6527502536773682,2.159999999999998
-2.2410686016082764,-2.4504332542419434,0.5350494384765625,2.1699999999999977
-2.14798641204834,-2.034201145172119,0.31711697578430176,2.1799999999999975
-1.9033317565917969,-1.6894702911376953,0.13410115242004395,2.1899999999999973
-1.7865757942199707,-1.181401252746582,-0.16396045684814453,2.199999999999997
-1.816474199295044,-0.5884847640991211,-0.6509771347045898,2.209999999999997
-1.8999905586242676,0.22823810577392578,-0.8713705539703369,2.2199999999999966
-1.9511988162994385,0.8812780380249023,-1.012595534324646,2.2299999999999964
-1.9224568605422974,1.571843147277832,-1.2284228801727295,2.239999999999996
-1.668012261390686,2.1637611389160156,-1.3257668018341064,2.249999999999996
-1.3247406482696533,2.7289209365844727,-1.084800362586975,2.259999999999996
-0.9892687797546387,3.3509178161621094,-0.3926374912261963,2.2699999999999956
-0.7436174750328064,4.0341339111328125,0.7398457527160645,2.2799999999999954
-0.51352858543396,4.792487144470215,2.0098581314086914,2.289999999999995
-0.396639347076416,5.407733917236328,3.364187240600586,2.299999999999995
-0.17170631885528564,6.001096725463867,4.716936111450195,2.3099999999999947
-0.022244930267333984,6.444697380065918,6.2486748695373535,2.3199999999999945
0.1337498426437378,6.462428092956543,7.573406219482422,2.3299999999999943
0.8259166479110718,6.7092390060424805,8.198123931884766,2.339999999999994
1.5594501495361328,6.24006462097168,8.298648834228516,2.349999999999994
1.8133352994918823,5.199633598327637,7.812063217163086,2.3599999999999937
2.1134486198425293,3.5244503021240234,6.9833574295043945,2.3699999999999934
2.1999011039733887,1.533442497253418,6.040382385253906,2.3799999999999932
2.1647512912750244,-0.3546333312988281,5.194462299346924,2.389999999999993
2.1473026275634766,-1.6399030685424805,4.654715538024902,2.399999999999993
2.0016140937805176,-2.839519500732422,4.391890525817871,2.4099999999999926
1.6602675914764404,-3.662001609802246,4.351626396179199,2.4199999999999924
1.1357537508010864,-4.224803447723389,4.505812168121338,2.429999999999992
0.6820665597915649,-4.740547180175781,4.072056770324707,2.439999999999992
0.49834728240966797,-5.043407917022705,2.7167675495147705,2.4499999999999917
0.41534483432769775,-4.924962520599365,1.8863754272460938,2.4599999999999915
0.10368168354034424,-4.67680025100708,1.03843355178833,2.4699999999999913
-0.017343521118164062,-4.150008201599121,0.10621809959411621,2.479999999999991
-0.2194511890411377,-3.337146282196045,-0.5701220035552979,2.489999999999991
-0.29025107622146606,-2.3073854446411133,-1.3659999370574951,2.4999999999999907
-0.2536543607711792,-0.9911537170410156,-2.219041585922241,2.5099999999999905
-0.306299090385437,0.3512430191040039,-3.2896728515625,2.5199999999999902
-0.17192184925079346,2.24649715423584,-4.457792282104492,2.52999999999999
0.18347585201263428,5.2942399978637695,-5.129997253417969,2.53999999999999
0.7398407459259033,9.26964282989502,-5.1470441818237305,2.5499999999999896
1.388697624206543,14.298783302307129,-4.790211200714111,2.5599999999999894
1.8963333368301392,20.369667053222656,-3.974393844604492,2.569999999999989
2.2038683891296387,27.229736328125,-3.181771993637085,2.579999999999989
1.7756717205047607,32.118553161621094,-3.7304201126098633,2.5899999999999888
-0.23380941152572632,33.631282806396484,-5.127468585968018,2.5999999999999885
-2.82586407661438,29.143625259399414,-6.71084451675415,2.6099999999999883
-4.939454078674316,18.957643508911133,-8.544631958007812,2.619999999999988
-4.420270919799805,11.004838943481445,-9.38071060180664,2.629999999999988
-3.6955838203430176,5.131711959838867,-8.284061431884766,2.6399999999999877
-3.1170289516448975,-0.07349491119384766,-5.240444183349609,2.6499999999999875
-2.1413228511810303,-4.816271781921387,-1.7031347751617432,2.6599999999999873
-1.7193093299865723,-8.227470397949219,0.4006919860839844,2.669999999999987
-1.1884983777999878,-11.030438423156738,-1.468658447265625E-4,2.679999999999987
-0.9141442179679871,-13.270578384399414,-1.3905553817749023,2.6899999999999866
-0.6840896606445312,-14.828696250915527,-2.6645359992980957,2.6999999999999864
-0.24963915348052979,-15.672407150268555,-3.275846481323242,2.709999999999986
-2.196104049682617,-14.44461441040039,-3.015958786010742,2.719999999999986
-3.4306039810180664,-12.977985382080078,-2.653209686279297,2.7299999999999858
-2.93463134765625,-12.018062591552734,-2.2732901573181152,2.7399999999999856
-1.8830620050430298,-11.378728866577148,-2.78745698928833,2.7499999999999853
-1.1136618852615356,-10.52947998046875,-3.0930864810943604,2.759999999999985
-0.3675103187561035,-9.30574893951416,-3.5201573371887207,2.769999999999985
0.34877336025238037,-8.033089637756348,-3.8934693336486816,2.7799999999999847
1.5882445573806763,-6.800991535186768,-4.148670673370361,2.7899999999999845
2.477938175201416,-5.153093338012695,-4.661141872406006,2.7999999999999843
3.512897491455078,-2.9320011138916016,-4.791979789733887,2.809999999999984
4.8737406730651855,0.24192523956298828,-4.390564918518066,2.819999999999984
5.991959095001221,3.6412601470947266,-4.171348571777344,2.8299999999999836
6.33439302444458,6.334380149841309,-4.160958766937256,2.8399999999999834
5.886503219604492,8.280359268188477,-4.371699333190918,2.849999999999983
4.766662120819092,9.748824119567871,-4.089475154876709,2.859999999999983
3.286933422088623,9.97822380065918,-3.6043834686279297,2.869999999999983
1.230729103088379,9.061646461486816,-3.3190040588378906,2.8799999999999826
-0.9920668601989746,7.304696083068848,-2.9448018074035645,2.8899999999999824
-2.6580088138580322,4.87833309173584,-2.483050584793091,2.899999999999982
-2.737459897994995,2.237259864807129,-1.790734052658081,2.909999999999982
-2.370706081390381,-0.04973411560058594,-1.080893874168396,2.9199999999999817
-2.4099225997924805,-1.6150074005126953,-0.31110072135925293,2.9299999999999815
-2.415365219116211,-2.641364574432373,0.16910898685455322,2.9399999999999813
-2.4241440296173096,-3.450024127960205,0.19706547260284424,2.949999999999981
-2.375102996826172,-3.9577813148498535,-0.04528212547302246,2.959999999999981
-2.4608960151672363,-4.217867374420166,-0.3136085271835327,2.9699999999999807
-2.52524471282959,-4.24775505065918,-0.27573955059051514,2.9799999999999804
-2.3060593605041504,-4.3111891746521,-0.10061562061309814,2.9899999999999802
-1.7346997261047363,-4.422840595245361,-0.14768558740615845,2.99999999999998
-1.2361704111099243,-4.422547817230225,-0.6480465531349182,3.00999999999998
-0.8428875207901001,-4.423038482666016,-1.0474225282669067,3.0199999999999796
-0.4437040090560913,-4.259635925292969,-1.348417043685913,3.0299999999999794
-0.14598548412322998,-4.025976181030273,-1.3236098289489746,3.039999999999979
0.07166385650634766,-3.4735727310180664,-1.0894606113433838,3.049999999999979
0.31888139247894287,-3.3942480087280273,-1.0475221872329712,3.0599999999999787
0.5249866247177124,-2.7589683532714844,-0.8294887542724609,3.0699999999999785
0.6111645698547363,-1.9194941520690918,-0.5686938166618347,3.0799999999999783
0.6566480398178101,-1.2869081497192383,-0.25540411472320557,3.089999999999978
0.826784610748291,-0.7122917175292969,0.03147214651107788,3.099999999999978
0.9281859397888184,-0.20475482940673828,0.09339657425880432,3.1099999999999777
1.1581367254257202,0.05907249450683594,0.34910646080970764,3.1199999999999775
1.3006876707077026,0.0389556884765625,0.5206995010375977,3.1299999999999772
1.3890935182571411,-0.1355743408203125,0.6318114399909973,3.139999999999977
1.4239087104797363,-0.4524803161621094,0.8740764856338501,3.149999999999977
1.374889850616455,-0.8950023651123047,1.0301448106765747,3.1599999999999766
1.3200137615203857,-1.463242530822754,1.2131136655807495,3.1699999999999764
1.1437273025512695,-2.037776470184326,1.2271854877471924,3.179999999999976
1.0892590284347534,-2.7312564849853516,1.2354024648666382,3.189999999999976
0.959453821182251,-3.165992259979248,1.1374125480651855,3.1999999999999758
0.812690258026123,-3.4356980323791504,1.0647504329681396,3.2099999999999755
0.6325877904891968,-3.547781467437744,1.026993989944458,3.2199999999999753
0.6126390695571899,-3.4449639320373535,1.0959360599517822,3.229999999999975
0.6877756118774414,-3.180025100708008,1.1442956924438477,3.239999999999975
0.785382866859436,-2.7984509468078613,1.1711872816085815,3.2499999999999747
1.0721592903137207,-2.2811546325683594,1.3096528053283691,3.2599999999999745
1.2889996767044067,-1.7501916885375977,1.4628558158874512,3.2699999999999743
1.5430731773376465,-1.2892341613769531,1.6348057985305786,3.279999999999974
1.7118362188339233,-0.9292364120483398,1.8156548738479614,3.289999999999974
1.8331578969955444,-0.6532993316650391,1.8617124557495117,3.2999999999999736
1.8635116815567017,-0.5951385498046875,1.9697139263153076,3.3099999999999734
1.7954987287521362,-0.620513916015625,1.9919846057891846,3.319999999999973
1.8372621536254883,-0.7221202850341797,1.9603633880615234,3.329999999999973
1.7827059030532837,-0.7993907928466797,1.870348572731018,3.3399999999999728
1.749138593673706,-0.8356342315673828,1.8463897705078125,3.3499999999999726
1.724491000175476,-0.6946449279785156,1.871370792388916,3.3599999999999723
1.6970571279525757,-0.35283565521240234,1.8802235126495361,3.369999999999972
1.726971983909607,0.11531925201416016,1.8344151973724365,3.379999999999972
1.6298762559890747,0.5063838958740234,1.6332634687423706,3.3899999999999717
1.5228404998779297,1.0188674926757812,1.2955485582351685,3.3999999999999715
1.4367839097976685,1.4301795959472656,0.9715227484703064,3.4099999999999713
1.323744773864746,1.924452781677246,0.5719184875488281,3.419999999999971
1.1812986135482788,2.4488677978515625,0.2562391757965088,3.429999999999971
1.0738849639892578,2.7642602920532227,0.1104656457901001,3.4399999999999706
0.9581383466720581,2.8256025314331055,0.33401989936828613,3.4499999999999704
0.848107099533081,2.6620664596557617,0.8081664443016052,3.45999999999997
0.9135363101959229,2.25734806060791,1.4383950233459473,3.46999999999997
1.0491259098052979,1.972914695739746,2.0415735244750977,3.47999999999997
1.3146178722381592,1.8780317306518555,2.558739185333252,3.4899999999999696
1.6620697975158691,2.0465688705444336,2.9565110206604004,3.4999999999999694
1.9478027820587158,2.427971839904785,3.2468223571777344,3.509999999999969
2.0567164421081543,2.854628562927246,3.4585225582122803,3.519999999999969
2.0268940925598145,3.2619524002075195,3.6036295890808105,3.5299999999999687
1.8775300979614258,3.444295883178711,3.5384278297424316,3.5399999999999685
1.5895975828170776,3.394735336303711,3.5403103828430176,3.5499999999999683
1.1013362407684326,3.108755111694336,3.573352575302124,3.559999999999968
0.659877598285675,2.6296463012695312,3.5826759338378906,3.569999999999968
0.3524158000946045,2.0388078689575195,3.3576712608337402,3.5799999999999677
0.32598352432250977,1.4772205352783203,2.85713267326355,3.5899999999999674
0.4995894432067871,1.0403566360473633,2.307945728302002,3.5999999999999672
0.8054983019828796,0.8547458648681641,1.563537836074829,3.609999999999967
1.0535883903503418,0.8388824462890625,0.9613174200057983,3.619999999999967
1.5040032863616943,0.8563566207885742,0.5062713027000427,3.6299999999999666
1.9051649570465088,0.794611930847168,-0.1880655288696289,3.6399999999999664
2.3550703525543213,0.727757453918457,-0.9383184909820557,3.649999999999966
2.575624942779541,0.7299184799194336,-1.7235310077667236,3.659999999999966
2.7144734859466553,0.8154277801513672,-2.658646583557129,3.6699999999999657
2.871142864227295,0.8025903701782227,-3.5926976203918457,3.6799999999999655
3.0614655017852783,0.7418994903564453,-4.334015846252441,3.6899999999999653
3.2245092391967773,0.6240224838256836,-4.916129112243652,3.699999999999965
3.3018381595611572,0.48264503479003906,-5.289308547973633,3.709999999999965
3.2712204456329346,0.18636417388916016,-5.50250244140625,3.7199999999999647
3.0758414268493652,-0.025613784790039062,-5.64619255065918,3.7299999999999645
2.305225372314453,-0.02918720245361328,-5.988407135009766,3.7399999999999642
1.4298622608184814,0.42888355255126953,-6.10883903503418,3.749999999999964
0.391971230506897,1.1616277694702148,-6.270026683807373,3.759999999999964
-0.7085697054862976,1.932185173034668,-6.295329570770264,3.7699999999999636
-1.9762802124023438,2.580535888671875,-6.233607769012451,3.7799999999999634
-3.2726686000823975,3.3629894256591797,-5.696191310882568,3.789999999999963
-4.381067276000977,4.224758148193359,-4.641243934631348,3.799999999999963
-4.923573970794678,4.957855224609375,-3.5460524559020996,3.8099999999999627
-4.7963666915893555,5.344697952270508,-2.7591934204101562,3.8199999999999625
-4.4055867195129395,5.6103410720825195,-2.2994894981384277,3.8299999999999623
-4.045426368713379,5.764486312866211,-2.210533618927002,3.839999999999962
-3.612992286682129,5.74754524230957,-2.105330467224121,3.849999999999962
-3.217902660369873,5.722317695617676,-1.7849290370941162,3.8599999999999617
-3.0439093112945557,5.791614532470703,-1.645647406578064,3.8699999999999615
-2.8369789123535156,5.986339569091797,-1.6314657926559448,3.8799999999999613
-2.709364891052246,6.165223121643066,-1.680099368095398,3.889999999999961
-2.7280988693237305,6.192042350769043,-1.6698867082595825,3.899999999999961
-2.8284854888916016,5.949801445007324,-1.37318754196167,3.9099999999999606
-2.5846540927886963,5.493675231933594,-0.8056874871253967,3.9199999999999604
-2.432797431945801,5.110769271850586,-0.08556663990020752,3.92999999999996
-2.2709975242614746,4.616876602172852,0.2906705141067505,3.93999999999996
-1.8772385120391846,3.942781448364258,0.2251657247543335,3.9499999999999598
-1.4688384532928467,3.222410202026367,-0.011555790901184082,3.9599999999999596
-1.4776126146316528,2.658717155456543,0.03755307197570801,3.9699999999999593
-1.5488358736038208,2.0696563720703125,-0.24279165267944336,3.979999999999959
-1.3636713027954102,1.993539810180664,-0.7757577300071716,3.989999999999959
-1.3518495559692383,1.7176141738891602,-1.5071810483932495,3.9999999999999587
-1.493983268737793,1.2424259185791016,-2.235476493835449,4.009999999999959
-1.4486439228057861,0.7712764739990234,-2.6413064002990723,4.019999999999959
-1.3260459899902344,0.25586414337158203,-2.8330984115600586,4.0299999999999585
-1.0952632427215576,-0.2850217819213867,-3.098846912384033,4.039999999999958
-0.8356740474700928,-0.6341724395751953,-3.2403221130371094,4.049999999999958
-0.38558781147003174,-1.316004753112793,-2.9843409061431885,4.059999999999958
0.04207301139831543,-1.837812900543213,-2.511967182159424,4.069999999999958
0.5049219131469727,-2.626371383666992,-1.681125283241272,4.079999999999957
1.0138812065124512,-3.742096424102783,-0.5978732109069824,4.089999999999957
1.5232007503509521,-4.414621353149414,-1.0204542875289917,4.099999999999957
2.1888349056243896,-5.220942497253418,-1.216126561164856,4.109999999999957
2.354675769805908,-5.723230838775635,-1.209066390991211,4.119999999999957
2.4221293926239014,-5.907462120056152,-0.97525954246521,4.129999999999956
2.2917864322662354,-5.764559268951416,-0.49216508865356445,4.139999999999956
1.805776834487915,-5.457014083862305,-0.08273625373840332,4.149999999999956
1.1144933700561523,-5.206475257873535,-0.0013573169708251953,4.159999999999956
0.5462031364440918,-5.122394561767578,0.0867006778717041,4.1699999999999555
0.16982555389404297,-5.149275779724121,0.09667253494262695,4.179999999999955
0.1557924747467041,-5.609521865844727,-0.02082657814025879,4.189999999999955
-0.4025477170944214,-5.8994903564453125,-0.3224918842315674,4.199999999999955
-1.0315970182418823,-5.889894008636475,-0.5125541687011719,4.209999999999955
-1.4899258613586426,-5.791327476501465,-0.6395905017852783,4.2199999999999545
-1.627106785774231,-5.639736175537109,-0.6369283199310303,4.229999999999954
-1.6421197652816772,-5.399517059326172,-0.5878632068634033,4.239999999999954
-1.6519170999526978,-5.188220500946045,-0.5349836349487305,4.249999999999954
-1.556024193763733,-4.955807685852051,-0.7145218849182129,4.259999999999954
-1.4527192115783691,-4.886478900909424,-0.9754185676574707,4.269999999999953
-1.4497913122177124,-4.8582682609558105,-1.1018474102020264,4.279999999999953
-1.5662566423416138,-4.940845012664795,-0.9399313926696777,4.289999999999953
-1.6009594202041626,-4.940615653991699,-0.9151561260223389,4.299999999999953
-1.609050989151001,-4.929539680480957,-0.9266023635864258,4.3099999999999525
-1.7294375896453857,-4.9483962059021,-0.8447265625,4.319999999999952
-1.8616909980773926,-4.963747024536133,-0.6645982265472412,4.329999999999952
-2.0106101036071777,-5.009051322937012,-0.5035398006439209,4.339999999999952
-2.1811985969543457,-4.957414627075195,-0.32111692428588867,4.349999999999952
-2.316251039505005,-4.9833807945251465,-0.05063581466674805,4.3599999999999515
-2.3414711952209473,-4.91461706161499,0.1784369945526123,4.369999999999951
-2.4265449047088623,-4.791626930236816,0.3438253402709961,4.379999999999951
-2.524064540863037,-4.769827365875244,0.6154725551605225,4.389999999999951
-2.634366512298584,-4.629078388214111,0.881040096282959,4.399999999999951
-2.439242362976074,-4.462701797485352,0.996889591217041,4.40999999999995
-2.326367139816284,-4.162988185882568,0.9628903865814209,4.41999999999995
-2.175490140914917,-3.7443108558654785,0.8408398628234863,4.42999999999995
-2.2927122116088867,-3.6296329498291016,0.47899317741394043,4.43999999999995
-2.4076919555664062,-3.138925075531006,0.03129267692565918,4.4499999999999496
-2.3358936309814453,-2.5686779022216797,-0.305570125579834,4.459999999999949
-2.1868443489074707,-1.913933277130127,-0.5331802368164062,4.469999999999949
-2.1562817096710205,-1.2198362350463867,-0.8782860040664673,4.479999999999949
-2.0164129734039307,-0.5193424224853516,-1.611192226409912,4.489999999999949
-1.7192710638046265,0.29825401306152344,-2.653308391571045,4.4999999999999485
-1.3941059112548828,1.2931232452392578,-3.272585868835449,4.509999999999948
-1.2187501192092896,2.6254453659057617,-3.006105899810791,4.519999999999948
-1.0945183038711548,4.0889081954956055,-1.518040418624878,4.529999999999948
-0.9056703448295593,5.3909406661987305,0.77541184425354,4.539999999999948
-0.7485865950584412,6.46137809753418,3.265693426132202,4.549999999999947
-0.45278310775756836,7.378218650817871,5.636456489562988,4.559999999999947
0.054218173027038574,8.14041519165039,7.638455390930176,4.569999999999947
0.5254162549972534,8.823532104492188,9.223907470703125,4.579999999999947
0.8788142204284668,9.326294898986816,10.150864601135254,4.589999999999947
1.5337666273117065,9.349411964416504,10.491329193115234,4.599999999999946
2.4266157150268555,8.4841890335083,9.855621337890625,4.609999999999946
3.0332977771759033,7.2510175704956055,8.5657377243042,4.619999999999946
3.317384719848633,4.926560401916504,7.382357597351074,4.629999999999946
2.989889144897461,2.2539806365966797,6.569131851196289,4.6399999999999455
2.624382734298706,0.051624298095703125,5.903609275817871,4.649999999999945
2.26676082611084,-1.492088794708252,5.370138168334961,4.659999999999945
1.9677784442901611,-2.8181943893432617,4.961651802062988,4.669999999999945
1.677093744277954,-4.099618911743164,4.694291114807129,4.679999999999945
1.429427146911621,-5.310124397277832,4.456730842590332,4.689999999999944
1.1032944917678833,-6.243372917175293,3.1550111770629883,4.699999999999944
0.6075903177261353,-6.6666693687438965,1.3170897960662842,4.709999999999944
-0.03438997268676758,-6.433775424957275,0.006380558013916016,4.719999999999944
-0.5588507652282715,-5.970174789428711,-1.5477685928344727,4.729999999999944
-1.1300033330917358,-5.134372711181641,-2.608107089996338,4.739999999999943
-1.8839600086212158,-4.02211856842041,-3.0174593925476074,4.749999999999943
-2.3052239418029785,-2.887190818786621,-3.2806434631347656,4.759999999999943
-2.080301523208618,-2.0095105171203613,-3.653817653656006,4.769999999999943
-2.108837842941284,-0.48215484619140625,-4.5738701820373535,4.7799999999999425
-2.0017340183258057,2.189493179321289,-5.33845329284668,4.789999999999942
-1.5092391967773438,5.932149887084961,-5.762327194213867,4.799999999999942
-1.1279864311218262,10.750001907348633,-5.120059967041016,4.809999999999942
-0.5614860653877258,17.750133514404297,-3.5931406021118164,4.819999999999942
-0.39164280891418457,25.421066284179688,-2.1523189544677734,4.8299999999999415
-1.2528988122940063,31.748836517333984,-2.0571811199188232,4.839999999999941
-3.597254991531372,35.7907829284668,-2.9431352615356445,4.849999999999941
-6.200497627258301,33.70758056640625,-4.958930015563965,4.859999999999941
-5.990869522094727,22.979284286499023,-7.272228240966797,4.869999999999941
-4.343207836151123,14.409781455993652,-9.039358139038086,4.87999999999994
-2.6076982021331787,8.261530876159668,-9.20424747467041,4.88999999999994
-1.5838391780853271,3.338336944580078,-7.939686298370361,4.89999999999994
-1.011889934539795,-1.4595880508422852,-5.121427059173584,4.90999999999994
-0.6122593879699707,-5.876219749450684,-1.7319769859313965,4.9199999999999395
-0.14150357246398926,-10.006332397460938,0.1258007287979126,4.929999999999939
0.23386478424072266,-12.472979545593262,-0.005727887153625488,4.939999999999939
0.7793450355529785,-14.146187782287598,-1.1665360927581787,4.949999999999939
1.7227600812911987,-14.981773376464844,-2.0790483951568604,4.959999999999939
0.881177544593811,-14.115177154541016,-2.60845685005188,4.9699999999999385
-1.9658336639404297,-12.323015213012695,-2.4119582176208496,4.979999999999938
-2.204962968826294,-10.963018417358398,-2.0930113792419434,4.989999999999938
-1.0821565389633179,-10.234888076782227,-2.2714552879333496,4.999999999999938
-0.30979275703430176,-9.462170600891113,-3.14100980758667,5.009999999999938
-0.0073097944259643555,-8.855764389038086,-3.888636589050293,5.019999999999937
0.7083011865615845,-8.029550552368164,-4.366724014282227,5.029999999999937
1.4905402660369873,-6.896327018737793,-4.800573348999023,5.039999999999937
2.3763656616210938,-5.5548248291015625,-5.310359954833984,5.049999999999937
4.444763660430908,-3.531728744506836,-5.350131988525391,5.0599999999999365
5.616678237915039,-0.6879434585571289,-5.851085662841797,5.069999999999936
6.328557014465332,1.786391258239746,-5.901475429534912,5.079999999999936
6.587993621826172,3.7688655853271484,-5.51314640045166,5.089999999999936
5.902871131896973,5.51722526550293,-5.0954508781433105,5.099999999999936
4.509477615356445,6.865490913391113,-4.525230407714844,5.1099999999999355
2.1540257930755615,7.380046844482422,-4.183156490325928,5.119999999999935
-1.4295250177383423,6.6468706130981445,-3.8584225177764893,5.129999999999935
-4.672450065612793,5.346966743469238,-2.9268035888671875,5.139999999999935
-6.094343185424805,4.107149124145508,-1.6400638818740845,5.149999999999935
-5.343515396118164,2.2836780548095703,-1.2373402118682861,5.159999999999934
-3.3701910972595215,0.0322265625,-1.1938202381134033,5.169999999999934
-2.7654991149902344,-1.4489459991455078,-1.0195342302322388,5.179999999999934
-3.0058462619781494,-2.154021739959717,-0.8172452449798584,5.189999999999934
-2.944963216781616,-2.410228729248047,0.35964059829711914,5.199999999999934
-2.9558610916137695,-2.671001434326172,1.5930743217468262,5.209999999999933
-2.945594310760498,-2.8525686264038086,1.3624169826507568,5.219999999999933
-2.6300883293151855,-3.2605066299438477,-0.2823348045349121,5.229999999999933
-2.1272006034851074,-3.408966064453125,-1.8319162130355835,5.239999999999933
-1.4190430641174316,-3.365532875061035,-2.41504168510437,5.2499999999999325
-0.7298043966293335,-2.741384983062744,-1.9993622303009033,5.259999999999932
-0.27011990547180176,-2.324472427368164,-1.274349570274353,5.269999999999932
-0.09572887420654297,-2.0740957260131836,-0.7382055521011353,5.279999999999932
-0.058751821517944336,-1.9255561828613281,-0.5770686864852905,5.289999999999932
0.15176641941070557,-1.8716297149658203,-0.6362727880477905,5.299999999999931
0.43345046043395996,-1.8621530532836914,-0.7977747321128845,5.309999999999931
0.630746603012085,-1.8826470375061035,-0.9981062412261963,5.319999999999931
0.7309503555297852,-1.8706507682800293,-1.0620143413543701,5.329999999999931
0.7185466289520264,-1.8450422286987305,-0.8086000680923462,5.339999999999931
0.9079749584197998,-1.6788372993469238,-0.32905465364456177,5.34999999999993
0.998742938041687,-1.6158323287963867,0.10890360176563263,5.35999999999993
1.2601237297058105,-1.5696086883544922,0.5558860898017883,5.36999999999993
1.4040052890777588,-1.630812644958496,0.8351070880889893,5.37999999999993
1.5806386470794678,-1.734640121459961,1.054473876953125,5.3899999999999295
1.6272956132888794,-1.7805919647216797,1.1587927341461182,5.399999999999929
1.5892984867095947,-1.8547673225402832,1.4596061706542969,5.409999999999929
1.4498685598373413,-2.112515926361084,1.6393040418624878,5.419999999999929
1.420102596282959,-2.2763214111328125,1.636673092842102,5.429999999999929
1.3452670574188232,-2.678791046142578,1.4716233015060425,5.4399999999999284
1.322172999382019,-2.8678789138793945,1.2066439390182495,5.449999999999928
1.272937536239624,-3.145289421081543,0.9447916150093079,5.459999999999928
1.1786558628082275,-3.099626064300537,0.7168871164321899,5.469999999999928
1.094498872756958,-2.946470260620117,0.6492217779159546,5.479999999999928
1.0800373554229736,-2.6954455375671387,0.6861485242843628,5.489999999999927
1.1947940587997437,-2.4351296424865723,0.7426844835281372,5.499999999999927
1.2921640872955322,-1.9909191131591797,0.9515610933303833,5.509999999999927
1.4026644229888916,-1.5184307098388672,1.1633049249649048,5.519999999999927
1.5449239015579224,-1.1038055419921875,1.410224199295044,5.5299999999999265
1.63026762008667,-0.7661752700805664,1.6365594863891602,5.539999999999926
1.7377803325653076,-0.6298608779907227,1.8805429935455322,5.549999999999926
1.798211932182312,-0.46508312225341797,2.1977686882019043,5.559999999999926
1.8739346265792847,-0.6019144058227539,2.3633391857147217,5.569999999999926
1.8380974531173706,-0.6550445556640625,2.396388530731201,5.5799999999999255
1.8008533716201782,-0.725001335144043,2.4983396530151367,5.589999999999925
1.7767373323440552,-0.8666868209838867,2.6535000801086426,5.599999999999925
1.8614901304244995,-0.9269094467163086,2.6905035972595215,5.609999999999925
1.8544187545776367,-1.0300846099853516,2.8874261379241943,5.619999999999925
1.7215814590454102,-0.8652868270874023,2.636141777038574,5.629999999999924
1.5656163692474365,-0.5906410217285156,2.52994704246521,5.639999999999924
1.4487055540084839,-0.22054576873779297,2.6387009620666504,5.649999999999924
1.3277859687805176,0.2472095489501953,2.476241111755371,5.659999999999924
1.113825798034668,0.8410825729370117,2.1538949012756348,5.6699999999999235
0.8466278314590454,1.577519416809082,1.5888283252716064,5.679999999999923
0.6500030755996704,2.296083450317383,1.1011154651641846,5.689999999999923
0.46773195266723633,2.836653709411621,0.6641750335693359,5.699999999999923
0.5118139982223511,3.072821617126465,0.5629415512084961,5.709999999999923
0.5711588859558105,2.9548797607421875,0.8529360890388489,5.7199999999999225
0.8179656267166138,2.4571094512939453,1.4346064329147339,5.729999999999922
1.2145532369613647,1.7904844284057617,2.136861801147461,5.739999999999922
1.665772557258606,1.2948102951049805,2.6808338165283203,5.749999999999922
2.0979466438293457,1.2161359786987305,3.1483535766601562,5.759999999999922
2.4561214447021484,1.4344110488891602,3.546947479248047,5.769999999999921
2.675722122192383,1.8560943603515625,3.9178895950317383,5.779999999999921
2.6443557739257812,2.3087682723999023,4.098516941070557,5.789999999999921
2.445819616317749,2.7492876052856445,4.109984874725342,5.799999999999921
2.102100372314453,2.9383583068847656,3.9394235610961914,5.809999999999921
1.8053057193756104,2.90963077545166,3.854356050491333,5.81999999999992
1.4532527923583984,2.6752843856811523,3.8524346351623535,5.82999999999992
1.1108894348144531,2.319451332092285,3.8633086681365967,5.83999999999992
0.9217770099639893,1.9691448211669922,3.5842018127441406,5.84999999999992
0.8645938634872437,1.6386146545410156,3.163332939147949,5.8599999999999195
1.037619709968567,1.4949464797973633,2.2383060455322266,5.869999999999919
1.538696527481079,1.492182731628418,1.211986780166626,5.879999999999919
1.9192768335342407,1.7949209213256836,0.041939735412597656,5.889999999999919
2.223865509033203,2.1827163696289062,-1.1603559255599976,5.899999999999919
2.4155027866363525,2.600587844848633,-2.1843247413635254,5.909999999999918
2.5383124351501465,3.0152997970581055,-2.8212268352508545,5.919999999999918
2.697199583053589,3.307379722595215,-3.3391356468200684,5.929999999999918
3.012197732925415,3.295121192932129,-4.004237174987793,5.939999999999918
3.129232406616211,3.1413936614990234,-4.671360969543457,5.949999999999918
2.916419267654419,2.9013404846191406,-5.12136697769165,5.959999999999917
2.5231242179870605,2.668384552001953,-5.343741416931152,5.969999999999917
2.507909059524536,2.1771240234375,-5.466955661773682,5.979999999999917
2.428157329559326,1.8247547149658203,-5.549903869628906,5.989999999999917
1.9403176307678223,1.993697166442871,-5.925981044769287,5.9999999999999165
1.1816331148147583,2.1600046157836914,-5.902781963348389,6.009999999999916
0.22799909114837646,2.158871650695801,-5.757672309875488,6.019999999999916
-0.6552310585975647,2.1076278686523438,-5.7424635887146,6.029999999999916
-1.6069592237472534,2.2526168823242188,-5.58676290512085,6.039999999999916
-2.8147192001342773,2.4886655807495117,-5.370273590087891,6.0499999999999154
-3.72294282913208,2.882986068725586,-5.009239196777344,6.059999999999915
-4.085451126098633,3.151169776916504,-4.374240398406982,6.069999999999915
-3.907496452331543,3.4394330978393555,-3.484511137008667,6.079999999999915
-3.380300998687744,3.5802993774414062,-2.8581440448760986,6.089999999999915
-2.9444403648376465,3.5619678497314453,-2.6933979988098145,6.099999999999914
-2.3798651695251465,3.5304269790649414,-2.856755495071411,6.109999999999914
-1.8843700885772705,3.5907297134399414,-3.0616612434387207,6.119999999999914
-1.5791137218475342,3.745020866394043,-2.9347832202911377,6.129999999999914
-1.4444810152053833,3.9429025650024414,-2.413236618041992,6.1399999999999135
-1.4925663471221924,4.260836601257324,-1.7500362396240234,6.149999999999913
-1.85320246219635,4.57682991027832,-1.143579125404358,6.159999999999913
-2.1534152030944824,4.556158065795898,-0.7543395757675171,6.169999999999913
-2.4202401638031006,4.390626907348633,-0.3910924792289734,6.179999999999913
-2.5951178073883057,4.1858015060424805,0.24777859449386597,6.1899999999999125
-2.2331948280334473,3.8675060272216797,0.6385526657104492,6.199999999999912
-1.8199208974838257,3.1464099884033203,0.6475116014480591,6.209999999999912
-1.9426227807998657,2.522963523864746,0.5408694744110107,6.219999999999912
-1.8855491876602173,2.2628116607666016,0.5582857131958008,6.229999999999912
-1.3789889812469482,2.520933151245117,0.15677344799041748,6.239999999999911
-0.586502194404602,3.0762901306152344,-0.32632195949554443,6.249999999999911
-0.3181619644165039,3.055635452270508,-0.9346686601638794,6.259999999999911
-0.7890868186950684,2.536468505859375,-1.8174717426300049,6.269999999999911
-1.0727349519729614,1.878117561340332,-2.3341097831726074,6.2799999999999105
-1.143580436706543,1.3100309371948242,-2.6434121131896973,6.28999999999991
-1.1148765087127686,0.41344547271728516,-2.8444433212280273,6.29999999999991
-1.045006275177002,-0.07262706756591797,-3.2124252319335938,6.30999999999991
-0.5424553155899048,-0.7207794189453125,-3.2605502605438232,6.31999999999991
0.09699201583862305,-1.4691967964172363,-3.2460789680480957,6.3299999999999095
0.8112196922302246,-2.0698108673095703,-3.029949426651001,6.339999999999909
1.3141329288482666,-3.365607738494873,-1.3061256408691406,6.349999999999909
1.6527068614959717,-4.0265679359436035,-0.9326101541519165,6.359999999999909
1.991947889328003,-4.577106952667236,-1.2892695665359497,6.369999999999909
2.363497734069824,-5.359255790710449,-1.5012798309326172,6.379999999999908
2.4703075885772705,-5.6694536209106445,-1.4885708093643188,6.389999999999908
2.083815574645996,-5.730477333068848,-1.05263090133667,6.399999999999908
1.5132547616958618,-5.559250354766846,-0.5542120933532715,6.409999999999908
0.8549127578735352,-5.45699405670166,-0.2829420566558838,6.419999999999908
0.2583918571472168,-5.318138599395752,-0.1003882884979248,6.429999999999907
0.003878355026245117,-5.838274955749512,-0.16333246231079102,6.439999999999907
-0.693781316280365,-5.932742118835449,-0.40424656867980957,6.449999999999907
-1.1911568641662598,-5.912380695343018,-0.6213376522064209,6.459999999999907
-1.474679946899414,-5.831966400146484,-0.7845475673675537,6.4699999999999065
-1.6789941787719727,-5.696107864379883,-0.9209034442901611,6.479999999999906
-1.8929773569107056,-5.516713619232178,-1.0283710956573486,6.489999999999906
-1.9727609157562256,-5.427858352661133,-1.0447489023208618,6.499999999999906
-1.946866512298584,-5.257465362548828,-1.0319464206695557,6.509999999999906
-1.7961349487304688,-5.170842170715332,-1.0325244665145874,6.519999999999905
-1.661568522453308,-5.067714214324951,-1.1128098964691162,6.529999999999905
-1.5549290180206299,-4.704406261444092,-1.2339979410171509,6.539999999999905
-1.5674723386764526,-4.664766788482666,-1.235459566116333,6.549999999999905
-1.603621006011963,-4.853002071380615,-1.1691699028015137,6.559999999999905
-1.7186274528503418,-4.929493427276611,-1.0752278566360474,6.569999999999904
-1.8626575469970703,-4.956681728363037,-0.9531629085540771,6.579999999999904
-2.0719332695007324,-4.8988871574401855,-0.7619001865386963,6.589999999999904
-2.2077925205230713,-4.844778060913086,-0.5323441028594971,6.599999999999904
-2.3275833129882812,-4.799206733703613,-0.20937323570251465,6.6099999999999035
-2.5292909145355225,-4.723901748657227,0.12798094749450684,6.619999999999903
-2.5735554695129395,-4.618861198425293,0.4963490962982178,6.629999999999903
-2.587167263031006,-4.424300670623779,0.8860347270965576,6.639999999999903
-2.560330390930176,-4.267018795013428,1.2443218231201172,6.649999999999903
-2.4521896839141846,-4.161263465881348,1.5639803409576416,6.659999999999902
-2.2697041034698486,-4.025552749633789,1.7562830448150635,6.669999999999902
-1.950502634048462,-3.9099931716918945,1.8305752277374268,6.679999999999902
-1.70023775100708,-3.7066855430603027,1.7384366989135742,6.689999999999902
-1.4087140560150146,-3.4799580574035645,1.4766676425933838,6.699999999999902
-1.267275094985962,-3.1624484062194824,1.015408992767334,6.709999999999901
-1.132232427597046,-2.892500877380371,0.43944549560546875,6.719999999999901
-0.9915190935134888,-2.514341354370117,0.07058382034301758,6.729999999999901
-0.8830540180206299,-2.0111284255981445,-0.1547391414642334,6.739999999999901
-0.8998223543167114,-1.4041714668273926,-0.44399547576904297,6.7499999999999005
-1.0413262844085693,-0.7096185684204102,-1.3502788543701172,6.7599999999999
-1.3171385526657104,0.26227283477783203,-2.797945499420166,6.7699999999999
-1.4619677066802979,1.3350324630737305,-4.146615505218506,6.7799999999999
-1.5269103050231934,2.468088150024414,-4.280436992645264,6.7899999999999
-1.7690210342407227,3.5653038024902344,-2.8901925086975098,6.7999999999998995
-2.184593439102173,4.688048362731934,-0.14800524711608887,6.809999999999899
-2.4134020805358887,5.761229515075684,3.081080198287964,6.819999999999899
-2.411057472229004,6.925015449523926,6.052547454833984,6.829999999999899
-2.1682560443878174,8.309442520141602,8.621438026428223,6.839999999999899
-1.2237415313720703,9.525032043457031,10.571379661560059,6.849999999999898
-0.3344796895980835,10.618671417236328,11.624000549316406,6.859999999999898
0.4387398958206177,11.260194778442383,11.577566146850586,6.869999999999898
1.6693265438079834,11.017447471618652,10.69998550415039,6.879999999999898
2.93331241607666,9.267728805541992,9.592658996582031,6.8899999999998975
4.0290069580078125,6.642790794372559,8.320585250854492,6.899999999999897
4.560648441314697,2.620452880859375,7.105095386505127,6.909999999999897
4.650222301483154,-0.8678340911865234,5.476498603820801,6.919999999999897
4.538330078125,-3.4881463050842285,4.791441917419434,6.929999999999897
4.022736549377441,-5.533446788787842,4.4413628578186035,6.9399999999998965
3.183293104171753,-7.066537857055664,4.183206558227539,6.949999999999896
2.100764513015747,-8.262100219726562,3.266836643218994,6.959999999999896
1.5137995481491089,-8.526727676391602,1.7807295322418213,6.969999999999896
0.9953535795211792,-8.436790466308594,0.17822957038879395,6.979999999999896
0.7337663173675537,-8.24033260345459,-1.2511694431304932,6.989999999999895
0.4497717618942261,-7.570520401000977,-2.7912158966064453,6.999999999999895
-0.14966356754302979,-6.348235607147217,-3.8060755729675293,7.009999999999895
-0.9466599225997925,-4.7413434982299805,-4.16225528717041,7.019999999999895
-1.3980599641799927,-3.269321918487549,-4.48055362701416,7.0299999999998946
-1.4069814682006836,-1.6402997970581055,-5.107390403747559,7.039999999999894
-1.3414466381072998,1.6402311325073242,-5.77248477935791,7.049999999999894
-0.7491546869277954,5.921594619750977,-5.491968154907227,7.059999999999894
-0.43542593717575073,11.417949676513672,-3.99113130569458,7.069999999999894
-0.062448084354400635,17.949604034423828,-2.161241054534912,7.0799999999998935
0.3399463891983032,23.972003936767578,-0.27155566215515137,7.089999999999893
0.21877694129943848,30.05048370361328,-0.9257649183273315,7.099999999999893
-0.8625172972679138,33.29756164550781,-3.3360939025878906,7.109999999999893
-3.03332257270813,33.57928466796875,-6.858985900878906,7.119999999999893
-3.8538291454315186,24.98365020751953,-9.366114616394043,7.129999999999892
-3.388389825820923,14.89840316772461,-10.497583389282227,7.139999999999892
-2.4654641151428223,8.359075546264648,-9.341266632080078,7.149999999999892
-1.0853075981140137,3.0425453186035156,-6.250590801239014,7.159999999999892
-0.20536458492279053,-2.121610164642334,-2.443920612335205,7.169999999999892
0.39668017625808716,-6.807357311248779,0.29610323905944824,7.179999999999891
0.9127848148345947,-10.092535018920898,0.9364092350006104,7.189999999999891
1.3349387645721436,-12.894195556640625,-0.09509861469268799,7.199999999999891
1.796729326248169,-15.114507675170898,-1.3951804637908936,7.209999999999891
2.052563190460205,-16.06536865234375,-2.414390802383423,7.2199999999998905
-0.8368657827377319,-14.445022583007812,-2.692275285720825,7.22999999999989
-2.4983773231506348,-12.36208724975586,-1.6686055660247803,7.23999999999989
-2.291762113571167,-10.887247085571289,-1.2583670616149902,7.24999999999989
-1.2441922426223755,-10.235936164855957,-2.036715507507324,7.25999999999989
-0.4803653359413147,-9.463648796081543,-2.853944778442383,7.269999999999889
0.16116851568222046,-8.394269943237305,-3.832226276397705,7.279999999999889
0.990230917930603,-7.578645706176758,-4.45576286315918,7.289999999999889
1.9391117095947266,-6.337594985961914,-4.7534942626953125,7.299999999999889
3.467162847518921,-4.686044216156006,-4.886631488800049,7.309999999999889
5.162092685699463,-1.9067659378051758,-4.971065521240234,7.319999999999888
6.280545234680176,1.5240516662597656,-5.172248363494873,7.329999999999888
6.6348371505737305,4.495110511779785,-5.432397842407227,7.339999999999888
6.02138090133667,6.668744087219238,-5.559189319610596,7.349999999999888
5.103231430053711,8.101567268371582,-5.150173187255859,7.3599999999998875
3.7477779388427734,8.62009334564209,-4.357821464538574,7.369999999999887
1.1218786239624023,8.044395446777344,-4.029156684875488,7.379999999999887
-1.781057596206665,6.744867324829102,-3.629399299621582,7.389999999999887
-4.06683349609375,5.179378509521484,-2.977882146835327,7.399999999999887
-4.0545244216918945,3.08023738861084,-2.2033069133758545,7.4099999999998865
-2.9370665550231934,0.9282817840576172,-1.1175566911697388,7.419999999999886
-2.6940970420837402,-0.7721147537231445,-0.4068167209625244,7.429999999999886
-2.7977304458618164,-2.098233222961426,0.01887381076812744,7.439999999999886
-3.0908541679382324,-2.7949886322021484,0.30466675758361816,7.449999999999886
-3.3878073692321777,-3.071615219116211,0.6539030075073242,7.459999999999885
-3.4122068881988525,-3.261317253112793,0.9938839673995972,7.469999999999885
-3.107119083404541,-3.603412628173828,0.73710036277771,7.479999999999885
-2.611905097961426,-3.9469995498657227,-0.17463350296020508,7.489999999999885
-1.9274271726608276,-4.036309242248535,-1.1507585048675537,7.4999999999998845
-1.456955909729004,-3.824092388153076,-1.9460813999176025,7.509999999999884
-0.7925060391426086,-3.414065361022949,-1.98340904712677,7.519999999999884
-0.4578990936279297,-3.0651140213012695,-1.8160113096237183,7.529999999999884
-0.23045480251312256,-2.9711074829101562,-1.4996333122253418,7.539999999999884
0.06867527961730957,-2.811427116394043,-1.2072656154632568,7.5499999999998835
0.325793981552124,-2.4808225631713867,-1.016963243484497,7.559999999999883
0.5104241371154785,-2.1656951904296875,-0.8806906938552856,7.569999999999883
0.7309713363647461,-1.6744041442871094,-0.7627606391906738,7.579999999999883
1.0700228214263916,-1.3297576904296875,-0.5604559183120728,7.589999999999883
1.3373433351516724,-1.0046005249023438,-0.262192040681839,7.599999999999882
1.5488814115524292,-0.6748075485229492,0.035889238119125366,7.609999999999882
1.6897178888320923,-0.3378572463989258,0.33112984895706177,7.619999999999882
1.4960116147994995,-0.5124502182006836,0.5444686412811279,7.629999999999882
1.425082802772522,-0.6982765197753906,0.9255517721176147,7.6399999999998816
1.3128103017807007,-0.9266119003295898,1.132891058921814,7.649999999999881
1.1887273788452148,-1.2740468978881836,1.1187045574188232,7.659999999999881
0.9985076189041138,-1.8816308975219727,1.1514506340026855,7.669999999999881
0.9752939939498901,-2.361888885498047,1.1024367809295654,7.679999999999881
0.8300389051437378,-2.7915735244750977,1.0798046588897705,7.6899999999998805
0.7646998167037964,-3.01070499420166,1.2109448909759521,7.69999999999988
0.7269949913024902,-3.0482735633850098,1.15092933177948,7.70999999999988
0.7026301622390747,-3.0120763778686523,1.0523149967193604,7.71999999999988
0.7272709608078003,-2.887787342071533,0.9789562225341797,7.72999999999988
0.9154971837997437,-2.7113380432128906,1.0616023540496826,7.739999999999879
1.1714240312576294,-2.5258169174194336,1.155933141708374,7.749999999999879
1.2892117500305176,-2.319268226623535,1.1439076662063599,7.759999999999879
1.381157636642456,-2.125157356262207,1.3146798610687256,7.769999999999879
1.4042575359344482,-1.9721684455871582,1.395403504371643,7.779999999999879
1.346320629119873,-1.8506426811218262,1.3547759056091309,7.789999999999878
1.226230502128601,-1.717440128326416,1.2480295896530151,7.799999999999878
1.0414294004440308,-1.6537938117980957,1.2314149141311646,7.809999999999878
0.841702938079834,-1.5518674850463867,1.1909164190292358,7.819999999999878
0.628758430480957,-1.5047740936279297,1.1799472570419312,7.8299999999998775
0.5145621299743652,-1.3497352600097656,1.1748530864715576,7.839999999999877
0.4530656337738037,-1.113077163696289,1.1948554515838623,7.849999999999877
0.48448336124420166,-0.8116025924682617,1.2178937196731567,7.859999999999877
0.558707594871521,-0.5052604675292969,1.2121641635894775,7.869999999999877
0.5656394958496094,-0.26343250274658203,1.3446393013000488,7.879999999999876
0.6442399024963379,-0.0957193374633789,1.4948360919952393,7.889999999999876
0.6940432786941528,0.13889598846435547,1.4367972612380981,7.899999999999876
0.7274538278579712,0.33024024963378906,1.6274545192718506,7.909999999999876
0.7544240951538086,0.3659858703613281,1.8448827266693115,7.919999999999876
0.8516926765441895,0.36585044860839844,1.82136869430542,7.929999999999875
0.7799375057220459,0.4733161926269531,1.8008308410644531,7.939999999999875
0.5770472288131714,0.6571598052978516,1.5699279308319092,7.949999999999875
0.32817113399505615,0.8670177459716797,1.1563618183135986,7.959999999999875
0.22181713581085205,1.2772588729858398,0.5256962180137634,7.9699999999998745
0.16167521476745605,1.5673027038574219,0.34113889932632446,7.979999999999874
0.2500404119491577,1.6369848251342773,0.31124043464660645,7.989999999999874
0.30236804485321045,1.5846900939941406,0.46516889333724976,7.999999999999874
