AccX,AccY,AccZ,SampleRate
-0.04790908098220825,-13.945137023925781,-3.2337212562561035,0
0.6826659440994263,-12.846170425415039,-2.715407133102417,0.01
1.0764216184616089,-11.624114990234375,-2.9528517723083496,0.02
1.7050083875656128,-10.420990943908691,-3.9881186485290527,0.03
2.361379623413086,-9.050536155700684,-4.93013858795166,0.04
3.0316858291625977,-7.7780303955078125,-5.64579963684082,0.05
3.8756818771362305,-6.612237453460693,-5.7636637687683105,0.060000000000000005
4.6610026359558105,-4.241769313812256,-5.684283256530762,0.07
5.531083583831787,-0.8080310821533203,-5.704960823059082,0.08
5.864213943481445,2.8878297805786133,-5.608256816864014,0.09
4.682394981384277,6.189599990844727,-5.895745754241943,0.09999999999999999
2.1865739822387695,8.632850646972656,-5.355842590332031,0.10999999999999999
-0.4136314392089844,10.771703720092773,-3.9866292476654053,0.11999999999999998
-2.6644771099090576,12.186196327209473,-2.654012680053711,0.12999999999999998
-4.652310848236084,11.782630920410156,-1.9746061563491821,0.13999999999999999
-3.760402202606201,7.629704475402832,-1.6313835382461548,0.15
-1.535707950592041,3.4949846267700195,-0.9916689991950989,0.16
-1.110458254814148,0.4991750717163086,-0.4486299753189087,0.17
-1.3683422803878784,-1.4721956253051758,0.038870811462402344,0.18000000000000002
-1.795156717300415,-2.9278359413146973,0.31381547451019287,0.19000000000000003
-2.101907730102539,-4.105496883392334,0.32113444805145264,0.20000000000000004
-2.222761869430542,-4.855242729187012,-0.01392519474029541,0.21000000000000005
-2.065791130065918,-5.249762058258057,-0.3708134889602661,0.22000000000000006
-1.8699778318405151,-5.390257358551025,-0.6773308515548706,0.23000000000000007
-1.7547008991241455,-5.255879878997803,-0.6906098127365112,0.24000000000000007
-1.394283652305603,-5.057763576507568,-0.3845529556274414,0.25000000000000006
-0.9102210402488708,-4.777211666107178,-0.2187543511390686,0.26000000000000006
-0.45778560638427734,-4.457479000091553,-0.500801682472229,0.2700000000000001
0.03244125843048096,-4.148824214935303,-0.7736106514930725,0.2800000000000001
0.3469712734222412,-3.7244038581848145,-0.898881196975708,0.2900000000000001
0.7577178478240967,-3.3133134841918945,-0.7455316781997681,0.3000000000000001
1.0286945104599,-2.74314022064209,-0.5366330742835999,0.3100000000000001
1.3304176330566406,-2.2074403762817383,-0.23445485532283783,0.3200000000000001
1.5271857976913452,-1.5887346267700195,0.14127394556999207,0.3300000000000001
1.713258981704712,-1.0446815490722656,0.4990745484828949,0.34000000000000014
1.8298187255859375,-0.49607276916503906,0.9461522698402405,0.35000000000000014
1.9122300148010254,-0.24883079528808594,1.446293830871582,0.36000000000000015
1.9385229349136353,-0.13033103942871094,1.5401512384414673,0.37000000000000016
1.909119725227356,-0.2504158020019531,1.5583280324935913,0.38000000000000017
1.7386627197265625,-0.5275583267211914,1.4893490076065063,0.3900000000000002
1.46013605594635,-1.260594367980957,1.5111757516860962,0.4000000000000002
1.1928259134292603,-1.9590754508972168,1.4455426931381226,0.4100000000000002
0.9096307754516602,-2.520480155944824,1.4010968208312988,0.4200000000000002
0.7979079484939575,-2.875791072845459,1.2247565984725952,0.4300000000000002
0.6643012762069702,-3.171198844909668,1.020931363105774,0.4400000000000002
0.5881377458572388,-3.2753305435180664,0.9816088676452637,0.45000000000000023
0.5616457462310791,-3.130972385406494,0.8629747033119202,0.46000000000000024
0.6579383611679077,-2.8482918739318848,0.7842272520065308,0.47000000000000025
0.8950784206390381,-2.393887519836426,0.7301923036575317,0.48000000000000026
1.288842797279358,-1.8205194473266602,0.8002550601959229,0.49000000000000027
1.6278021335601807,-1.2574090957641602,0.944942831993103,0.5000000000000002
1.8875516653060913,-0.7690982818603516,1.1724412441253662,0.5100000000000002
2.0559794902801514,-0.3722858428955078,1.3667237758636475,0.5200000000000002
1.9849482774734497,-0.0740957260131836,1.5391452312469482,0.5300000000000002
1.7944923639297485,0.1590137481689453,1.658719778060913,0.5400000000000003
1.4202011823654175,0.3868560791015625,1.6059174537658691,0.5500000000000003
1.02998685836792,0.5376758575439453,1.503305196762085,0.5600000000000003
0.7243456840515137,0.6761417388916016,1.401771903038025,0.5700000000000003
0.4362764358520508,0.8405475616455078,1.3665311336517334,0.5800000000000003
0.20376276969909668,1.0404424667358398,1.4000378847122192,0.5900000000000003
0.10531497001647949,1.297297477722168,1.3513734340667725,0.6000000000000003
0.11161303520202637,1.6254043579101562,1.3449249267578125,0.6100000000000003
0.18393230438232422,1.936203956604004,1.1555984020233154,0.6200000000000003
0.2858054041862488,2.1819095611572266,0.7209734320640564,0.6300000000000003
0.4884580373764038,2.1451234817504883,0.4194043278694153,0.6400000000000003
0.7604969143867493,1.9745540618896484,0.33776307106018066,0.6500000000000004
1.1641533374786377,1.790022850036621,0.6853497624397278,0.6600000000000004
1.6205142736434937,1.6585760116577148,1.3459608554840088,0.6700000000000004
2.2231059074401855,1.5777921676635742,2.2032599449157715,0.6800000000000004
3.000965118408203,1.6384086608886719,2.9083046913146973,0.6900000000000004
3.60019588470459,1.9334220886230469,3.5423812866210938,0.7000000000000004
3.991710662841797,2.4338302612304688,3.9665799140930176,0.7100000000000004
4.189167022705078,3.031808853149414,4.080445766448975,0.7200000000000004
4.275864601135254,3.3519115447998047,3.9630329608917236,0.7300000000000004
4.090780735015869,3.4376211166381836,3.5999746322631836,0.7400000000000004
3.6004555225372314,3.2223567962646484,3.3787574768066406,0.7500000000000004
3.176208972930908,2.6993722915649414,3.309107780456543,0.7600000000000005
2.6516051292419434,1.9598941802978516,3.0420587062835693,0.7700000000000005
2.28151273727417,1.2432060241699219,2.7430338859558105,0.7800000000000005
2.3279290199279785,0.7809839248657227,2.069432258605957,0.7900000000000005
2.5307252407073975,0.43642330169677734,1.2428815364837646,0.8000000000000005
2.7007575035095215,0.26663970947265625,0.5872846841812134,0.8100000000000005
2.8998372554779053,0.2617769241333008,-0.10436862707138062,0.8200000000000005
2.7417871952056885,0.30451202392578125,-0.9260888695716858,0.8300000000000005
2.792811393737793,0.36853599548339844,-1.8806194067001343,0.8400000000000005
3.01434326171875,0.5422706604003906,-3.116442918777466,0.8500000000000005
3.2078185081481934,0.6702003479003906,-3.929969549179077,0.8600000000000005
3.0680832862854004,0.9246978759765625,-4.6972551345825195,0.8700000000000006
2.904419422149658,1.267547607421875,-5.165449142456055,0.8800000000000006
2.407165765762329,1.2923660278320312,-5.201829433441162,0.8900000000000006
3.531292200088501,1.6279850006103516,-6.301299095153809,0.9000000000000006
3.023179531097412,2.152174949645996,-6.585529804229736,0.9100000000000006
1.6295881271362305,2.7790422439575195,-6.351396560668945,0.9200000000000006
0.19984495639801025,3.578030586242676,-6.85584831237793,0.9300000000000006
-1.3535475730895996,4.255146026611328,-6.753891944885254,0.9400000000000006
-2.1835715770721436,4.980391502380371,-6.005748748779297,0.9500000000000006
-2.983036756515503,5.866022109985352,-5.206546783447266,0.9600000000000006
-3.5246055126190186,6.686906814575195,-4.48021936416626,0.9700000000000006
-4.180974960327148,6.941200256347656,-3.549577236175537,0.9800000000000006
-4.840343952178955,6.737581253051758,-2.8055965900421143,0.9900000000000007
-4.815630912780762,6.550081253051758,-1.920783519744873,1.0000000000000007
-4.241866111755371,6.36406135559082,-1.1727526187896729,1.0100000000000007
-3.7808449268341064,6.2248077392578125,-1.2071609497070312,1.0200000000000007
-3.5137674808502197,6.347477912902832,-1.408647060394287,1.0300000000000007
-3.3042726516723633,6.65761661529541,-1.4034099578857422,1.0400000000000007
-3.178683042526245,7.066503524780273,-1.5186821222305298,1.0500000000000007
-3.142333745956421,6.9859161376953125,-1.7272493839263916,1.0600000000000007
-2.9396181106567383,6.669927597045898,-1.985296607017517,1.0700000000000007
-2.6949310302734375,6.111518859863281,-1.964296817779541,1.0800000000000007
-2.520989418029785,5.32282829284668,-1.5702199935913086,1.0900000000000007
-2.6767354011535645,4.265890121459961,-1.1184420585632324,1.1000000000000008
-2.6046502590179443,3.5936708450317383,-0.7883986234664917,1.1100000000000008
-2.2826035022735596,3.030488967895508,-0.695131242275238,1.1200000000000008
-2.016981601715088,2.2269935607910156,-0.6228541731834412,1.1300000000000008
-1.8270381689071655,1.4295988082885742,-0.5398365259170532,1.1400000000000008
-1.6909489631652832,0.5306844711303711,-0.6189619302749634,1.1500000000000008
-1.4807254076004028,0.3025932312011719,-1.1030852794647217,1.1600000000000008
-1.858398199081421,-0.03252220153808594,-1.7249983549118042,1.1700000000000008
-1.9578018188476562,-0.5556154251098633,-2.22723388671875,1.1800000000000008
-1.601515531539917,-0.9820938110351562,-2.4809863567352295,1.1900000000000008
-1.2120198011398315,-1.4319686889648438,-2.7159652709960938,1.2000000000000008
-0.8094761371612549,-1.965407371520996,-2.989189386367798,1.2100000000000009
-0.4240795373916626,-2.745591163635254,-2.8420493602752686,1.2200000000000009
-0.09615707397460938,-3.8712644577026367,-1.8771172761917114,1.2300000000000009
0.25832581520080566,-4.54149055480957,-1.5074679851531982,1.2400000000000009
0.6749014854431152,-4.986364364624023,-1.5533641576766968,1.2500000000000009
1.105733871459961,-5.56243896484375,-1.5579676628112793,1.260000000000001
1.4814321994781494,-6.071018218994141,-1.5767682790756226,1.270000000000001
1.514610767364502,-6.416574954986572,-1.427664875984192,1.280000000000001
1.6522046327590942,-6.90561056137085,-1.0427324771881104,1.290000000000001
1.557886004447937,-7.133901596069336,-0.6053407192230225,1.300000000000001
1.67087984085083,-7.582408905029297,-0.09332656860351562,1.310000000000001
1.4616453647613525,-8.049529075622559,-0.18204879760742188,1.320000000000001
0.84281325340271,-8.032394409179688,-0.38666796684265137,1.330000000000001
0.10236728191375732,-7.813127517700195,-0.5693244934082031,1.340000000000001
-0.6200063228607178,-7.446450233459473,-0.7883188724517822,1.350000000000001
-1.1199207305908203,-7.061256408691406,-0.8722219467163086,1.360000000000001
-1.3863065242767334,-6.774528503417969,-0.7978003025054932,1.370000000000001
-1.4696741104125977,-6.392333030700684,-0.6663146018981934,1.380000000000001
-1.4662299156188965,-6.012724876403809,-0.502084493637085,1.390000000000001
-1.3832887411117554,-5.681005001068115,-0.4635131359100342,1.400000000000001
-1.3548132181167603,-5.471214294433594,-0.47176575660705566,1.410000000000001
-1.2346259355545044,-5.36175537109375,-0.44789862632751465,1.420000000000001
-1.0750199556350708,-5.235544204711914,-0.47054195404052734,1.430000000000001
-1.129445195198059,-5.119022369384766,-0.5633008480072021,1.440000000000001
-1.177700161933899,-5.141335487365723,-0.663837194442749,1.450000000000001
-1.2818918228149414,-5.125532627105713,-0.6497964859008789,1.460000000000001
-1.4181855916976929,-5.098112106323242,-0.5136826038360596,1.470000000000001
-1.6630443334579468,-5.018598556518555,-0.24085426330566406,1.480000000000001
-1.9325265884399414,-4.896775722503662,0.018312931060791016,1.490000000000001
-2.192901611328125,-4.785545349121094,0.3530123233795166,1.500000000000001
-2.4035935401916504,-4.670212268829346,0.5111174583435059,1.5100000000000011
-2.583853244781494,-4.428730487823486,0.6910579204559326,1.5200000000000011
-2.738389015197754,-4.180790424346924,0.8186399936676025,1.5300000000000011
-2.7211387157440186,-3.9239649772644043,0.8914039134979248,1.5400000000000011
-2.6301050186157227,-3.593564033508301,0.8204860687255859,1.5500000000000012
-2.5107250213623047,-3.18711519241333,0.7514100074768066,1.5600000000000012
-2.334083080291748,-2.6375656127929688,0.6404399871826172,1.5700000000000012
-1.9965656995773315,-2.052431583404541,0.40511441230773926,1.5800000000000012
-1.7200995683670044,-1.4479961395263672,-0.07838320732116699,1.5900000000000012
-1.5256603956222534,-0.7855749130249023,-0.5510122776031494,1.6000000000000012
-1.370175838470459,-0.019205093383789062,-1.0557352304458618,1.6100000000000012
-1.1624835729599,0.7176227569580078,-1.7478069067001343,1.6200000000000012
-0.9285359382629395,1.5377731323242188,-2.47357439994812,1.6300000000000012
-0.9009314775466919,2.424711227416992,-2.798722743988037,1.6400000000000012
-1.1331547498703003,3.5289745330810547,-2.1754696369171143,1.6500000000000012
-1.470646619796753,4.814002990722656,-0.4950535297393799,1.6600000000000013
-1.7875070571899414,6.133094787597656,1.8903639316558838,1.6700000000000013
-1.882911205291748,7.444919586181641,4.411017417907715,1.6800000000000013
-1.8433027267456055,8.813553810119629,6.664679050445557,1.6900000000000013
-1.5923840999603271,10.37409782409668,8.71551513671875,1.7000000000000013
-1.282017469406128,11.588780403137207,10.514498710632324,1.7100000000000013
-0.44276678562164307,12.2169828414917,11.645578384399414,1.7200000000000013
0.25043272972106934,12.22511100769043,11.486724853515625,1.7300000000000013
1.1471998691558838,11.260025024414062,10.24833869934082,1.7400000000000013
1.8530337810516357,8.732685089111328,8.773090362548828,1.7500000000000013
2.3038172721862793,5.040048599243164,7.285323143005371,1.7600000000000013
2.6023073196411133,1.2074823379516602,5.69126558303833,1.7700000000000014
2.5535268783569336,-2.0305190086364746,4.778919219970703,1.7800000000000014
2.334290027618408,-4.638470649719238,4.355637073516846,1.7900000000000014
2.0578746795654297,-6.733826637268066,4.121776103973389,1.8000000000000014
1.499077558517456,-8.237203598022461,3.0472846031188965,1.8100000000000014
0.8144457340240479,-8.942277908325195,1.8481690883636475,1.8200000000000014
0.30670714378356934,-8.951684951782227,0.7997469902038574,1.8300000000000014
-0.17733335494995117,-8.384469985961914,-0.6833484172821045,1.8400000000000014
-0.4787140488624573,-7.474277496337891,-2.464766502380371,1.8500000000000014
-0.9411206245422363,-6.0413594245910645,-4.025945663452148,1.8600000000000014
-1.3837889432907104,-4.32548713684082,-5.190017223358154,1.8700000000000014
-1.8097927570343018,-2.998828887939453,-6.5028276443481445,1.8800000000000014
-1.754765272140503,-0.8366127014160156,-7.744442939758301,1.8900000000000015
-1.1000092029571533,2.681394577026367,-8.77092170715332,1.9000000000000015
-0.1908549666404724,7.399879455566406,-8.794187545776367,1.9100000000000015
0.01938045024871826,13.368278503417969,-8.07853889465332,1.9200000000000015
0.24609708786010742,20.121448516845703,-6.204742431640625,1.9300000000000015
0.0633091926574707,25.893962860107422,-3.9225258827209473,1.9400000000000015
-0.8617255687713623,31.679706573486328,-2.7028234004974365,1.9500000000000015
-3.0165655612945557,35.95134353637695,-4.436953544616699,1.9600000000000015
-3.719400644302368,34.87789535522461,-6.338945388793945,1.9700000000000015
-3.946505069732666,25.114322662353516,-7.5031418800354,1.9800000000000015
-4.8641157150268555,15.475054740905762,-8.550557136535645,1.9900000000000015
-4.620140552520752,8.468941688537598,-7.574851989746094,2.0000000000000013
-3.377366065979004,3.051280975341797,-4.9494829177856445,2.010000000000001
-2.183222532272339,-1.3887710571289062,-1.6145256757736206,2.020000000000001
-1.2393592596054077,-5.391939640045166,1.835784673690796,2.0300000000000007
-1.0876176357269287,-9.569219589233398,3.565333127975464,2.0400000000000005
-0.2441408634185791,-12.836742401123047,2.020723581314087,2.0500000000000003
0.30550992488861084,-15.11561107635498,-0.7037738561630249,2.06
0.8723999261856079,-16.38005828857422,-2.78782057762146,2.07
1.126235008239746,-16.600248336791992,-3.288506507873535,2.0799999999999996
-0.5127641558647156,-15.80859375,-3.2496933937072754,2.0899999999999994
-0.339907169342041,-15.492445945739746,-2.556976318359375,2.099999999999999
0.2388678789138794,-14.579141616821289,-2.045058250427246,2.109999999999999
0.9771409034729004,-13.341375350952148,-1.985438585281372,2.1199999999999988
1.7000181674957275,-12.034346580505371,-2.6103556156158447,2.1299999999999986
2.4538683891296387,-10.646810531616211,-3.7736849784851074,2.1399999999999983
3.057621479034424,-9.24838924407959,-5.103812217712402,2.149999999999998
3.6577060222625732,-7.918173789978027,-5.803437232971191,2.159999999999998
4.469460487365723,-6.680013179779053,-5.579338073730469,2.1699999999999977
5.113509178161621,-5.026273727416992,-5.242255687713623,2.1799999999999975
5.986607551574707,-1.7277803421020508,-5.171133995056152,2.1899999999999973
6.573822498321533,2.547255516052246,-5.209170341491699,2.199999999999997
5.141317367553711,5.9463300704956055,-5.610084056854248,2.209999999999997
2.5947153568267822,8.450505256652832,-5.352572441101074,2.2199999999999966
-0.05559217929840088,10.640335083007812,-3.99721097946167,2.2299999999999964
-2.1576666831970215,11.852036476135254,-3.046206474304199,2.239999999999996
-4.01740837097168,12.068312644958496,-2.8810439109802246,2.249999999999996
-5.810988903045654,10.037932395935059,-3.0056934356689453,2.259999999999996
-5.141265392303467,5.662978172302246,-2.2370429039001465,2.2699999999999956
-3.7602741718292236,1.9202260971069336,-0.8783441185951233,2.2799999999999954
-2.817126750946045,-0.8904714584350586,0.23373281955718994,2.289999999999995
-2.56182861328125,-2.8137502670288086,0.9863307476043701,2.299999999999995
-2.660912036895752,-4.056638717651367,1.2900891304016113,2.3099999999999947
-2.634418487548828,-4.775764465332031,1.561815619468689,2.3199999999999945
-2.6101534366607666,-5.096550941467285,1.3049038648605347,2.3299999999999943
-2.56831955909729,-5.146481513977051,0.8981533050537109,2.339999999999994
-2.0409278869628906,-5.09131383895874,0.39199256896972656,2.349999999999994
-1.3349552154541016,-5.055981636047363,-0.6877061128616333,2.3599999999999937
-0.7725335359573364,-5.00011682510376,-1.3883304595947266,2.3699999999999934
-0.255199670791626,-4.821170806884766,-1.246809959411621,2.3799999999999932
-0.06991457939147949,-4.512256622314453,-0.9050978422164917,2.389999999999993
0.08165764808654785,-4.176264762878418,-0.4757857918739319,2.399999999999993
0.1168675422668457,-3.789069652557373,-0.31596845388412476,2.4099999999999926
0.23053061962127686,-3.4436612129211426,-0.3606000244617462,2.4199999999999924
0.34400105476379395,-2.8023757934570312,-0.5622708797454834,2.429999999999992
0.6015361547470093,-1.771967887878418,-0.49354952573776245,2.439999999999992
0.7717148065567017,-0.8212242126464844,-0.19391541182994843,2.4499999999999917
0.9489997625350952,-0.22716617584228516,0.09642748534679413,2.4599999999999915
1.1493072509765625,0.053833961486816406,0.3363896310329437,2.4699999999999913
1.1908029317855835,-0.08303070068359375,0.5574724078178406,2.479999999999991
1.223089575767517,-0.4987363815307617,0.7174621224403381,2.489999999999991
1.1045337915420532,-1.0808467864990234,0.6901609897613525,2.4999999999999907
0.7461463212966919,-1.7576918601989746,0.4562981426715851,2.5099999999999905
0.4006040096282959,-2.345285415649414,0.23745445907115936,2.5199999999999902
0.09542465209960938,-2.836808204650879,0.1331082582473755,2.52999999999999
0.0250474214553833,-3.1440629959106445,0.3052964508533478,2.53999999999999
0.0194857120513916,-3.2147111892700195,0.4830365478992462,2.5499999999999896
0.1215125322341919,-3.0537967681884766,0.7212268114089966,2.5599999999999894
0.30670666694641113,-2.7882957458496094,1.0241827964782715,2.569999999999989
0.5145756006240845,-2.270054340362549,1.1565707921981812,2.579999999999989
0.7800453901290894,-1.6547508239746094,1.3496222496032715,2.5899999999999888
1.0163211822509766,-0.9998769760131836,1.6361521482467651,2.5999999999999885
1.2541053295135498,-0.43694591522216797,1.9923019409179688,2.6099999999999883
1.5239901542663574,0.16811275482177734,2.32733154296875,2.619999999999988
1.6199162006378174,0.7411108016967773,2.440025568008423,2.629999999999988
1.6661862134933472,1.2605838775634766,2.462339401245117,2.6399999999999877
1.7416375875473022,1.6167049407958984,2.5651369094848633,2.6499999999999875
1.731096625328064,1.929351806640625,2.593777656555176,2.6599999999999873
1.7828584909439087,1.9475793838500977,2.6900534629821777,2.669999999999987
1.9487005472183228,2.2026138305664062,2.5617835521698,2.679999999999987
2.2615344524383545,2.40008544921875,2.5631988048553467,2.6899999999999866
2.6706466674804688,2.5854310989379883,2.404160737991333,2.6999999999999864
3.390808582305908,3.0166473388671875,1.9152467250823975,2.709999999999986
3.3390674591064453,3.2318668365478516,1.0615081787109375,2.719999999999986
3.0907933712005615,2.82269287109375,0.6690386533737183,2.7299999999999858
2.774848699569702,2.227764129638672,1.0195047855377197,2.7399999999999856
2.6936895847320557,1.5598440170288086,1.720003604888916,2.7499999999999853
2.9369397163391113,1.2159957885742188,2.5423684120178223,2.759999999999985
3.3738677501678467,0.9161090850830078,3.3637242317199707,2.769999999999985
4.028787136077881,0.7222938537597656,3.8810129165649414,2.7799999999999847
4.794075012207031,0.866246223449707,4.086748123168945,2.7899999999999845
5.384898662567139,1.33782958984375,4.113797664642334,2.7999999999999843
5.607563495635986,1.8830757141113281,4.24827241897583,2.809999999999984
5.208446025848389,2.3799972534179688,4.406375885009766,2.819999999999984
4.385934829711914,2.802445411682129,4.459163665771484,2.8299999999999836
3.312300205230713,2.9545421600341797,4.534106254577637,2.8399999999999834
2.4333841800689697,2.8150177001953125,4.21491813659668,2.849999999999983
1.8620107173919678,2.2789134979248047,3.609170913696289,2.859999999999983
1.459394931793213,1.7196722030639648,2.7001099586486816,2.869999999999983
1.4668089151382446,0.8930950164794922,1.5658048391342163,2.8799999999999826
1.5027084350585938,0.46631526947021484,0.4965589642524719,2.8899999999999824
1.7329648733139038,0.75457763671875,-0.232812762260437,2.899999999999982
1.5716030597686768,0.8988761901855469,-0.6338489055633545,2.909999999999982
1.1756622791290283,0.6173524856567383,-0.7524551153182983,2.9199999999999817
1.5506060123443604,1.0938959121704102,-1.5590159893035889,2.9299999999999815
0.8506472706794739,1.2850494384765625,-2.171525716781616,2.9399999999999813
0.3880675435066223,1.43011474609375,-2.376460313796997,2.949999999999981
1.284334421157837,2.33200740814209,-3.904390335083008,2.959999999999981
0.4986264109611511,2.9308671951293945,-3.800504207611084,2.9699999999999807
0.023509621620178223,3.3661584854125977,-3.889894723892212,2.9799999999999804
0.24314016103744507,3.329962730407715,-4.672946929931641,2.9899999999999802
1.0293407440185547,2.73238468170166,-5.285895824432373,2.99999999999998
1.4622576236724854,2.17702579498291,-5.945119380950928,3.00999999999998
1.4150029420852661,2.271442413330078,-6.305156707763672,3.0199999999999796
0.7542711496353149,2.6443614959716797,-6.107693672180176,3.0299999999999794
-0.11015176773071289,3.1640453338623047,-5.551880836486816,3.039999999999979
-0.6656156182289124,3.7681808471679688,-5.030994415283203,3.049999999999979
-1.0832713842391968,4.279661178588867,-4.7164306640625,3.0599999999999787
-1.5319401025772095,4.624484062194824,-4.47075891494751,3.0699999999999785
-1.931484580039978,4.836392402648926,-4.265688896179199,3.0799999999999783
-2.17987060546875,5.049444198608398,-4.158771991729736,3.089999999999978
-2.331280469894409,5.25653076171875,-3.7472786903381348,3.099999999999978
-2.2438316345214844,5.572419166564941,-2.91190767288208,3.1099999999999777
-1.9903907775878906,6.223910331726074,-2.428119659423828,3.1199999999999775
-1.772788166999817,7.062026023864746,-2.4096460342407227,3.1299999999999772
-1.6809903383255005,7.641580581665039,-2.422971487045288,3.139999999999977
-1.6694873571395874,7.852775573730469,-2.069863796234131,3.149999999999977
-1.9417535066604614,7.947000503540039,-1.6602540016174316,3.1599999999999766
-2.546416997909546,7.85746955871582,-1.3871326446533203,3.1699999999999764
-3.0375070571899414,7.414754867553711,-1.1182572841644287,3.179999999999976
-3.3399124145507812,6.65997314453125,-0.5635507702827454,3.189999999999976
-3.284783363342285,5.610194206237793,0.07141447067260742,3.1999999999999758
-3.1000723838806152,4.327786445617676,0.5983690023422241,3.2099999999999755
-2.9224863052368164,3.1212263107299805,1.0998754501342773,3.2199999999999753
-3.0925817489624023,2.136410713195801,1.1712169647216797,3.229999999999975
-2.9075264930725098,1.5718421936035156,0.7248008251190186,3.239999999999975
-2.755256175994873,0.7411231994628906,-0.054677605628967285,3.2499999999999747
-2.464559555053711,0.1825885772705078,-0.924623429775238,3.2599999999999745
-2.035595178604126,-0.2909069061279297,-1.6611989736557007,3.2699999999999743
-1.8226739168167114,-1.2390327453613281,-2.574967384338379,3.279999999999974
-1.4844871759414673,-1.6928043365478516,-3.432581901550293,3.289999999999974
-0.8614813089370728,-2.114678382873535,-3.9565510749816895,3.2999999999999736
-0.021172285079956055,-2.7420291900634766,-4.179690361022949,3.3099999999999734
0.3930943012237549,-3.419863700866699,-3.879284620285034,3.319999999999973
0.8178834915161133,-4.663064956665039,-2.5753138065338135,3.329999999999973
1.1871294975280762,-5.442988395690918,-2.1203222274780273,3.3399999999999728
1.7010142803192139,-5.985020637512207,-2.1136481761932373,3.3499999999999726
2.29276704788208,-6.739185333251953,-2.1243348121643066,3.3599999999999723
2.766523838043213,-7.468720436096191,-2.0708112716674805,3.369999999999972
2.751161575317383,-7.913232326507568,-1.751399040222168,3.379999999999972
2.599917411804199,-8.324223518371582,-1.3472718000411987,3.3899999999999717
2.009467124938965,-8.244909286499023,-0.9343054294586182,3.3999999999999715
1.4014711380004883,-8.239991188049316,-0.7250182628631592,3.4099999999999713
0.9444125890731812,-8.2946195602417,-0.8706607818603516,3.419999999999971
0.417144775390625,-8.527368545532227,-1.4116207361221313,3.429999999999971
-0.5785475373268127,-8.478121757507324,-1.7468527555465698,3.4399999999999706
-1.3965245485305786,-8.015915870666504,-1.5247076749801636,3.4499999999999704
-1.9443943500518799,-7.408893585205078,-1.4277914762496948,3.45999999999997
-1.9646716117858887,-6.895851135253906,-1.4144514799118042,3.46999999999997
-1.790703535079956,-6.459650039672852,-1.3061943054199219,3.47999999999997
-1.7288308143615723,-6.224554538726807,-1.296930193901062,3.4899999999999696
-1.640415906906128,-5.987433433532715,-1.385520100593567,3.4999999999999694
-1.7311556339263916,-5.789208889007568,-1.5926878452301025,3.509999999999969
-1.8034816980361938,-5.649051666259766,-1.8086259365081787,3.519999999999969
-1.827324628829956,-5.3228349685668945,-2.039203643798828,3.5299999999999687
-1.8236737251281738,-5.351126670837402,-2.000278949737549,3.5399999999999685
-1.8096985816955566,-5.319989204406738,-1.5528496503829956,3.5499999999999683
-2.0447607040405273,-5.404239177703857,-1.0503360033035278,3.559999999999968
-2.1681628227233887,-5.455533981323242,-0.5761103630065918,3.569999999999968
-2.162959098815918,-5.474094867706299,-0.13447022438049316,3.5799999999999677
-1.932448387145996,-5.187576770782471,0.3729264736175537,3.5899999999999674
-1.9022672176361084,-4.589163303375244,0.7904973030090332,3.5999999999999672
-2.0854313373565674,-4.245619773864746,0.969618558883667,3.609999999999967
-2.203928232192993,-4.093941688537598,1.0268285274505615,3.619999999999967
-2.0389609336853027,-3.77260160446167,1.1723730564117432,3.6299999999999666
-1.6505329608917236,-3.207364559173584,1.0416388511657715,3.6399999999999664
-1.3663136959075928,-2.6252341270446777,0.7266676425933838,3.649999999999966
-1.2238514423370361,-1.877507209777832,0.23064041137695312,3.659999999999966
-1.3317536115646362,-1.1745929718017578,0.0020744800567626953,3.6699999999999657
-1.6262086629867554,-0.60247802734375,-0.12744641304016113,3.6799999999999655
-1.7916918992996216,0.05210304260253906,-0.5450557470321655,3.6899999999999653
-1.9623174667358398,0.7441034317016602,-1.4901118278503418,3.699999999999965
-2.162959337234497,1.5195093154907227,-2.4892027378082275,3.709999999999965
-2.793224811553955,2.5030927658081055,-3.042125701904297,3.7199999999999647
-3.506533622741699,4.005423545837402,-2.4053781032562256,3.7299999999999645
-4.198025226593018,5.645479202270508,-0.5135862827301025,3.7399999999999642
-5.197634220123291,6.238883972167969,2.306471824645996,3.749999999999964
-5.20632791519165,7.657456398010254,5.421626091003418,3.759999999999964
-4.2726545333862305,9.386762619018555,7.958710670471191,3.7699999999999636
-3.159729242324829,10.693345069885254,9.862903594970703,3.7799999999999634
-2.2397449016571045,11.256219863891602,11.234646797180176,3.789999999999963
-0.21749281883239746,12.586349487304688,11.704521179199219,3.799999999999963
1.9368754625320435,12.592284202575684,11.75781536102295,3.8099999999999627
3.3463973999023438,10.57586669921875,10.304292678833008,3.8199999999999625
4.816957473754883,7.590237617492676,8.500732421875,3.8299999999999623
5.624972343444824,3.6008901596069336,7.252895355224609,3.839999999999962
6.01924991607666,-0.4320526123046875,6.390472412109375,3.849999999999962
5.889399528503418,-3.5442681312561035,5.156796455383301,3.8599999999999617
5.230933666229248,-5.866852760314941,2.7604641914367676,3.8699999999999615
3.8744759559631348,-7.430505275726318,0.7586722373962402,3.8799999999999613
2.1395678520202637,-7.824358940124512,0.06960439682006836,3.889999999999961
0.862411379814148,-7.393287181854248,-1.1579606533050537,3.899999999999961
0.27916407585144043,-6.660595893859863,-2.8219544887542725,3.9099999999999606
0.09514939785003662,-5.453733921051025,-3.802232503890991,3.9199999999999604
-0.42249739170074463,-3.749081611633301,-4.6229753494262695,3.92999999999996
-0.9031271934509277,-2.065919876098633,-5.61630392074585,3.93999999999996
-1.3036003112792969,0.5140581130981445,-6.334254741668701,3.9499999999999598
-1.2376724481582642,4.317276954650879,-6.770923614501953,3.9599999999999596
-0.8344039916992188,9.408459663391113,-6.394353866577148,3.9699999999999593
-0.6110928654670715,15.143695831298828,-6.10422420501709,3.979999999999959
-0.323855996131897,21.18988609313965,-4.586353302001953,3.989999999999959
-0.6788983941078186,25.803943634033203,-3.241577386856079,3.9999999999999587
-1.6842141151428223,29.62417984008789,-3.25238037109375,4.009999999999959
-2.8864450454711914,31.53449249267578,-4.938506126403809,4.019999999999959
-2.7846484184265137,28.888402938842773,-6.707585334777832,4.0299999999999585
-3.3332295417785645,19.800992965698242,-7.41070556640625,4.039999999999958
-4.382452011108398,11.498196601867676,-8.54319953918457,4.049999999999958
-4.3365583419799805,6.055570602416992,-7.810355186462402,4.059999999999958
-3.489682912826538,1.8214702606201172,-5.6606035232543945,4.069999999999958
-2.816805124282837,-2.316281795501709,-1.927895188331604,4.079999999999957
-1.8412261009216309,-6.241473197937012,1.3260135650634766,4.089999999999957
-1.5292203426361084,-9.430696487426758,2.0399699211120605,4.099999999999957
-0.9985181093215942,-12.157015800476074,1.1129977703094482,4.109999999999957
-0.3620143532752991,-14.463722229003906,-0.5281445980072021,4.119999999999957
-0.06828910112380981,-15.834653854370117,-2.222111940383911,4.129999999999956
-0.15687483549118042,-16.084489822387695,-2.8394081592559814,4.139999999999956
-1.3850643634796143,-15.606306076049805,-3.5550849437713623,4.149999999999956
-0.8451412916183472,-15.398823738098145,-3.5240635871887207,4.159999999999956
0.11466860771179199,-14.423206329345703,-2.895998239517212,4.1699999999999555
0.9724599123001099,-13.024188041687012,-2.737924098968506,4.179999999999955
1.723268747329712,-11.489021301269531,-2.878220558166504,4.189999999999955
2.5531129837036133,-9.871829986572266,-3.7183446884155273,4.199999999999955
3.2986867427825928,-8.419600486755371,-4.751187324523926,4.209999999999955
4.349923133850098,-6.962454319000244,-5.370555877685547,4.2199999999999545
5.398436546325684,-4.966719150543213,-5.399710655212402,4.229999999999954
6.335936546325684,-1.6240863800048828,-5.0487165451049805,4.239999999999954
6.382007122039795,2.709315299987793,-5.146778106689453,4.249999999999954
4.980987548828125,6.011408805847168,-5.137626647949219,4.259999999999954
2.4149274826049805,8.926056861877441,-5.2867584228515625,4.269999999999953
-0.20112591981887817,11.34445858001709,-4.348640441894531,4.279999999999953
-2.4823009967803955,12.90404224395752,-3.397879123687744,4.289999999999953
-4.532958507537842,13.278903007507324,-3.209822416305542,4.299999999999953
-5.749105453491211,10.33806037902832,-3.187941312789917,4.3099999999999525
-2.9283595085144043,5.438075065612793,-2.243314743041992,4.319999999999952
-1.47282874584198,1.493072509765625,-1.0323516130447388,4.329999999999952
-1.0258853435516357,-1.4650697708129883,0.18726950883865356,4.339999999999952
-1.143365740776062,-3.3518075942993164,0.9021915793418884,4.349999999999952
-1.6737678050994873,-4.553647518157959,1.3024508953094482,4.3599999999999515
-2.06650447845459,-5.437466621398926,1.4990427494049072,4.369999999999951
-2.1486434936523438,-5.960894584655762,1.131648302078247,4.379999999999951
-2.166072130203247,-6.1150665283203125,0.641514778137207,4.389999999999951
-2.1631855964660645,-6.034699440002441,0.37463831901550293,4.399999999999951
-1.85640549659729,-5.81614351272583,0.41153544187545776,4.40999999999995
-1.2727782726287842,-5.706293106079102,0.1645243763923645,4.41999999999995
-0.7318650484085083,-5.564160346984863,-0.206416055560112,4.42999999999995
-0.2689327001571655,-5.232069492340088,-0.5850827693939209,4.43999999999995
0.21194195747375488,-4.686403274536133,-0.7281233072280884,4.4499999999999496
0.7031525373458862,-4.149764060974121,-0.5688484311103821,4.459999999999949
1.0910362005233765,-3.495208263397217,-0.3682313561439514,4.469999999999949
1.409426212310791,-2.7344679832458496,-0.14790913462638855,4.479999999999949
1.722901701927185,-1.7548942565917969,0.2167767733335495,4.489999999999949
2.077061176300049,-0.6998739242553711,0.8030223846435547,4.4999999999999485
2.4170079231262207,0.10805511474609375,1.0272594690322876,4.509999999999948
2.7290921211242676,0.5881576538085938,1.284572958946228,4.519999999999948
3.010199785232544,0.6668243408203125,1.3860273361206055,4.529999999999948
3.1098599433898926,0.36603832244873047,1.4396337270736694,4.539999999999948
3.2043232917785645,-0.20874691009521484,1.4676724672317505,4.549999999999947
2.9987759590148926,-1.4041509628295898,1.4561972618103027,4.559999999999947
2.751729965209961,-2.5478343963623047,1.3890893459320068,4.569999999999947
2.29563570022583,-3.396277904510498,1.3048726320266724,4.579999999999947
1.9122140407562256,-4.002679824829102,1.3926465511322021,4.589999999999947
1.4390076398849487,-4.529940128326416,1.4340869188308716,4.599999999999946
1.069683313369751,-4.480740070343018,1.5462849140167236,4.609999999999946
0.8656370639801025,-4.176044940948486,1.7220202684402466,4.619999999999946
0.8663375377655029,-3.5920629501342773,1.9778754711151123,4.629999999999946
0.9936667680740356,-2.843698024749756,2.248572587966919,4.6399999999999455
1.2319308519363403,-2.009942054748535,2.4132444858551025,4.649999999999945
1.632834792137146,-1.2343559265136719,2.5925519466400146,4.659999999999945
2.0210461616516113,-0.5408248901367188,2.699111223220825,4.669999999999945
2.259775161743164,0.0706787109375,2.810725688934326,4.679999999999945
2.284494400024414,0.42559337615966797,2.835723876953125,4.689999999999944
2.0308051109313965,0.6269798278808594,2.852904796600342,4.699999999999944
1.70943284034729,0.7490768432617188,2.6109888553619385,4.709999999999944
1.320671796798706,0.8947076797485352,2.1675076484680176,4.719999999999944
1.092413306236267,0.9322261810302734,1.7572118043899536,4.729999999999944
1.348282814025879,1.1127548217773438,1.7059050798416138,4.739999999999943
1.2062231302261353,1.3334388732910156,1.3937443494796753,4.749999999999943
1.4811609983444214,1.7186927795410156,1.2161239385604858,4.759999999999943
2.339966297149658,1.6873807907104492,1.1120887994766235,4.769999999999943
3.046144723892212,1.9813528060913086,0.23442554473876953,4.7799999999999425
3.565004348754883,2.165163040161133,-0.28694164752960205,4.789999999999942
3.8839168548583984,2.382676124572754,0.07096946239471436,4.799999999999942
4.154248237609863,2.4881114959716797,0.900307297706604,4.809999999999942
4.166806221008301,2.2449169158935547,1.9176443815231323,4.819999999999942
4.179757118225098,1.988058090209961,2.407454252243042,4.8299999999999415
4.0810346603393555,1.791275978088379,2.7059032917022705,4.839999999999941
3.5506229400634766,1.852839469909668,3.072751998901367,4.849999999999941
2.8877973556518555,2.3780641555786133,3.395355701446533,4.859999999999941
2.376814842224121,2.78055477142334,3.383962869644165,4.869999999999941
1.5537245273590088,2.9435195922851562,2.8621022701263428,4.87999999999994
0.5910558700561523,2.8651695251464844,2.457848310470581,4.88999999999994
-0.04847031831741333,2.6990737915039062,2.1772210597991943,4.89999999999994
-0.17420297861099243,2.5936145782470703,1.733081340789795,4.90999999999994
0.2888273596763611,2.503066062927246,0.9666461944580078,4.9199999999999395
1.1523094177246094,1.9774036407470703,0.12047111988067627,4.929999999999939
1.641824722290039,1.5120019912719727,-0.3828146457672119,4.939999999999939
1.7375725507736206,1.2934083938598633,-0.852198600769043,4.949999999999939
1.790963053703308,1.2997770309448242,-1.5136791467666626,4.959999999999939
1.8736076354980469,1.387258529663086,-2.1705379486083984,4.9699999999999385
2.007230281829834,1.2330245971679688,-2.55184268951416,4.979999999999938
1.9506359100341797,1.0214614868164062,-3.3470630645751953,4.989999999999938
1.9246264696121216,1.0968055725097656,-4.237537860870361,4.999999999999938
1.7573702335357666,1.4467048645019531,-4.798831939697266,5.009999999999938
1.5918705463409424,1.927659034729004,-4.993478298187256,5.019999999999937
0.9913101196289062,2.1549434661865234,-4.996984004974365,5.029999999999937
0.8167989253997803,2.6526689529418945,-5.378626823425293,5.039999999999937
0.08300137519836426,3.026036262512207,-5.05243444442749,5.049999999999937
0.022123336791992188,3.9516334533691406,-5.300256729125977,5.0599999999999365
-0.3583870530128479,4.96494197845459,-5.51293420791626,5.069999999999936
-1.5942003726959229,5.483031272888184,-4.273055076599121,5.079999999999936
-2.22151517868042,5.8463544845581055,-3.396440029144287,5.089999999999936
-2.3810720443725586,6.186651229858398,-3.0575294494628906,5.099999999999936
-2.695474147796631,6.305743217468262,-2.9809060096740723,5.1099999999999355
-2.7962799072265625,6.328459739685059,-3.1637768745422363,5.119999999999935
-2.7336864471435547,6.403325080871582,-3.1315603256225586,5.129999999999935
-2.3448379039764404,6.451366424560547,-2.4253287315368652,5.139999999999935
-1.7527334690093994,6.890707969665527,-1.4949486255645752,5.149999999999935
-1.5401538610458374,7.001047134399414,-1.2978321313858032,5.159999999999934
-1.3911182880401611,7.112756729125977,-1.1344553232192993,5.169999999999934
-1.343459129333496,7.134557723999023,-0.752793550491333,5.179999999999934
-1.6957365274429321,7.00650691986084,-0.7164056301116943,5.189999999999934
-1.827488660812378,7.139819145202637,-0.9511953592300415,5.199999999999934
-2.1858365535736084,6.70179557800293,-1.2269059419631958,5.209999999999933
-2.503692388534546,5.903508186340332,-0.9810050129890442,5.219999999999933
-2.511561632156372,4.938995361328125,-0.45769035816192627,5.229999999999933
-2.137326240539551,3.935028076171875,-0.16984772682189941,5.239999999999933
-1.5644638538360596,2.8604259490966797,-0.2785940170288086,5.2499999999999325
-1.2407819032669067,1.8373489379882812,-0.4948744773864746,5.259999999999932
-1.2013529539108276,1.0263996124267578,-0.7451766729354858,5.269999999999932
-1.4286131858825684,-0.05515575408935547,-1.1068296432495117,5.279999999999932
-1.2595796585083008,-0.7016448974609375,-1.257023572921753,5.289999999999932
-0.9388285875320435,-1.4160776138305664,-1.713155746459961,5.299999999999931
-0.5553585290908813,-2.059983253479004,-2.2937660217285156,5.309999999999931
-0.011526346206665039,-2.712587356567383,-3.0068202018737793,5.319999999999931
0.2588331699371338,-3.154022693634033,-3.7238240242004395,5.329999999999931
0.6806578636169434,-3.616981029510498,-3.8389461040496826,5.339999999999931
1.302765130996704,-4.298139572143555,-3.5427231788635254,5.34999999999993
1.4163799285888672,-4.764954090118408,-3.0842247009277344,5.35999999999993
1.5461995601654053,-5.896045684814453,-1.605834722518921,5.36999999999993
1.5497498512268066,-6.475948810577393,-1.1166019439697266,5.37999999999993
1.3258209228515625,-6.653196334838867,-1.3581522703170776,5.3899999999999295
1.221227765083313,-6.748568534851074,-1.5817651748657227,5.399999999999929
1.2816731929779053,-6.936765670776367,-1.68976628780365,5.409999999999929
1.2537357807159424,-7.225096702575684,-1.5502994060516357,5.419999999999929
0.8611844778060913,-7.3887038230896,-1.248937726020813,5.429999999999929
0.3032599687576294,-7.214924335479736,-0.8255200386047363,5.4399999999999284
-0.06531167030334473,-7.136931419372559,-0.5951917171478271,5.449999999999928
-0.5713759660720825,-6.9464006423950195,-0.562518835067749,5.459999999999928
-1.1464471817016602,-6.839282035827637,-0.6296982765197754,5.469999999999928
-1.5254554748535156,-6.65507698059082,-0.7445638179779053,5.479999999999928
-1.7513203620910645,-6.843039512634277,-1.102142095565796,5.489999999999927
-1.8862417936325073,-6.967020511627197,-1.4216142892837524,5.499999999999927
-1.9564948081970215,-7.012494087219238,-1.6321923732757568,5.509999999999927
-1.9097483158111572,-6.812034606933594,-1.6531245708465576,5.519999999999927
-1.6819278001785278,-6.3514604568481445,-1.5184648036956787,5.5299999999999265
-1.5677382946014404,-5.755395889282227,-1.2906032800674438,5.539999999999926
-1.3423938751220703,-5.291714668273926,-1.1851632595062256,5.549999999999926
-1.13970148563385,-5.005629062652588,-0.9871034622192383,5.559999999999926
-1.1124186515808105,-4.7558369636535645,-0.813856840133667,5.569999999999926
-1.0209507942199707,-4.57096529006958,-0.634505033493042,5.5799999999999255
-1.0400662422180176,-4.419778347015381,-0.480316162109375,5.589999999999925
-1.081583023071289,-4.28775691986084,-0.3084747791290283,5.599999999999925
-1.284512996673584,-4.232131481170654,-0.1432044506072998,5.609999999999925
-1.4434101581573486,-3.982421398162842,-0.011260986328125,5.619999999999925
-1.4987691640853882,-3.663055896759033,0.1109001636505127,5.629999999999924
-1.532117486000061,-3.27651309967041,0.2113628387451172,5.639999999999924
-1.6178184747695923,-2.9041690826416016,0.35956668853759766,5.649999999999924
-1.5929169654846191,-2.5771117210388184,0.4215414524078369,5.659999999999924
-1.6770910024642944,-2.2162795066833496,0.27737927436828613,5.6699999999999235
-1.8400471210479736,-1.8670401573181152,0.01009368896484375,5.679999999999923
-1.9504085779190063,-1.4745569229125977,-0.21553421020507812,5.689999999999923
-2.2501113414764404,-1.022491455078125,-0.341935396194458,5.699999999999923
-2.599363327026367,-0.594670295715332,-0.3910086154937744,5.709999999999923
-2.9641647338867188,-0.11432266235351562,-0.6484637260437012,5.7199999999999225
-3.272209405899048,0.5316152572631836,-1.724306583404541,5.729999999999922
-3.70546817779541,1.3722295761108398,-2.5149145126342773,5.739999999999922
-3.9969091415405273,2.292616844177246,-2.520925998687744,5.749999999999922
-4.4664201736450195,3.275510787963867,-1.5425677299499512,5.759999999999922
-5.018712043762207,4.281891822814941,0.16684818267822266,5.769999999999921
-5.180484294891357,5.225074768066406,2.162482976913452,5.779999999999921
-4.896126747131348,6.054653167724609,3.993579864501953,5.789999999999921
-4.34540319442749,6.756073951721191,5.644769668579102,5.799999999999921
-3.457679510116577,7.328862190246582,7.124931812286377,5.809999999999921
-2.4450888633728027,7.655279159545898,8.460259437561035,5.81999999999992
-1.0901740789413452,7.754229545593262,9.595481872558594,5.82999999999992
0.19051063060760498,7.63308048248291,10.223007202148438,5.83999999999992
1.4341808557510376,6.761302947998047,10.266623497009277,5.84999999999992
2.698091506958008,4.886335372924805,9.543461799621582,5.8599999999999195
3.654806137084961,2.253480911254883,8.43403148651123,5.869999999999919
4.294189453125,-0.7486467361450195,7.000085353851318,5.879999999999919
4.666969299316406,-3.268159866333008,5.909273147583008,5.889999999999919
4.597432613372803,-5.071237087249756,5.368217468261719,5.899999999999919
4.099166393280029,-6.342625141143799,5.0007405281066895,5.909999999999918
3.2247307300567627,-7.192631721496582,4.596961975097656,5.919999999999918
2.5333194732666016,-7.53493595123291,2.977365732192993,5.929999999999918
1.904492735862732,-7.333203315734863,0.9684066772460938,5.939999999999918
1.2469183206558228,-7.151001930236816,-1.1371625661849976,5.949999999999918
0.3329322338104248,-6.749985694885254,-3.1461856365203857,5.959999999999917
-0.8574429750442505,-5.753827095031738,-5.033815383911133,5.969999999999917
-1.618607997894287,-4.179801940917969,-6.3148603439331055,5.979999999999917
-1.8586043119430542,-2.411343574523926,-7.281041145324707,5.989999999999917
-1.7980222702026367,-1.0247631072998047,-8.468941688537598,5.9999999999999165
-1.0933728218078613,1.4341249465942383,-9.274513244628906,6.009999999999916
0.40510308742523193,5.38184928894043,-9.289811134338379,6.019999999999916
1.3645715713500977,10.729059219360352,-8.527624130249023,6.029999999999916
2.2125906944274902,18.782630920410156,-6.490474700927734,6.039999999999916
2.5525527000427246,26.121353149414062,-2.665600061416626,6.0499999999999154
1.5200923681259155,31.888525009155273,-1.3201497793197632,6.059999999999915
-1.066805124282837,36.84321975708008,-2.555772542953491,6.069999999999915
-2.9021315574645996,36.07262420654297,-6.050815582275391,6.079999999999915
-4.570156574249268,27.172466278076172,-8.84321117401123,6.089999999999915
-5.520399570465088,16.85269546508789,-10.074782371520996,6.099999999999914
-5.349084854125977,10.34694766998291,-8.491520881652832,6.109999999999914
-4.60098123550415,5.180630683898926,-4.275213718414307,6.119999999999914
-3.6089894771575928,0.9976844787597656,1.2794065475463867,6.129999999999914
-2.6954987049102783,-2.6446967124938965,5.608889579772949,6.1399999999999135
-2.1136016845703125,-5.85183572769165,5.338085174560547,6.149999999999913
-1.3080247640609741,-8.77607250213623,2.75803279876709,6.159999999999913
-0.3936331272125244,-11.311662673950195,0.01966404914855957,6.169999999999913
0.8008127212524414,-13.336748123168945,-2.3253326416015625,6.179999999999913
2.1904726028442383,-14.266304016113281,-3.6822102069854736,6.1899999999999125
2.280367612838745,-14.025581359863281,-4.111750602722168,6.199999999999912
2.270136594772339,-13.582878112792969,-3.7419981956481934,6.209999999999912
2.61002779006958,-12.78668212890625,-3.2531685829162598,6.219999999999912
2.8299131393432617,-11.449880599975586,-2.9960227012634277,6.229999999999912
3.0110905170440674,-9.978853225708008,-2.915081024169922,6.239999999999911
2.7617697715759277,-8.35600471496582,-3.0988240242004395,6.249999999999911
2.5630509853363037,-7.031555652618408,-3.651228904724121,6.259999999999911
3.1221442222595215,-5.94769287109375,-4.156795978546143,6.269999999999911
3.512995719909668,-4.8405985832214355,-4.153472423553467,6.2799999999999105
3.3987739086151123,-3.3148183822631836,-4.23115873336792,6.28999999999991
2.684051513671875,-1.250227928161621,-4.633701324462891,6.29999999999991
1.4593119621276855,1.3250446319580078,-5.252224922180176,6.30999999999991
-0.48262107372283936,4.205946922302246,-5.549577713012695,6.31999999999991
-2.6029984951019287,6.663822174072266,-5.452156066894531,6.3299999999999095
-4.575491428375244,8.37241268157959,-5.108414173126221,6.339999999999909
-6.097900867462158,8.5679931640625,-4.394015312194824,6.349999999999909
-6.30542516708374,6.905866622924805,-3.7257604598999023,6.359999999999909
-4.564892768859863,4.459136962890625,-2.6001579761505127,6.369999999999909
-3.26651930809021,2.209050178527832,-2.019636392593384,6.379999999999908
-2.6070163249969482,0.12422847747802734,-1.3418898582458496,6.389999999999908
-2.2881484031677246,-1.4537744522094727,-0.7329925298690796,6.399999999999908
-2.3395333290100098,-2.7648868560791016,-0.28762876987457275,6.409999999999908
-2.489971160888672,-3.443864345550537,0.09441030025482178,6.419999999999908
-2.418030261993408,-3.9294118881225586,0.10932683944702148,6.429999999999907
-2.171147108078003,-4.367966175079346,-0.03421652317047119,6.439999999999907
-1.7699445486068726,-4.602228164672852,-0.2848203480243683,6.449999999999907
-1.373021125793457,-4.578090667724609,-0.5183865427970886,6.459999999999907
-1.246504306793213,-4.597737789154053,-0.9075811505317688,6.4699999999999065
-0.98738694190979,-4.5108842849731445,-1.0179113149642944,6.479999999999906
-0.47504448890686035,-4.107649326324463,-0.8438746333122253,6.489999999999906
-0.19552302360534668,-3.7591490745544434,-0.6517690420150757,6.499999999999906
0.06398582458496094,-3.549067974090576,-0.747649073600769,6.509999999999906
0.23765778541564941,-3.603712558746338,-1.1561082601547241,6.519999999999905
0.458293080329895,-2.949221134185791,-1.657448410987854,6.529999999999905
0.6983931064605713,-2.1384658813476562,-1.772895336151123,6.539999999999905
0.9389783143997192,-1.3958740234375,-1.3615994453430176,6.549999999999905
1.1682872772216797,-0.8548097610473633,-0.6959795355796814,6.559999999999905
1.5834931135177612,-0.45501708984375,0.2828216254711151,6.569999999999904
2.001577615737915,-0.47591114044189453,1.3163363933563232,6.579999999999904
2.1851930618286133,-0.7782039642333984,1.4482910633087158,6.589999999999904
2.3100781440734863,-1.1154489517211914,1.3474260568618774,6.599999999999904
2.274881362915039,-1.5189485549926758,1.043283224105835,6.6099999999999035
2.0140719413757324,-2.0796990394592285,0.7947861552238464,6.619999999999903
1.6416128873825073,-2.5203475952148438,0.4994327425956726,6.629999999999903
1.2427409887313843,-2.8556113243103027,0.30118274688720703,6.639999999999903
0.878098726272583,-3.037886619567871,0.21459168195724487,6.649999999999903
0.545275092124939,-3.0625228881835938,0.25865650177001953,6.659999999999902
0.3680344820022583,-2.919994831085205,0.301498144865036,6.669999999999902
0.2950706481933594,-2.6031460762023926,0.4550267159938812,6.679999999999902
0.43276095390319824,-2.2387242317199707,0.7305117249488831,6.689999999999902
0.636095404624939,-1.6735849380493164,1.074338674545288,6.699999999999902
0.8944152593612671,-1.087233543395996,1.5811338424682617,6.709999999999901
1.2238643169403076,-0.577763557434082,2.0992038249969482,6.719999999999901
1.5358333587646484,-0.2623720169067383,2.5057239532470703,6.729999999999901
1.8185653686523438,-0.009490013122558594,2.7903785705566406,6.739999999999901
1.9144046306610107,0.09955310821533203,2.974597692489624,6.7499999999999005
2.0151655673980713,0.1485300064086914,2.9557929039001465,6.7599999999999
2.0201125144958496,0.3957786560058594,2.7416605949401855,6.7699999999999
2.0945816040039062,0.20742511749267578,2.598649740219116,6.7799999999999
2.20512318611145,0.29656219482421875,2.1492230892181396,6.7899999999999
2.3492746353149414,0.4954957962036133,1.817399263381958,6.7999999999998995
2.335756540298462,0.6344442367553711,1.721351146697998,6.809999999999899
2.4157509803771973,1.0625953674316406,1.5452148914337158,6.819999999999899
2.3182289600372314,1.6527729034423828,1.220962643623352,6.829999999999899
2.1809840202331543,2.2755584716796875,0.8310378789901733,6.839999999999899
2.1211953163146973,2.3592872619628906,0.420124351978302,6.849999999999898
1.8702391386032104,2.3493528366088867,0.06433629989624023,6.859999999999898
1.5493624210357666,2.4588546752929688,0.0945127010345459,6.869999999999898
1.2947816848754883,2.0089330673217773,0.8285887241363525,6.879999999999898
1.360288143157959,1.5528478622436523,1.5647680759429932,6.8899999999998975
1.652717113494873,1.2722969055175781,2.193281650543213,6.899999999999897
2.2488455772399902,1.3438444137573242,2.7877416610717773,6.909999999999897
2.847205877304077,1.7502288818359375,3.486478567123413,6.919999999999897
3.3495163917541504,2.2734336853027344,4.057318687438965,6.929999999999897
3.5806612968444824,2.8583641052246094,4.376119136810303,6.9399999999998965
3.4782862663269043,3.296985626220703,4.527143478393555,6.949999999999896
3.2892353534698486,3.448354721069336,4.553435325622559,6.959999999999896
2.999821662902832,3.2816429138183594,4.454780578613281,6.969999999999896
2.7330620288848877,2.840226173400879,4.331859111785889,6.979999999999896
2.346170425415039,2.275082588195801,4.075090408325195,6.989999999999895
2.0398569107055664,1.8303766250610352,3.6566386222839355,6.999999999999895
2.1231400966644287,1.2978649139404297,2.9665913581848145,7.009999999999895
2.5945472717285156,0.9595766067504883,2.0809435844421387,7.019999999999895
3.001241683959961,0.8844985961914062,1.0993362665176392,7.0299999999998946
3.1359739303588867,0.9791488647460938,0.19857048988342285,7.039999999999894
3.2370786666870117,1.0879507064819336,-0.7460266351699829,7.049999999999894
3.1550004482269287,1.2467889785766602,-1.7277427911758423,7.059999999999894
3.1184821128845215,1.3384418487548828,-2.4578330516815186,7.069999999999894
2.940683364868164,1.401310920715332,-2.7763161659240723,7.0799999999998935
2.8558647632598877,1.4187450408935547,-3.420138359069824,7.089999999999893
2.3128154277801514,1.1230649948120117,-3.9016757011413574,7.099999999999893
2.739746570587158,1.427412986755371,-4.934869766235352,7.109999999999893
2.435309886932373,1.8334980010986328,-5.399656295776367,7.119999999999893
1.7158769369125366,1.8611078262329102,-4.693008899688721,7.129999999999892
1.2890437841415405,1.8814964294433594,-4.8184003829956055,7.139999999999892
0.7609306573867798,2.1838741302490234,-5.418056488037109,7.149999999999892
0.2947266101837158,2.7222185134887695,-5.847357273101807,7.159999999999892
-0.35067421197891235,3.1254758834838867,-5.999704837799072,7.169999999999892
-1.69783616065979,3.420572280883789,-5.691102027893066,7.179999999999891
-2.9827041625976562,3.6321115493774414,-5.255245685577393,7.189999999999891
-3.916445732116699,3.8706836700439453,-4.61218786239624,7.199999999999891
-4.252171516418457,4.145875930786133,-3.963439464569092,7.209999999999891
-4.201760292053223,4.416726112365723,-3.4982481002807617,7.2199999999998905
-4.0763702392578125,4.740564346313477,-3.0472614765167236,7.22999999999989
-3.9442238807678223,5.091215133666992,-2.4935293197631836,7.23999999999989
-3.545872211456299,5.28715705871582,-2.052133560180664,7.24999999999989
-3.246244430541992,5.6229352951049805,-1.8277853727340698,7.25999999999989
-2.769773006439209,6.239422798156738,-2.0452332496643066,7.269999999999889
-2.3933181762695312,6.6125288009643555,-2.0864429473876953,7.279999999999889
-2.182992458343506,6.66591739654541,-1.7160686254501343,7.289999999999889
-2.238959550857544,6.569710731506348,-1.4986763000488281,7.299999999999889
-2.38393497467041,6.285829544067383,-1.5350741147994995,7.309999999999889
-2.4575982093811035,5.745142936706543,-1.3776826858520508,7.319999999999888
-2.2420241832733154,4.931064605712891,-0.7913111448287964,7.329999999999888
-2.0816261768341064,4.035008430480957,-0.03090435266494751,7.339999999999888
-2.0770952701568604,3.181344985961914,0.3179500102996826,7.349999999999888
-2.153323173522949,2.3625946044921875,0.1336875557899475,7.3599999999998875
-1.9699149131774902,1.4805364608764648,-0.35225141048431396,7.369999999999887
-1.9185670614242554,0.28458595275878906,-0.5405628681182861,7.379999999999887
-1.6372095346450806,0.3345661163330078,-0.5187480449676514,7.389999999999887
-1.3220304250717163,0.6681575775146484,-0.7053419351577759,7.399999999999887
-0.9737310409545898,0.971653938293457,-0.8543360233306885,7.4099999999998865
-0.8564349412918091,0.7973842620849609,-1.2391561269760132,7.419999999999886
-0.9088644981384277,0.29150867462158203,-1.56571626663208,7.429999999999886
-1.161116361618042,-0.10060405731201172,-2.245468854904175,7.439999999999886
-1.141763687133789,-0.5324411392211914,-2.6242029666900635,7.449999999999886
-0.9414428472518921,-0.9923934936523438,-2.9617981910705566,7.459999999999885
-0.8694099187850952,-1.372854232788086,-3.542036294937134,7.469999999999885
-0.5194156169891357,-1.9110407829284668,-3.6279375553131104,7.479999999999885
0.00894474983215332,-2.652927875518799,-3.406435489654541,7.489999999999885
0.23358941078186035,-3.7140955924987793,-2.260030508041382,7.4999999999998845
0.5735664367675781,-4.896441459655762,-1.1274210214614868,7.509999999999884
0.7833280563354492,-5.499144554138184,-1.1130328178405762,7.519999999999884
0.9789437055587769,-5.905309677124023,-1.044228434562683,7.529999999999884
1.1832687854766846,-6.354201793670654,-0.7752752304077148,7.539999999999884
1.459730863571167,-6.706986427307129,-0.569439172744751,7.5499999999998835
1.2757021188735962,-6.73164176940918,-0.18509888648986816,7.559999999999883
0.9631853103637695,-6.722345352172852,-0.06814050674438477,7.569999999999883
0.4277193546295166,-6.812607765197754,0.11561465263366699,7.579999999999883
-0.12340521812438965,-6.77005672454834,0.2601642608642578,7.589999999999883
-0.6809685230255127,-6.6280317306518555,0.3023362159729004,7.599999999999882
-1.017939805984497,-6.496254920959473,0.04238128662109375,7.609999999999882
-1.19419527053833,-6.171228408813477,-0.16409969329833984,7.619999999999882
-1.3246737718582153,-5.894487380981445,-0.36104512214660645,7.629999999999882
-1.4142205715179443,-5.637090682983398,-0.5802690982818604,7.6399999999998816
-1.4441331624984741,-5.362972736358643,-0.6405072212219238,7.649999999999881
-1.4602513313293457,-5.129462718963623,-0.6545431613922119,7.659999999999881
-1.4628041982650757,-4.981932640075684,-0.6200845241546631,7.669999999999881
-1.459079623222351,-4.786539554595947,-0.5104336738586426,7.679999999999881
-1.3031456470489502,-4.598576545715332,-0.31551480293273926,7.6899999999998805
-1.2985527515411377,-4.4087042808532715,-0.2548983097076416,7.69999999999988
-1.3875890970230103,-4.315188407897949,-0.24414396286010742,7.70999999999988
-1.5795965194702148,-4.208084583282471,-0.17515802383422852,7.71999999999988
-1.8361916542053223,-4.142547607421875,2.269744873046875E-4,7.72999999999988
-2.0234317779541016,-4.087586879730225,0.17712640762329102,7.739999999999879
-2.217757225036621,-4.103064060211182,0.4203684329986572,7.749999999999879
-2.3470828533172607,-4.0527024269104,0.6655600070953369,7.759999999999879
-2.4398059844970703,-3.929457664489746,0.8960356712341309,7.769999999999879
-2.4141101837158203,-3.891270160675049,1.0592224597930908,7.779999999999879
-2.377408981323242,-3.7778306007385254,1.1958670616149902,7.789999999999878
-2.3562803268432617,-3.6846489906311035,1.197927474975586,7.799999999999878
-2.1786866188049316,-3.5062150955200195,1.1605136394500732,7.809999999999878
-2.108039379119873,-3.373879909515381,0.9610624313354492,7.819999999999878
-1.9199433326721191,-3.110306739807129,0.81414794921875,7.8299999999998775
-1.7774980068206787,-2.822981357574463,0.5970416069030762,7.839999999999877
-1.7622467279434204,-2.674252986907959,0.33295726776123047,7.849999999999877
-1.376070261001587,-2.2811074256896973,0.10680866241455078,7.859999999999877
-1.0969315767288208,-1.7726764678955078,-0.2718360424041748,7.869999999999877
-1.0670942068099976,-1.2896671295166016,-0.9345428943634033,7.879999999999876
-1.1823514699935913,-0.6423845291137695,-2.059363603591919,7.889999999999876
-1.6628074645996094,0.23443317413330078,-3.142700433731079,7.899999999999876
-2.408867120742798,1.0971956253051758,-3.7108774185180664,7.909999999999876
-2.962379217147827,2.0678319931030273,-3.1015777587890625,7.919999999999876
-3.5498971939086914,3.0547685623168945,-1.148047685623169,7.929999999999875
-4.100584983825684,4.29141902923584,1.7506892681121826,7.939999999999875
-4.323194980621338,5.602193832397461,4.695426940917969,7.949999999999875
-4.218116283416748,7.0078630447387695,7.401998519897461,7.959999999999875
-3.6186141967773438,8.526309967041016,9.880104064941406,7.9699999999998745
-2.577425718307495,9.904842376708984,11.83415412902832,7.979999999999874
-1.6086281538009644,11.17387580871582,12.842019081115723,7.989999999999874
