AccX,AccY,AccZ,SampleRate
-0.9280349016189575,-7.248767852783203,-0.590533971786499,0
-0.767845630645752,-7.086909294128418,-0.6439311504364014,0.01
-0.7515463829040527,-6.942047595977783,-0.7972416877746582,0.02
-0.9845161437988281,-6.534345626831055,-0.9644753932952881,0.03
-1.1108152866363525,-5.357586860656738,-1.0398938655853271,0.04
-1.2312358617782593,-4.553316593170166,-1.0661442279815674,0.05
-1.302562952041626,-4.173775672912598,-1.0355441570281982,0.060000000000000005
-1.3489065170288086,-3.9818859100341797,-0.8948814868927002,0.07
-1.430249810218811,-3.8795437812805176,-0.6962828636169434,0.08
-1.5639915466308594,-3.8833394050598145,-0.49689435958862305,0.09
-1.6928212642669678,-3.947638988494873,-0.3111231327056885,0.09999999999999999
-1.9488648176193237,-3.9167962074279785,-0.18697619438171387,0.10999999999999999
-2.11470103263855,-3.905571937561035,-0.019396543502807617,0.11999999999999998
-2.110478401184082,-3.9139881134033203,0.15782380104064941,0.12999999999999998
-2.18925142288208,-3.8439459800720215,0.38492894172668457,0.13999999999999999
-2.2886695861816406,-3.6093978881835938,0.46311473846435547,0.15
-2.3199806213378906,-3.344473361968994,0.5599288940429688,0.16
-2.355008125305176,-3.0395498275756836,0.5292680263519287,0.17
-2.180750846862793,-2.730316638946533,0.34667277336120605,0.18000000000000002
-2.041637897491455,-2.3423357009887695,0.07360577583312988,0.19000000000000003
-2.0477566719055176,-1.8298702239990234,-0.2313852310180664,0.20000000000000004
-2.0357518196105957,-1.0850906372070312,-0.6465373039245605,0.21000000000000005
-1.9674835205078125,-0.3110675811767578,-1.05620539188385,0.22000000000000006
-2.1375930309295654,0.4902229309082031,-1.4857652187347412,0.23000000000000007
-2.166330337524414,1.3598880767822266,-2.027634620666504,0.24000000000000007
-2.209658622741699,2.3100833892822266,-2.3958258628845215,0.25000000000000006
-2.222440242767334,3.3239431381225586,-2.1698215007781982,0.26000000000000006
-2.1928317546844482,4.396231651306152,-1.1580479145050049,0.2700000000000001
-1.8407623767852783,5.239459037780762,0.5516102313995361,0.2800000000000001
-1.6517789363861084,6.02314567565918,2.5321149826049805,0.2900000000000001
-1.4409550428390503,6.952212333679199,4.6228766441345215,0.3000000000000001
-1.1573641300201416,7.841615676879883,6.5773701667785645,0.3100000000000001
-0.6738135814666748,8.599907875061035,8.08941650390625,0.3200000000000001
-0.07424116134643555,9.267291069030762,9.037423133850098,0.3300000000000001
0.4446488618850708,9.547148704528809,9.256204605102539,0.34000000000000014
1.4080981016159058,8.634354591369629,8.708232879638672,0.35000000000000014
2.2227954864501953,6.702779769897461,7.570435523986816,0.36000000000000015
2.6356301307678223,3.8231678009033203,6.311328887939453,0.37000000000000016
3.011225938796997,0.6899700164794922,5.011446952819824,0.38000000000000017
3.1847429275512695,-1.8982281684875488,3.990556001663208,0.3900000000000002
2.9567151069641113,-3.8325343132019043,3.444563388824463,0.4000000000000002
2.4031224250793457,-5.032773017883301,3.3093421459198,0.4100000000000002
1.2614320516586304,-5.678981781005859,2.9918344020843506,0.4200000000000002
0.5964970588684082,-5.943150043487549,1.7471668720245361,0.4300000000000002
-0.034769415855407715,-5.882259845733643,0.6962020397186279,0.4400000000000002
-0.4972790479660034,-5.720802307128906,-0.09605026245117188,0.45000000000000023
-1.3470865488052368,-5.070919513702393,-0.8231096267700195,0.46000000000000024
-2.035132884979248,-4.19564962387085,-1.4508460760116577,0.47000000000000025
-2.5921077728271484,-3.1520767211914062,-1.9522523880004883,0.48000000000000026
-2.8315954208374023,-2.793416976928711,-2.187368154525757,0.49000000000000027
-2.7554984092712402,-0.895726203918457,-2.1625847816467285,0.5000000000000002
-2.3378078937530518,1.878891944885254,-2.760613441467285,0.5100000000000002
-2.1303515434265137,5.761497497558594,-3.7022032737731934,0.5200000000000002
-2.0562775135040283,10.143528938293457,-4.671639442443848,0.5300000000000002
-1.414520502090454,15.630660057067871,-5.399374485015869,0.5400000000000003
-0.30982106924057007,20.368213653564453,-5.990499019622803,0.5500000000000003
0.6574373245239258,24.03842544555664,-6.946241855621338,0.5600000000000003
0.3780297636985779,27.27994155883789,-7.5223708152771,0.5700000000000003
-0.15295875072479248,29.549091339111328,-7.126058578491211,0.5800000000000003
2.23710298538208,26.432315826416016,-7.987876892089844,0.5900000000000003
1.1117576360702515,18.65570068359375,-8.566670417785645,0.6000000000000003
-0.7277745008468628,10.779024124145508,-7.326204776763916,0.6100000000000003
-0.9954715967178345,4.843311309814453,-4.781583309173584,0.6200000000000003
-0.9038140177726746,0.060799598693847656,-2.469507932662964,0.6300000000000003
-1.0057497024536133,-3.529611110687256,-1.6276439428329468,0.6400000000000003
-0.7711173295974731,-7.732139587402344,-1.4151427745819092,0.6500000000000004
0.4135010838508606,-11.570643424987793,-1.640476942062378,0.6600000000000004
1.2226784229278564,-14.505538940429688,-1.8751769065856934,0.6700000000000004
1.5918712615966797,-16.311542510986328,-2.024611711502075,0.6800000000000004
0.15702438354492188,-15.81206226348877,-2.1370913982391357,0.6900000000000004
-2.894594192504883,-13.56108283996582,-1.9930537939071655,0.7000000000000004
-2.7308783531188965,-12.02302074432373,-1.9194481372833252,0.7100000000000004
-2.047124147415161,-11.095613479614258,-2.6302297115325928,0.7200000000000004
-1.326220154762268,-10.199856758117676,-3.4715988636016846,0.7300000000000004
-0.8802125453948975,-9.115421295166016,-4.6521315574646,0.7400000000000004
0.1628553867340088,-7.727398872375488,-5.548284530639648,0.7500000000000004
1.5787843465805054,-6.071352958679199,-5.858715057373047,0.7600000000000005
3.3430700302124023,-3.7435226440429688,-5.500551223754883,0.7700000000000005
5.310878753662109,-0.48200225830078125,-4.825901031494141,0.7800000000000005
6.839249134063721,3.289616584777832,-4.763493537902832,0.7900000000000005
7.513351917266846,5.84330940246582,-4.902167320251465,0.8000000000000005
7.0770182609558105,7.447312355041504,-5.016959190368652,0.8100000000000005
5.804752349853516,8.364203453063965,-4.694650173187256,0.8200000000000005
3.7993133068084717,8.186375617980957,-3.9347429275512695,0.8300000000000005
1.4457886219024658,7.178445816040039,-3.3543148040771484,0.8400000000000005
-1.4559963941574097,5.6168928146362305,-3.143674850463867,0.8500000000000005
-3.7830185890197754,3.557681083679199,-2.6440610885620117,0.8600000000000005
-5.323365211486816,1.6683645248413086,-1.962029218673706,0.8700000000000006
-5.10528039932251,-0.15474891662597656,-1.5213558673858643,0.8800000000000006
-4.389835357666016,-1.8073883056640625,-0.8304458260536194,0.8900000000000006
-3.890075445175171,-2.795034885406494,-0.5684986114501953,0.9000000000000006
-3.2720372676849365,-3.3768296241760254,-0.6315023899078369,0.9100000000000006
-3.0649476051330566,-3.6969728469848633,-0.823706328868866,0.9200000000000006
-3.136699676513672,-3.7968006134033203,-0.7866507172584534,0.9300000000000006
-2.891721248626709,-3.7577571868896484,-0.9159181118011475,0.9400000000000006
-2.532148838043213,-3.9215569496154785,-1.2963906526565552,0.9500000000000006
-1.835740566253662,-4.1086344718933105,-1.4327505826950073,0.9600000000000006
-0.7302219271659851,-4.003689765930176,-1.3673423528671265,0.9700000000000006
-0.27977263927459717,-3.265376567840576,-1.4057667255401611,0.9800000000000006
-0.10566341876983643,-2.6072182655334473,-0.9461119771003723,0.9900000000000007
0.24473083019256592,-2.3853344917297363,-0.9192783832550049,1.0000000000000007
1.1958591938018799,-2.2071170806884766,-1.2521635293960571,1.0100000000000007
1.8679664134979248,-1.969679832458496,-1.7645537853240967,1.0200000000000007
2.230128288269043,-1.8355236053466797,-2.1207475662231445,1.0300000000000007
2.3274612426757812,-1.6538066864013672,-1.8212604522705078,1.0400000000000007
2.2308859825134277,-1.4890527725219727,-1.2795491218566895,1.0500000000000007
2.016188144683838,-1.3865556716918945,-0.8227172493934631,1.0600000000000007
1.8193663358688354,-1.3318347930908203,-0.54598069190979,1.0700000000000007
1.7794216871261597,-1.2101678848266602,-0.3291155695915222,1.0800000000000007
1.6815719604492188,-1.4234514236450195,-0.12376409769058228,1.0900000000000007
1.6224390268325806,-1.6175756454467773,-0.051473259925842285,1.1000000000000008
1.4111979007720947,-1.6707215309143066,0.0458122193813324,1.1100000000000008
1.1892311573028564,-1.6691522598266602,0.1799936592578888,1.1200000000000008
0.8483237028121948,-1.6510353088378906,0.2813243269920349,1.1300000000000008
0.5886036157608032,-1.6496682167053223,0.4859895408153534,1.1400000000000008
0.5650839805603027,-1.8275327682495117,0.7220061421394348,1.1500000000000008
0.6869243383407593,-2.0194644927978516,0.7807682156562805,1.1600000000000008
0.8225671052932739,-2.225466728210449,0.7931939363479614,1.1700000000000008
0.9964437484741211,-2.333266258239746,0.8113882541656494,1.1800000000000008
1.0532327890396118,-2.3573861122131348,0.8418872952461243,1.1900000000000008
1.0863245725631714,-2.2955756187438965,0.9010180830955505,1.2000000000000008
1.0573502779006958,-2.1933746337890625,0.9671176671981812,1.2100000000000009
1.0761886835098267,-1.991044044494629,1.081053614616394,1.2200000000000009
1.0803900957107544,-1.7269272804260254,1.2818198204040527,1.2300000000000009
1.0912508964538574,-1.5444831848144531,1.5343170166015625,1.2400000000000009
1.1469252109527588,-1.4316072463989258,1.7241957187652588,1.2500000000000009
1.148990511894226,-1.144266128540039,1.8848786354064941,1.260000000000001
1.051551342010498,-0.8595218658447266,2.159775733947754,1.270000000000001
1.0603238344192505,-0.586944580078125,2.361888885498047,1.280000000000001
1.0890196561813354,-0.2930631637573242,2.459758996963501,1.290000000000001
1.1758393049240112,-0.08790397644042969,2.436537981033325,1.300000000000001
1.1485505104064941,0.04057121276855469,2.4068336486816406,1.310000000000001
1.107654333114624,0.12354373931884766,2.3825464248657227,1.320000000000001
1.125077486038208,0.16582679748535156,2.4977355003356934,1.330000000000001
1.3825411796569824,0.3180360794067383,2.3810229301452637,1.340000000000001
1.7339903116226196,0.5010528564453125,2.1349940299987793,1.350000000000001
2.090203285217285,0.7077207565307617,1.9533581733703613,1.360000000000001
2.2797768115997314,1.1724939346313477,1.577633261680603,1.370000000000001
2.23408579826355,1.6895217895507812,0.8875783085823059,1.380000000000001
2.123990058898926,2.1989660263061523,0.004160523414611816,1.390000000000001
1.747408390045166,2.6051979064941406,-0.657207727432251,1.400000000000001
1.2568961381912231,3.013639450073242,-0.6634148955345154,1.410000000000001
0.8320232629776001,3.027585029602051,0.19303852319717407,1.420000000000001
0.9979784488677979,2.3081398010253906,1.390785574913025,1.430000000000001
1.4637012481689453,1.3631219863891602,2.4264540672302246,1.440000000000001
2.2127456665039062,0.7187423706054688,3.3192334175109863,1.450000000000001
3.0030999183654785,0.6973457336425781,4.0997772216796875,1.460000000000001
3.685985565185547,1.1570587158203125,4.686368942260742,1.470000000000001
3.9360485076904297,1.8868036270141602,4.908565998077393,1.480000000000001
3.742155075073242,2.589602470397949,4.949656009674072,1.490000000000001
2.969330310821533,3.035848617553711,4.611067771911621,1.500000000000001
2.0497231483459473,3.0992164611816406,4.210633277893066,1.5100000000000011
1.0342252254486084,3.026595115661621,3.5302162170410156,1.5200000000000011
0.595435380935669,2.645939826965332,2.4625415802001953,1.5300000000000011
0.7642465829849243,2.335209846496582,1.5110843181610107,1.5400000000000011
1.3683781623840332,2.1179656982421875,0.7959108352661133,1.5500000000000012
1.8741252422332764,1.805140495300293,0.4621056914329529,1.5600000000000012
1.8666518926620483,1.8465499877929688,-0.1864767074584961,1.5700000000000012
1.7384124994277954,1.7588233947753906,-1.1564170122146606,1.5800000000000012
1.767384648323059,1.6065731048583984,-2.2445602416992188,1.5900000000000012
1.7430258989334106,1.647953987121582,-3.2298784255981445,1.6000000000000012
1.7737512588500977,1.8705530166625977,-3.9222640991210938,1.6100000000000012
1.5949997901916504,1.8722858428955078,-4.351058006286621,1.6200000000000012
1.2021328210830688,2.2313404083251953,-5.332251071929932,1.6300000000000012
0.7547702789306641,2.301921844482422,-4.301527500152588,1.6400000000000012
0.15866637229919434,2.5176095962524414,-3.564946174621582,1.6500000000000012
-0.19423365592956543,2.6727418899536133,-3.5413320064544678,1.6600000000000013
-0.3543124198913574,2.7006263732910156,-3.7540698051452637,1.6700000000000013
-0.431438684463501,2.692610740661621,-3.8926024436950684,1.6800000000000013
-0.7868217825889587,2.6754751205444336,-3.9373486042022705,1.6900000000000013
-1.3562067747116089,2.8314008712768555,-4.119946479797363,1.7000000000000013
-1.8580235242843628,3.081573486328125,-4.360185623168945,1.7100000000000013
-2.2903976440429688,3.4427900314331055,-4.325514793395996,1.7200000000000013
-2.4214866161346436,3.862420082092285,-4.006494045257568,1.7300000000000013
-2.404585838317871,4.249626159667969,-3.4773447513580322,1.7400000000000013
-2.006300210952759,4.350796699523926,-2.954040765762329,1.7500000000000013
-1.7741174697875977,4.496272087097168,-2.254371166229248,1.7600000000000013
-1.6914616823196411,4.523563385009766,-1.9020030498504639,1.7700000000000014
-1.6479206085205078,4.564364433288574,-1.9176576137542725,1.7800000000000014
-1.5591676235198975,4.673582077026367,-2.077815294265747,1.7900000000000014
-1.3887979984283447,5.0566864013671875,-2.2485666275024414,1.8000000000000014
-1.221817135810852,5.414203643798828,-1.8482418060302734,1.8100000000000014
-1.2510132789611816,5.588123321533203,-1.3359375,1.8200000000000014
-1.5409196615219116,5.683942794799805,-1.221489429473877,1.8300000000000014
-1.5195684432983398,5.68739128112793,-1.1268467903137207,1.8400000000000014
-1.419226050376892,5.282885551452637,-0.8697354793548584,1.8500000000000014
-1.3068206310272217,4.578311920166016,-0.5205827951431274,1.8600000000000014
-1.33038330078125,3.8702516555786133,-0.22166991233825684,1.8700000000000014
-1.4508544206619263,2.909853935241699,-0.3440864086151123,1.8800000000000014
-1.4576845169067383,2.505621910095215,-0.37859368324279785,1.8900000000000015
-1.4352608919143677,2.056736946105957,-0.3395789861679077,1.9000000000000015
-1.5517547130584717,1.486856460571289,-0.30367469787597656,1.9100000000000015
-1.5973082780838013,1.3103656768798828,-0.3571251630783081,1.9200000000000015
-1.56960129737854,1.0294179916381836,-0.5407224893569946,1.9300000000000015
-1.7964756488800049,0.5749607086181641,-0.7737752199172974,1.9400000000000015
-1.8346099853515625,-0.06238555908203125,-1.114232063293457,1.9500000000000015
-1.6379499435424805,-0.6628122329711914,-1.3291927576065063,1.9600000000000015
-1.4547350406646729,-1.3873090744018555,-1.1153337955474854,1.9700000000000015
-1.1266511678695679,-1.9060616493225098,-1.328782320022583,1.9800000000000015
-0.7416123151779175,-2.4873719215393066,-1.8280692100524902,1.9900000000000015
-0.3759775161743164,-3.0905399322509766,-2.1828701496124268,2.0000000000000013
0.1670680046081543,-3.916897773742676,-2.256133556365967,2.010000000000001
0.36321544647216797,-4.325744152069092,-2.118490219116211,2.020000000000001
0.6593518257141113,-4.674376010894775,-1.7396388053894043,2.0300000000000007
1.3950927257537842,-6.013555526733398,-0.6270453929901123,2.0400000000000005
1.6490983963012695,-6.82121467590332,-0.4679534435272217,2.0500000000000003
1.3226184844970703,-7.205033779144287,-0.3777141571044922,2.06
0.9675507545471191,-7.234335899353027,-0.33347129821777344,2.07
0.47747743129730225,-6.995054244995117,-0.35066795349121094,2.0799999999999996
-0.10154867172241211,-6.243067264556885,-0.35092639923095703,2.0899999999999994
-0.5147860050201416,-5.4833664894104,-0.3055119514465332,2.099999999999999
-0.8247424364089966,-4.804365634918213,-0.3415215015411377,2.109999999999999
-1.141425371170044,-4.260862350463867,-0.4235072135925293,2.1199999999999988
-1.2535250186920166,-4.187405586242676,-0.5736923217773438,2.1299999999999986
-1.352085828781128,-4.3585524559021,-0.6563267707824707,2.1399999999999983
-1.3944066762924194,-4.295585632324219,-0.7651817798614502,2.149999999999998
-1.4435105323791504,-3.9099955558776855,-0.9510395526885986,2.159999999999998
-1.3964444398880005,-3.5870604515075684,-1.1879079341888428,2.1699999999999977
-1.4515234231948853,-3.7666540145874023,-1.3659648895263672,2.1799999999999975
-1.093036413192749,-4.89329195022583,-1.166906714439392,2.1899999999999973
-0.7390362024307251,-5.933099269866943,-0.8515162467956543,2.199999999999997
-0.6979984045028687,-6.532302379608154,-0.6422607898712158,2.209999999999997
-0.7573434710502625,-6.897121429443359,-0.35924863815307617,2.2199999999999966
-1.010863184928894,-6.915504455566406,-0.0475468635559082,2.2299999999999964
-1.3370599746704102,-6.757622718811035,0.24762558937072754,2.239999999999996
-1.7484186887741089,-6.435580253601074,0.540724515914917,2.249999999999996
-2.139585494995117,-5.89210319519043,0.8745012283325195,2.259999999999996
-2.1671295166015625,-5.196885585784912,1.218451976776123,2.2699999999999956
-2.1138105392456055,-4.627538681030273,1.3552336692810059,2.2799999999999954
-2.087290048599243,-4.303431987762451,1.4380712509155273,2.289999999999995
-2.020063877105713,-4.092709064483643,1.4691238403320312,2.299999999999995
-1.8834128379821777,-3.7822513580322266,1.4121034145355225,2.3099999999999947
-1.6797245740890503,-3.4843525886535645,1.240166425704956,2.3199999999999945
-1.4664095640182495,-3.217972755432129,1.0199499130249023,2.3299999999999943
-1.1720941066741943,-2.9158544540405273,0.679124116897583,2.339999999999994
-0.9507155418395996,-2.472555160522461,0.3368680477142334,2.349999999999994
-0.764631450176239,-1.9572839736938477,0.07139158248901367,2.3599999999999937
-0.5951678156852722,-1.3028764724731445,-0.048864126205444336,2.3699999999999934
-0.39882487058639526,-0.7197303771972656,-0.0010802745819091797,2.3799999999999932
-0.38313090801239014,0.00299072265625,0.0336909294128418,2.389999999999993
-0.3296867609024048,0.7221317291259766,-0.016039371490478516,2.399999999999993
-0.2995469570159912,1.5172977447509766,-0.3495521545410156,2.4099999999999926
-0.3893604278564453,2.4177751541137695,-1.056049108505249,2.4199999999999924
-0.7772352695465088,3.2944860458374023,-1.390392541885376,2.429999999999992
-1.2703078985214233,4.311745643615723,-0.810711145401001,2.439999999999992
-1.8464655876159668,5.453771591186523,0.7461225986480713,2.4499999999999917
-2.393550395965576,6.656999588012695,2.865231513977051,2.4599999999999915
-2.7685325145721436,7.772130012512207,4.935141563415527,2.4699999999999913
-3.0320851802825928,8.714883804321289,6.683725357055664,2.479999999999991
-2.820931911468506,9.188215255737305,8.097193717956543,2.489999999999991
-2.315072536468506,9.466933250427246,9.19279956817627,2.4999999999999907
-1.694562315940857,9.483542442321777,10.000015258789062,2.5099999999999905
-0.5382872819900513,9.034613609313965,10.331868171691895,2.5199999999999902
0.7516992092132568,7.920197486877441,10.161543846130371,2.52999999999999
2.0055670738220215,5.960293769836426,9.501163482666016,2.53999999999999
3.2055349349975586,2.960831642150879,8.455217361450195,2.5499999999999896
4.023695945739746,-0.5264625549316406,7.624121189117432,2.5599999999999894
4.429844856262207,-3.63961124420166,5.982979774475098,2.569999999999989
4.633311748504639,-6.026897430419922,3.530726432800293,2.579999999999989
4.722697734832764,-7.681546211242676,1.2549877166748047,2.5899999999999888
3.637317657470703,-8.429317474365234,-0.3412163257598877,2.5999999999999885
2.1414973735809326,-8.095819473266602,-1.4938812255859375,2.6099999999999883
0.9971966743469238,-7.155117511749268,-2.589111089706421,2.619999999999988
0.07156777381896973,-5.887063026428223,-3.4005348682403564,2.629999999999988
-1.0829442739486694,-4.425704479217529,-4.1147003173828125,2.6399999999999877
-2.037966728210449,-3.0871920585632324,-4.609907150268555,2.6499999999999875
-2.414992332458496,-1.5277142524719238,-4.888058185577393,2.6599999999999873
-1.8947961330413818,1.2011547088623047,-5.592792510986328,2.669999999999987
-0.8312116861343384,5.391770362854004,-6.593021869659424,2.679999999999987
-0.09595274925231934,10.548985481262207,-7.6416449546813965,2.6899999999999866
0.9874246120452881,16.394004821777344,-7.559410095214844,2.6999999999999864
1.872826337814331,20.829769134521484,-7.021599769592285,2.709999999999986
1.8520691394805908,23.958528518676758,-6.894604206085205,2.719999999999986
0.8143328428268433,25.92914581298828,-7.644672870635986,2.7299999999999858
-0.6257656812667847,25.959638595581055,-7.947905540466309,2.7399999999999856
-0.6045335531234741,19.76125717163086,-7.352095603942871,2.7499999999999853
-2.068319320678711,11.804170608520508,-7.392663955688477,2.759999999999985
-2.6344285011291504,6.940240859985352,-6.646364688873291,2.769999999999985
-2.8620407581329346,3.4408769607543945,-5.076528549194336,2.7799999999999847
-2.5334343910217285,0.13171768188476562,-3.065467119216919,2.7899999999999845
-1.9187166690826416,-2.9020867347717285,-0.8805884122848511,2.7999999999999843
-1.956830382347107,-5.890275955200195,0.19437432289123535,2.809999999999984
-1.5415271520614624,-8.622504234313965,0.2489020824432373,2.819999999999984
-0.949849009513855,-10.770975112915039,-0.43870270252227783,2.8299999999999836
-0.7544803023338318,-12.086847305297852,-1.2054518461227417,2.8399999999999834
-1.6631114482879639,-12.113641738891602,-1.854250192642212,2.849999999999983
-1.9169020652770996,-11.539302825927734,-2.221705675125122,2.859999999999983
-0.9886037111282349,-11.080804824829102,-2.0980284214019775,2.869999999999983
0.31586021184921265,-10.675472259521484,-2.2926487922668457,2.8799999999999826
1.131978988647461,-9.89244270324707,-2.918187379837036,2.8899999999999824
1.5341646671295166,-8.889300346374512,-3.8106772899627686,2.899999999999982
2.1191186904907227,-7.631916046142578,-4.254364490509033,2.909999999999982
2.5971572399139404,-6.243575572967529,-4.147299766540527,2.9199999999999817
3.2576584815979004,-4.712281703948975,-4.121097564697266,2.9299999999999815
4.139167785644531,-3.182729721069336,-4.509675979614258,2.9399999999999813
4.874953746795654,-1.1413164138793945,-5.355720520019531,2.949999999999981
5.064541339874268,1.3843345642089844,-6.1554646492004395,2.959999999999981
4.329963207244873,3.7351160049438477,-6.854586601257324,2.9699999999999807
2.683523178100586,5.637211799621582,-6.713158130645752,2.9799999999999804
0.34480154514312744,7.034463882446289,-6.072343349456787,2.9899999999999802
-2.298168897628784,7.8300275802612305,-5.149716377258301,2.99999999999998
-4.598196029663086,7.797700881958008,-3.9819369316101074,3.00999999999998
-6.004376411437988,6.699446678161621,-2.694396495819092,3.0199999999999796
-3.765709400177002,3.727733612060547,-1.5617473125457764,3.0299999999999794
-1.4525185823440552,0.9094209671020508,-0.9260780215263367,3.039999999999979
-1.1265002489089966,-1.0074024200439453,-0.7639163732528687,3.049999999999979
-1.4819090366363525,-2.3730101585388184,-0.6803023815155029,3.0599999999999787
-2.0447120666503906,-3.4798660278320312,-0.5958694815635681,3.0699999999999785
-2.1276421546936035,-4.297410488128662,-0.6368004679679871,3.0799999999999783
-1.7943003177642822,-4.666265964508057,-0.5833848714828491,3.089999999999978
-1.7682647705078125,-4.812257289886475,-0.26093220710754395,3.099999999999978
-1.430939793586731,-4.9057488441467285,-0.28068530559539795,3.1099999999999777
-1.093119740486145,-4.80817985534668,-0.8000718355178833,3.1199999999999775
-1.017437219619751,-4.505491733551025,-1.2350866794586182,3.1299999999999772
-0.8718226552009583,-4.038848876953125,-1.5788676738739014,3.139999999999977
-0.8653112053871155,-3.100184917449951,-1.5860984325408936,3.149999999999977
-0.7951364517211914,-2.2924537658691406,-1.4476491212844849,3.1599999999999766
-0.3211289644241333,-1.5841073989868164,-1.1812100410461426,3.1699999999999764
0.3989773988723755,-0.8981971740722656,-0.9573954939842224,3.179999999999976
1.2203946113586426,-0.33971691131591797,-0.6839563250541687,3.189999999999976
1.8911564350128174,0.015054702758789062,-0.3584926128387451,3.1999999999999758
2.285832643508911,0.01824474334716797,-0.02280697226524353,3.2099999999999755
2.5279903411865234,0.04341602325439453,0.3415851593017578,3.2199999999999753
2.437875509262085,-0.11741256713867188,0.5087095499038696,3.229999999999975
2.2196202278137207,-0.43778038024902344,0.7573710680007935,3.239999999999975
2.00606107711792,-1.0252323150634766,0.6230335831642151,3.2499999999999747
1.7314373254776,-1.5233211517333984,0.7729783058166504,3.2599999999999745
1.4814934730529785,-2.346127986907959,0.7163968086242676,3.2699999999999743
1.178756594657898,-3.2280659675598145,0.6659078001976013,3.279999999999974
0.8215336799621582,-3.865473747253418,0.7174508571624756,3.289999999999974
0.6879259347915649,-4.351985931396484,0.7587014436721802,3.2999999999999736
0.6127527952194214,-4.403226852416992,0.700522243976593,3.3099999999999734
0.5861761569976807,-4.2396650314331055,0.697583019733429,3.319999999999973
0.5638384819030762,-3.7394018173217773,0.7704973220825195,3.329999999999973
0.7959268093109131,-3.0581436157226562,1.0165637731552124,3.3399999999999728
1.001083254814148,-2.3585362434387207,1.1886279582977295,3.3499999999999726
1.214114785194397,-1.7361536026000977,1.412409782409668,3.3599999999999723
1.5276786088943481,-1.119124412536621,1.8432430028915405,3.369999999999972
1.7140388488769531,-0.5839157104492188,2.2469749450683594,3.379999999999972
2.0056028366088867,-0.38631629943847656,2.480844736099243,3.3899999999999717
2.139263391494751,-0.1720285415649414,2.5622239112854004,3.3999999999999715
2.1464626789093018,-0.0582733154296875,2.6229147911071777,3.4099999999999713
2.156595468521118,0.1104440689086914,2.724867343902588,3.419999999999971
2.09071946144104,0.32924556732177734,2.8152542114257812,3.429999999999971
2.1333703994750977,0.4688844680786133,2.8892993927001953,3.4399999999999706
2.1339635848999023,0.6752243041992188,2.6403589248657227,3.4499999999999704
2.0018420219421387,0.7998428344726562,2.4939064979553223,3.45999999999997
1.978502869606018,1.093886375427246,2.5165019035339355,3.46999999999997
2.186018943786621,1.5188217163085938,2.5045809745788574,3.47999999999997
2.447445869445801,1.7181377410888672,2.3765969276428223,3.4899999999999696
2.657480478286743,2.0172910690307617,2.2163333892822266,3.4999999999999694
2.693300247192383,2.3565073013305664,2.1628265380859375,3.509999999999969
2.5627949237823486,2.8650522232055664,2.072662353515625,3.519999999999969
2.3310585021972656,3.354024887084961,1.8147392272949219,3.5299999999999687
2.0776448249816895,3.5103111267089844,1.4009959697723389,3.5399999999999685
1.8800643682479858,3.3677797317504883,0.9575717449188232,3.5499999999999683
1.874559998512268,2.953012466430664,0.6252579689025879,3.559999999999968
2.023425817489624,2.0273866653442383,1.1713614463806152,3.569999999999968
2.384918689727783,1.2444133758544922,1.6832777261734009,3.5799999999999677
2.7806994915008545,0.637425422668457,2.2605063915252686,3.5899999999999674
3.0706493854522705,0.3472890853881836,2.8488385677337646,3.5999999999999672
3.2603344917297363,0.4165611267089844,3.42169451713562,3.609999999999967
3.3815109729766846,0.7012109756469727,3.873258113861084,3.619999999999967
3.3106701374053955,1.129049301147461,4.073456764221191,3.6299999999999666
3.0149755477905273,1.5299673080444336,3.885152578353882,3.6399999999999664
2.525726318359375,1.8991241455078125,3.4203526973724365,3.649999999999966
1.83982515335083,2.1912031173706055,2.734334945678711,3.659999999999966
1.0162711143493652,2.444692611694336,2.0477468967437744,3.6699999999999657
0.44404900074005127,2.5880813598632812,1.555084228515625,3.6799999999999655
0.08498126268386841,2.4469194412231445,0.947563648223877,3.6899999999999653
-0.16756528615951538,2.1050291061401367,0.12382233142852783,3.699999999999965
-0.3438410758972168,1.6700334548950195,-0.8048204183578491,3.709999999999965
-0.09404098987579346,1.1944332122802734,-1.856374740600586,3.7199999999999647
0.02166527509689331,1.0369329452514648,-2.7273073196411133,3.7299999999999645
0.3380085825920105,0.9485330581665039,-3.594470739364624,3.7399999999999642
0.4185928702354431,0.8406877517700195,-4.272331237792969,3.749999999999964
0.4493091106414795,1.0839910507202148,-4.8393754959106445,3.759999999999964
0.2329995036125183,1.1734752655029297,-5.072939395904541,3.7699999999999636
0.2829367518424988,1.616419792175293,-4.899956703186035,3.7799999999999634
0.6083700656890869,1.8601856231689453,-4.976364612579346,3.789999999999963
0.8244096040725708,1.730656623840332,-5.15573263168335,3.799999999999963
0.835960865020752,1.809615135192871,-5.348312854766846,3.8099999999999627
0.5526822805404663,2.0875635147094727,-5.686006546020508,3.8199999999999625
-0.13711905479431152,2.4832773208618164,-5.917155742645264,3.8299999999999623
-0.9628024697303772,2.960953712463379,-6.109556198120117,3.839999999999962
-1.2448005676269531,3.334033966064453,-6.064781665802002,3.849999999999962
-1.3591265678405762,3.8203067779541016,-5.601813793182373,3.8599999999999617
-1.4988325834274292,4.2331037521362305,-5.152710437774658,3.8699999999999615
-1.7639364004135132,4.742358207702637,-4.680450916290283,3.8799999999999613
-2.251129627227783,5.154623985290527,-3.787323236465454,3.889999999999961
-2.1857285499572754,5.52010440826416,-3.1096701622009277,3.899999999999961
-2.3400323390960693,5.884313583374023,-2.6083524227142334,3.9099999999999606
-2.217642307281494,6.046250343322754,-2.1613118648529053,3.9199999999999604
-2.2364072799682617,6.190065383911133,-1.6232032775878906,3.92999999999996
-2.2637128829956055,6.466159820556641,-1.0028040409088135,3.93999999999996
-2.54328989982605,6.960321426391602,-0.5440288782119751,3.9499999999999598
-2.9660959243774414,7.167875289916992,-0.12225073575973511,3.9599999999999596
-3.2462563514709473,7.055804252624512,0.172174870967865,3.9699999999999593
-3.252561092376709,6.96628475189209,0.3928414583206177,3.979999999999959
-2.9707589149475098,6.461463928222656,0.5406918525695801,3.989999999999959
-2.570887327194214,5.541714668273926,0.6492908000946045,3.9999999999999587
-2.009342908859253,4.083094596862793,0.7056835889816284,4.009999999999959
-1.3929765224456787,2.683772087097168,0.7194377183914185,4.019999999999959
-1.1285877227783203,1.4105215072631836,0.5403057336807251,4.0299999999999585
-1.049044132232666,0.12980175018310547,0.3095904588699341,4.039999999999958
-0.8877536058425903,-0.4285621643066406,0.13601350784301758,4.049999999999958
-0.010880231857299805,0.3052845001220703,-0.34622371196746826,4.059999999999958
0.22712206840515137,0.47664928436279297,-1.0200916528701782,4.069999999999958
0.45232224464416504,0.009737014770507812,-1.6787316799163818,4.079999999999957
0.6711430549621582,-0.5232772827148438,-2.4882588386535645,4.089999999999957
1.0307788848876953,-1.4264020919799805,-2.5629498958587646,4.099999999999957
1.077199935913086,-2.235666275024414,-2.5144920349121094,4.109999999999957
1.036303997039795,-3.123782157897949,-2.432649850845337,4.119999999999957
1.1263322830200195,-3.959582805633545,-2.3400514125823975,4.129999999999956
1.6252593994140625,-4.691028594970703,-2.352613687515259,4.139999999999956
1.8613009452819824,-4.884383678436279,-2.27648663520813,4.149999999999956
0.16657650470733643,-5.780547142028809,-2.6303417682647705,4.159999999999956
0.8423488140106201,-6.884979724884033,-1.45847487449646,4.1699999999999555
2.4699556827545166,-7.407006740570068,-0.6549882888793945,4.179999999999955
2.5909717082977295,-7.857087135314941,-0.5130658149719238,4.189999999999955
1.854628086090088,-7.929102897644043,-0.272752046585083,4.199999999999955
0.8669798374176025,-7.618661880493164,-0.007517099380493164,4.209999999999955
-0.14569425582885742,-6.976375579833984,0.12482285499572754,4.2199999999999545
-0.9498186111450195,-6.152812957763672,0.0058019161224365234,4.229999999999954
-1.5462281703948975,-5.396088600158691,-0.271101713180542,4.239999999999954
-1.8562079668045044,-4.911056995391846,-0.5886123180389404,4.249999999999954
-2.011166572570801,-4.885948657989502,-0.7018473148345947,4.259999999999954
-2.1143054962158203,-4.856126308441162,-0.6260406970977783,4.269999999999953
-2.173339366912842,-4.589662075042725,-0.5573627948760986,4.279999999999953
-2.2559380531311035,-4.203880786895752,-0.634711742401123,4.289999999999953
-2.433493137359619,-3.8300070762634277,-1.0460981130599976,4.299999999999953
-2.3462913036346436,-4.603907108306885,-1.0859248638153076,4.3099999999999525
-2.0579090118408203,-5.4437947273254395,-0.7826316356658936,4.319999999999952
-1.8233028650283813,-6.034202575683594,-0.7461361885070801,4.329999999999952
-1.6608548164367676,-6.41615104675293,-0.7155909538269043,4.339999999999952
-1.5321458578109741,-6.5826897621154785,-0.7246050834655762,4.349999999999952
-1.636008858680725,-6.507716655731201,-0.7301208972930908,4.3599999999999515
-2.0471112728118896,-6.114998817443848,-0.5835597515106201,4.369999999999951
-2.1391332149505615,-5.362011432647705,-0.2318556308746338,4.379999999999951
-2.1203904151916504,-4.646289825439453,0.11723899841308594,4.389999999999951
-2.170337677001953,-4.238059997558594,0.42817187309265137,4.399999999999951
-2.1932642459869385,-4.024535655975342,0.7296819686889648,4.40999999999995
-2.165189743041992,-3.790235996246338,0.9810373783111572,4.41999999999995
-2.134340763092041,-3.494320869445801,1.0837161540985107,4.42999999999995
-2.0052413940429688,-3.2418837547302246,1.1306092739105225,4.43999999999995
-1.8812668323516846,-2.8890929222106934,1.0252373218536377,4.4499999999999496
-1.6142226457595825,-2.541013717651367,0.77400803565979,4.459999999999949
-1.536849021911621,-2.1521100997924805,0.5441904067993164,4.469999999999949
-1.546318531036377,-1.7223186492919922,0.37607240676879883,4.479999999999949
-1.5563814640045166,-1.1512031555175781,0.30277395248413086,4.489999999999949
-1.5092215538024902,-0.7257814407348633,0.19923853874206543,4.4999999999999485
-1.4595527648925781,-0.12281608581542969,-0.04575228691101074,4.509999999999948
-1.4353435039520264,0.5814952850341797,-0.7383905649185181,4.519999999999948
-1.481855869293213,1.3732614517211914,-1.6129684448242188,4.529999999999948
-1.6784216165542603,2.3868494033813477,-2.257878303527832,4.539999999999948
-2.093271255493164,3.7323484420776367,-2.1314055919647217,4.549999999999947
-2.615175724029541,5.265749931335449,-0.9149842262268066,4.559999999999947
-2.8158626556396484,6.651368141174316,1.2281887531280518,4.569999999999947
-2.505654811859131,7.6159162521362305,3.652287244796753,4.579999999999947
-2.18641996383667,8.606008529663086,6.1409406661987305,4.589999999999947
-1.4670649766921997,9.491119384765625,8.459704399108887,4.599999999999946
-0.48249542713165283,10.021342277526855,10.263798713684082,4.609999999999946
0.26915574073791504,10.648565292358398,11.010625839233398,4.619999999999946
1.6024956703186035,10.17464828491211,10.7844820022583,4.629999999999946
2.8187737464904785,8.670183181762695,9.774283409118652,4.6399999999999455
4.004404067993164,5.957213401794434,8.490581512451172,4.649999999999945
4.814821243286133,2.3341779708862305,7.16960334777832,4.659999999999945
5.320417404174805,-1.386962890625,5.743631362915039,4.669999999999945
5.565158843994141,-3.6108593940734863,4.971189498901367,4.679999999999945
5.5896782875061035,-6.154519081115723,4.604848384857178,4.689999999999944
4.625810623168945,-7.441318988800049,3.409147024154663,4.699999999999944
3.1900134086608887,-7.866201400756836,1.875866174697876,4.709999999999944
2.305086851119995,-7.950706481933594,0.7821013927459717,4.719999999999944
1.9080569744110107,-7.821258068084717,-0.20857107639312744,4.729999999999944
1.247895359992981,-7.439000606536865,-1.4954503774642944,4.739999999999943
0.5879533290863037,-6.5476250648498535,-2.5467042922973633,4.749999999999943
-0.18441200256347656,-5.271548271179199,-3.5116610527038574,4.759999999999943
-0.9595392346382141,-3.5942373275756836,-4.363630771636963,4.769999999999943
-1.6098954677581787,-2.140387535095215,-4.9962382316589355,4.7799999999999425
-1.203305959701538,0.11564350128173828,-5.644637107849121,4.789999999999942
-0.4375787377357483,4.064146041870117,-6.375393867492676,4.799999999999942
-0.14249074459075928,8.528595924377441,-7.126127243041992,4.809999999999942
0.23156917095184326,13.987136840820312,-7.152795791625977,4.819999999999942
0.910292387008667,19.148910522460938,-7.351932525634766,4.8299999999999415
0.6357238292694092,23.125396728515625,-7.201623916625977,4.839999999999941
-0.8073097467422485,27.503501892089844,-5.63910436630249,4.849999999999941
-2.8383517265319824,30.06525993347168,-4.931136131286621,4.859999999999941
-4.207505226135254,27.640426635742188,-6.405865669250488,4.869999999999941
-4.743215084075928,18.35324478149414,-7.453017711639404,4.87999999999994
-5.3024797439575195,11.365528106689453,-7.841414451599121,4.88999999999994
-5.108630180358887,6.157905578613281,-6.329864501953125,4.89999999999994
-3.9736294746398926,1.8444948196411133,-3.4129841327667236,4.90999999999994
-2.8238182067871094,-1.641800880432129,-0.5353759527206421,4.9199999999999395
-1.5944983959197998,-4.548785209655762,1.130983829498291,4.929999999999939
-1.0463048219680786,-7.036933898925781,0.8966776132583618,4.939999999999939
-0.1363236904144287,-9.723252296447754,-0.18224728107452393,4.949999999999939
0.9055014848709106,-12.136198997497559,-1.141239881515503,4.959999999999939
1.7182451486587524,-13.701977729797363,-1.7881184816360474,4.9699999999999385
0.9402967691421509,-13.543652534484863,-2.0562682151794434,4.979999999999938
-0.2563021183013916,-12.481440544128418,-2.1345155239105225,4.989999999999938
0.14094281196594238,-11.859271049499512,-1.8862495422363281,4.999999999999938
0.7234114408493042,-11.283679962158203,-2.3584415912628174,5.009999999999938
1.4252721071243286,-10.29723834991455,-3.298308849334717,5.019999999999937
2.061918020248413,-8.97152328491211,-3.876659393310547,5.029999999999937
2.3440608978271484,-7.724355697631836,-3.9210126399993896,5.039999999999937
2.4887747764587402,-6.477096080780029,-4.381486892700195,5.049999999999937
2.9923083782196045,-5.152938365936279,-4.551980972290039,5.0599999999999365
3.8101043701171875,-3.5310540199279785,-4.786583423614502,5.069999999999936
4.264492034912109,-0.9169940948486328,-5.072925090789795,5.079999999999936
3.872715473175049,1.8169364929199219,-5.496392726898193,5.089999999999936
2.5650105476379395,4.289680480957031,-6.080426216125488,5.099999999999936
1.0534073114395142,6.141240119934082,-5.256752014160156,5.1099999999999355
0.12211394309997559,7.463434219360352,-3.691476821899414,5.119999999999935
-1.7130528688430786,8.620811462402344,-3.2093353271484375,5.129999999999935
-3.2357964515686035,8.63606071472168,-2.401115655899048,5.139999999999935
-3.228125810623169,7.472574234008789,-1.1895819902420044,5.149999999999935
-1.790053367614746,4.84730339050293,-0.5413278937339783,5.159999999999934
-1.6126036643981934,2.369093894958496,-0.843479573726654,5.169999999999934
-2.676126718521118,0.20283985137939453,-0.6174143552780151,5.179999999999934
-3.861527919769287,-1.597055435180664,-0.001517176628112793,5.189999999999934
-4.304318428039551,-3.002845287322998,0.6556234955787659,5.199999999999934
-3.352825880050659,-4.252270698547363,0.6219372749328613,5.209999999999933
-3.1794700622558594,-5.106462001800537,0.21114736795425415,5.219999999999933
-3.884551525115967,-5.55642032623291,-0.2562215328216553,5.229999999999933
-3.276026725769043,-4.975224494934082,0.43009525537490845,5.239999999999933
-2.1518490314483643,-3.640817642211914,1.4265708923339844,5.2499999999999325
-1.2868313789367676,-2.91041898727417,0.8916159272193909,5.259999999999932
-0.0031527280807495117,-2.8716421127319336,-0.7104458212852478,5.269999999999932
1.1071913242340088,-3.0018491744995117,-2.6458747386932373,5.279999999999932
1.6403677463531494,-2.5637407302856445,-3.444746732711792,5.289999999999932
1.8027262687683105,-1.9593925476074219,-3.0766372680664062,5.299999999999931
1.5434516668319702,-1.430154800415039,-2.047635793685913,5.309999999999931
1.4458633661270142,-1.0617122650146484,-0.8477073907852173,5.319999999999931
1.6276944875717163,-0.820225715637207,0.015946239233016968,5.329999999999931
1.7383627891540527,-0.7388343811035156,0.4485514461994171,5.339999999999931
1.79404878616333,-1.1352338790893555,0.41939112544059753,5.34999999999993
1.7974575757980347,-1.4732780456542969,0.4680424928665161,5.35999999999993
1.8714851140975952,-1.980363368988037,0.5314831137657166,5.36999999999993
1.8454720973968506,-2.417417049407959,0.44060200452804565,5.37999999999993
1.6299275159835815,-2.6842756271362305,0.27696049213409424,5.3899999999999295
1.3023693561553955,-3.060995101928711,0.21294133365154266,5.399999999999929
0.9952255487442017,-3.3825302124023438,0.10216951370239258,5.409999999999929
0.819308876991272,-3.5438365936279297,0.0637379139661789,5.419999999999929
0.755644679069519,-3.5522913932800293,0.17850936949253082,5.429999999999929
0.7442938089370728,-3.4152064323425293,0.3717777729034424,5.4399999999999284
0.8135144710540771,-2.9987635612487793,0.5492228269577026,5.449999999999928
0.90802001953125,-2.5806522369384766,0.668781042098999,5.459999999999928
0.9290235042572021,-1.998199462890625,0.8103668689727783,5.469999999999928
0.8850642442703247,-1.5264759063720703,0.9367605447769165,5.479999999999928
0.8540019989013672,-1.009821891784668,1.116469383239746,5.489999999999927
1.0536648035049438,-0.8142414093017578,1.3110644817352295,5.499999999999927
1.1567343473434448,-0.7983322143554688,1.588587760925293,5.509999999999927
1.1514532566070557,-0.6940650939941406,1.6746258735656738,5.519999999999927
1.0400266647338867,-0.5373725891113281,1.6651825904846191,5.5299999999999265
1.0332279205322266,-0.3187589645385742,1.7068092823028564,5.539999999999926
1.0116426944732666,-0.08612537384033203,1.8692963123321533,5.549999999999926
0.9677332639694214,0.28247928619384766,2.0085344314575195,5.559999999999926
0.8819252252578735,0.8561992645263672,2.185720920562744,5.569999999999926
0.794338583946228,1.3574237823486328,2.409820318222046,5.5799999999999255
0.7353283166885376,1.762354850769043,2.6085927486419678,5.589999999999925
0.8292951583862305,1.996917724609375,2.578582525253296,5.599999999999925
0.9615744352340698,2.0851593017578125,2.3965201377868652,5.609999999999925
1.1726895570755005,2.024825096130371,2.1316277980804443,5.619999999999925
1.5295393466949463,2.0001611709594727,1.8124496936798096,5.629999999999924
1.7903331518173218,2.0709314346313477,1.5781056880950928,5.639999999999924
1.906422734260559,2.072235107421875,1.6280779838562012,5.649999999999924
1.9576995372772217,2.1119489669799805,1.4961986541748047,5.659999999999924
1.8872687816619873,2.125579833984375,1.0316179990768433,5.6699999999999235
1.8658372163772583,2.1395950317382812,0.7179746031761169,5.679999999999923
1.928525447845459,1.8863286972045898,0.8575502634048462,5.689999999999923
2.2074506282806396,1.6961297988891602,1.4559155702590942,5.699999999999923
2.4288439750671387,1.281966209411621,2.1384425163269043,5.709999999999923
2.519706964492798,0.8807792663574219,2.458359718322754,5.7199999999999225
2.682535171508789,0.43988990783691406,3.000321865081787,5.729999999999922
2.858736515045166,0.6215190887451172,3.3666582107543945,5.739999999999922
2.8792271614074707,1.1258459091186523,3.707366943359375,5.749999999999922
2.7226994037628174,1.7347774505615234,3.7848010063171387,5.759999999999922
2.4226315021514893,2.2568273544311523,3.610445022583008,5.769999999999921
1.8566510677337646,2.677769660949707,3.2128634452819824,5.779999999999921
1.321021556854248,2.940397262573242,2.6665244102478027,5.789999999999921
0.8774211406707764,2.9134531021118164,2.091273784637451,5.799999999999921
0.7239936590194702,2.757497787475586,1.4103904962539673,5.809999999999921
0.7915672659873962,2.3172311782836914,0.8847183585166931,5.81999999999992
1.01875901222229,1.8295774459838867,0.5350689888000488,5.82999999999992
1.2077162265777588,1.483250617980957,0.008156180381774902,5.83999999999992
1.198248267173767,1.2468461990356445,-0.8693662881851196,5.84999999999992
1.2440171241760254,1.0364999771118164,-1.6958413124084473,5.8599999999999195
1.2153332233428955,0.9575109481811523,-2.2316653728485107,5.869999999999919
1.183580994606018,0.8926868438720703,-2.6223156452178955,5.879999999999919
1.0771355628967285,0.7725934982299805,-2.859306573867798,5.889999999999919
0.8147138953208923,0.7645597457885742,-3.0425360202789307,5.899999999999919
0.2666410803794861,0.9592819213867188,-3.0853145122528076,5.909999999999918
-0.12102454900741577,1.2371063232421875,-2.8549342155456543,5.919999999999918
0.1414799690246582,1.3206615447998047,-3.0219900608062744,5.929999999999918
0.4268004894256592,1.2031888961791992,-3.4547038078308105,5.939999999999918
0.6176847219467163,0.9545660018920898,-3.941452980041504,5.949999999999918
0.575432538986206,0.8909797668457031,-4.226059436798096,5.959999999999917
0.1849757432937622,0.9719667434692383,-4.4321794509887695,5.969999999999917
-0.20559221506118774,1.369873046875,-4.610453128814697,5.979999999999917
-0.3650900721549988,1.625412940979004,-4.611727714538574,5.989999999999917
-0.3239935040473938,1.9754467010498047,-4.379038333892822,5.9999999999999165
-0.385118305683136,2.4628190994262695,-3.9855763912200928,6.009999999999916
-0.5044763684272766,2.910402297973633,-3.6269400119781494,6.019999999999916
-0.6807562112808228,3.33017635345459,-3.201223373413086,6.029999999999916
-1.04204261302948,3.724593162536621,-2.9456260204315186,6.039999999999916
-1.1524310111999512,3.9383182525634766,-2.6431829929351807,6.0499999999999154
-1.1636943817138672,4.095747947692871,-2.663785457611084,6.059999999999915
-1.1700868606567383,4.273251533508301,-2.6547932624816895,6.069999999999915
-1.1702086925506592,4.420312881469727,-2.299687623977661,6.079999999999915
-1.3691482543945312,4.625222206115723,-1.5832024812698364,6.089999999999915
-1.7861881256103516,4.916571617126465,-1.0004183053970337,6.099999999999914
-2.2234227657318115,5.01938533782959,-0.6615862846374512,6.109999999999914
-2.3222274780273438,5.407289505004883,-0.39892297983169556,6.119999999999914
-2.4780054092407227,5.39361572265625,-0.06561529636383057,6.129999999999914
-2.4231560230255127,5.449721336364746,0.29424095153808594,6.1399999999999135
-2.2778968811035156,5.046975135803223,0.52815842628479,6.149999999999913
-2.0622541904449463,4.044949531555176,0.58338463306427,6.159999999999913
-1.7986174821853638,3.4056921005249023,0.6321864128112793,6.169999999999913
-1.5067416429519653,2.9351110458374023,0.5094690322875977,6.179999999999913
-1.3111841678619385,2.4632158279418945,0.21525704860687256,6.1899999999999125
-1.2977125644683838,2.1932802200317383,-0.2629849910736084,6.199999999999912
-1.3695873022079468,1.6969919204711914,-0.8782060146331787,6.209999999999912
-1.4372648000717163,1.027297019958496,-1.5002498626708984,6.219999999999912
-1.3752737045288086,0.4163084030151367,-1.989042043685913,6.229999999999912
-1.1034811735153198,-0.10036754608154297,-2.2806501388549805,6.239999999999911
-0.7425256967544556,-0.59490966796875,-2.588075876235962,6.249999999999911
-0.45227205753326416,-1.1514263153076172,-2.632556200027466,6.259999999999911
-0.04620671272277832,-2.1125078201293945,-1.8446261882781982,6.269999999999911
0.3604695796966553,-2.6267242431640625,-1.598994255065918,6.2799999999999105
0.6668901443481445,-2.979248046875,-1.689058780670166,6.28999999999991
1.0741262435913086,-3.543668746948242,-1.620842456817627,6.29999999999991
1.3093652725219727,-4.200460910797119,-1.424851894378662,6.30999999999991
1.1741273403167725,-4.557472229003906,-1.189497947692871,6.31999999999991
0.7994015216827393,-4.63885498046875,-1.029615879058838,6.3299999999999095
0.4541494846343994,-4.626474380493164,-0.7823537588119507,6.339999999999909
0.060449838638305664,-4.656652927398682,-0.5837063789367676,6.349999999999909
-0.03313255310058594,-5.267270088195801,-0.3284776210784912,6.359999999999909
-0.4232708215713501,-5.383583068847656,-0.4409315586090088,6.369999999999909
-0.7901486754417419,-5.414779186248779,-0.5362250804901123,6.379999999999908
-1.2298338413238525,-5.36790657043457,-0.7178666591644287,6.389999999999908
-1.4720782041549683,-5.312193393707275,-0.8024251461029053,6.399999999999908
-1.5644440650939941,-5.264347553253174,-0.89337158203125,6.409999999999908
-1.6408823728561401,-5.219349384307861,-1.0202624797821045,6.419999999999908
-1.620007872581482,-5.315723419189453,-1.0880143642425537,6.429999999999907
-1.516115665435791,-5.488688945770264,-1.0945799350738525,6.439999999999907
-1.4201421737670898,-5.656825065612793,-1.1286360025405884,6.449999999999907
-1.4448128938674927,-5.710038661956787,-1.1951205730438232,6.459999999999907
-1.3652973175048828,-5.691558837890625,-1.16950523853302,6.4699999999999065
-1.3636274337768555,-5.671046257019043,-1.0009270906448364,6.479999999999906
-1.4927760362625122,-5.433547496795654,-0.7507920265197754,6.489999999999906
-1.4228312969207764,-5.039262771606445,-0.5669052600860596,6.499999999999906
-1.4166680574417114,-4.8591461181640625,-0.47766995429992676,6.509999999999906
-1.4862076044082642,-4.706369400024414,-0.43291759490966797,6.519999999999905
-1.5644975900650024,-4.590371608734131,-0.36587047576904297,6.529999999999905
-1.7091470956802368,-4.298161029815674,-0.2816498279571533,6.539999999999905
-1.7981388568878174,-4.100142478942871,-0.07029175758361816,6.549999999999905
-1.87461519241333,-3.83840274810791,0.18206477165222168,6.559999999999905
-1.6347037553787231,-3.6087098121643066,0.5017595291137695,6.569999999999904
-2.1414308547973633,-3.2457633018493652,0.5248727798461914,6.579999999999904
-2.1623992919921875,-2.9743852615356445,0.5981607437133789,6.589999999999904
-2.030518054962158,-2.736936092376709,0.6087496280670166,6.599999999999904
-1.9731500148773193,-2.425563335418701,0.5297574996948242,6.6099999999999035
-1.9566309452056885,-2.0235257148742676,0.5020537376403809,6.619999999999903
-2.002187728881836,-1.631307601928711,0.4535658359527588,6.629999999999903
-2.0568015575408936,-1.2560596466064453,0.5491452217102051,6.639999999999903
-2.1559371948242188,-0.8020896911621094,0.6257650852203369,6.649999999999903
-1.9904435873031616,-0.5013103485107422,0.6276938915252686,6.659999999999902
-1.7608555555343628,0.017355918884277344,0.48435425758361816,6.669999999999902
-1.5599546432495117,0.6394243240356445,0.030869245529174805,6.679999999999902
-1.442862868309021,1.5088634490966797,-0.4957456588745117,6.689999999999902
-1.3646936416625977,2.5350122451782227,-0.853313684463501,6.699999999999902
-1.1059300899505615,3.5003128051757812,-0.8084812164306641,6.709999999999901
-1.0904645919799805,4.359234809875488,-0.04765582084655762,6.719999999999901
-1.2996852397918701,5.190356254577637,1.4328997135162354,6.729999999999901
-1.4255363941192627,5.914104461669922,3.425030469894409,6.739999999999901
-1.4283866882324219,6.663782119750977,5.615863800048828,6.7499999999999005
-0.8472172021865845,7.156485557556152,7.613600730895996,6.7599999999999
-0.2727172374725342,7.449023246765137,9.098740577697754,6.7699999999999
0.3725384473800659,7.411870002746582,9.904155731201172,6.7799999999999
1.2745758295059204,6.810606002807617,9.804316520690918,6.7899999999999
2.2709741592407227,5.667304039001465,8.8997163772583,6.7999999999998995
2.877021074295044,4.416029930114746,7.79844856262207,6.809999999999899
3.713810443878174,2.345017433166504,6.90876579284668,6.819999999999899
4.318999290466309,-0.18883991241455078,6.348717212677002,6.829999999999899
4.645010948181152,-2.5609889030456543,5.846388816833496,6.839999999999899
4.810705661773682,-4.597134113311768,5.307661056518555,6.849999999999898
4.6537933349609375,-6.268608093261719,4.094956398010254,6.859999999999898
4.082078456878662,-7.378908157348633,2.0634453296661377,6.869999999999898
3.1094775199890137,-7.542917251586914,0.4613511562347412,6.879999999999898
2.2160141468048096,-7.107900619506836,-0.6569257974624634,6.8899999999998975
1.4883577823638916,-6.385126113891602,-1.4738322496414185,6.899999999999897
0.695277214050293,-5.341207981109619,-2.0639755725860596,6.909999999999897
-0.1480194330215454,-4.0623579025268555,-2.664466619491577,6.919999999999897
-0.8161742687225342,-2.357436180114746,-3.212632417678833,6.929999999999897
-1.416996717453003,-0.712224006652832,-3.6959357261657715,6.9399999999998965
-1.5593063831329346,1.3109703063964844,-4.195600509643555,6.949999999999896
-1.5049386024475098,4.658344268798828,-4.689064025878906,6.959999999999896
-1.5166528224945068,8.895017623901367,-5.015989303588867,6.969999999999896
-1.6093449592590332,14.288313865661621,-4.635153770446777,6.979999999999896
-1.391884207725525,19.211681365966797,-3.466038942337036,6.989999999999895
-1.4149435758590698,22.781517028808594,-2.4300267696380615,6.999999999999895
-1.6572266817092896,25.424894332885742,-3.046330690383911,7.009999999999895
-2.205794334411621,26.16689109802246,-5.321323394775391,7.019999999999895
-2.57022762298584,22.772249221801758,-7.679821968078613,7.0299999999998946
-3.109623670578003,14.802916526794434,-9.038446426391602,7.039999999999894
-2.7032010555267334,8.678418159484863,-9.11923885345459,7.049999999999894
-2.533313274383545,4.825902938842773,-7.172494888305664,7.059999999999894
-2.2708373069763184,1.2707958221435547,-4.277175426483154,7.069999999999894
-1.8392565250396729,-2.1035242080688477,-1.4176464080810547,7.0799999999998935
-1.6637804508209229,-5.104174613952637,0.033609867095947266,7.089999999999893
-1.047188401222229,-7.817781448364258,0.4249873161315918,7.099999999999893
-0.4767264723777771,-10.187129020690918,-0.18370437622070312,7.109999999999893
0.044649720191955566,-11.970712661743164,-1.204471230506897,7.119999999999893
0.38165295124053955,-12.645330429077148,-1.8814996480941772,7.129999999999892
-1.2319765090942383,-11.69546890258789,-2.300708293914795,7.139999999999892
-1.6331257820129395,-10.900378227233887,-2.305959701538086,7.149999999999892
-0.7550032138824463,-10.235188484191895,-2.1696460247039795,7.159999999999892
0.06715261936187744,-9.40514850616455,-2.421030282974243,7.169999999999892
0.6079392433166504,-8.438497543334961,-3.237781047821045,7.179999999999891
1.088602900505066,-7.061845779418945,-3.968510627746582,7.189999999999891
1.9043071269989014,-5.614168167114258,-4.284089088439941,7.199999999999891
2.986633777618408,-3.8235244750976562,-4.399019718170166,7.209999999999891
4.532859802246094,-1.4527473449707031,-5.216970443725586,7.2199999999998905
5.284286975860596,1.444746971130371,-6.4645795822143555,7.22999999999989
4.565255641937256,4.007898330688477,-7.6783013343811035,7.23999999999989
3.431655168533325,6.037955284118652,-7.747918128967285,7.24999999999989
1.8922234773635864,7.400171279907227,-6.983672618865967,7.25999999999989
-0.14979004859924316,8.043386459350586,-5.38877534866333,7.269999999999889
-2.6641714572906494,7.861489295959473,-3.789586067199707,7.279999999999889
-4.37565279006958,6.516077995300293,-2.3059728145599365,7.289999999999889
-3.971773147583008,4.144526481628418,-1.0081703662872314,7.299999999999889
-2.65203857421875,1.5892791748046875,0.09253716468811035,7.309999999999889
-2.2151763439178467,-0.4418668746948242,0.39769959449768066,7.319999999999888
-2.3495967388153076,-1.6771245002746582,0.2878077030181885,7.329999999999888
-2.572246551513672,-2.5576248168945312,-0.05760073661804199,7.339999999999888
-2.660984516143799,-3.488307476043701,-0.2907438278198242,7.349999999999888
-2.5659613609313965,-3.9746508598327637,-0.4320163130760193,7.3599999999998875
-2.5008275508880615,-4.18741512298584,-0.4517858624458313,7.369999999999887
-2.1762123107910156,-4.261356830596924,-0.698735773563385,7.379999999999887
-1.9010159969329834,-4.335788249969482,-1.3066186904907227,7.389999999999887
-1.5210168361663818,-4.214903831481934,-1.9811289310455322,7.399999999999887
-0.8056945204734802,-3.9686198234558105,-2.1958045959472656,7.4099999999998865
-0.29019975662231445,-3.7600250244140625,-2.2969865798950195,7.419999999999886
0.18156814575195312,-3.2234439849853516,-2.202697515487671,7.429999999999886
0.22797167301177979,-2.6052894592285156,-2.1786863803863525,7.439999999999886
0.15090620517730713,-1.7927541732788086,-1.9580305814743042,7.449999999999886
0.2993108034133911,-1.0676698684692383,-1.5271025896072388,7.459999999999885
0.6299301385879517,-0.3218965530395508,-0.9720171689987183,7.469999999999885
0.9730521440505981,0.1747589111328125,-0.5656051635742188,7.479999999999885
1.3945622444152832,0.23630332946777344,-0.11160790920257568,7.489999999999885
1.6859365701675415,0.05700492858886719,0.376145601272583,7.4999999999998845
1.926228642463684,-0.2815389633178711,0.7473440766334534,7.509999999999884
2.0157346725463867,-0.6931495666503906,0.915983259677887,7.519999999999884
1.9797260761260986,-1.2114086151123047,1.0662310123443604,7.529999999999884
1.8462309837341309,-1.7169232368469238,1.2770901918411255,7.539999999999884
1.617032527923584,-2.291327476501465,1.460248351097107,7.5499999999998835
1.3293536901474,-2.867814064025879,1.5057123899459839,7.559999999999883
1.1322873830795288,-3.1787147521972656,1.5594578981399536,7.569999999999883
1.0145578384399414,-3.289060115814209,1.5497075319290161,7.579999999999883
1.0122798681259155,-3.35695219039917,1.5050969123840332,7.589999999999883
1.01004159450531,-3.102555274963379,1.4422615766525269,7.599999999999882
1.1411703824996948,-2.8847856521606445,1.4669198989868164,7.609999999999882
1.3139344453811646,-2.6101531982421875,1.548384666442871,7.619999999999882
1.470100998878479,-2.340696334838867,1.4757075309753418,7.629999999999882
1.5873159170150757,-1.9590659141540527,1.360412359237671,7.6399999999998816
1.8188143968582153,-1.8790955543518066,1.285351276397705,7.649999999999881
1.7865018844604492,-1.8517169952392578,1.2045800685882568,7.659999999999881
1.6549957990646362,-1.740473747253418,1.1031718254089355,7.669999999999881
1.603872299194336,-1.801346778869629,1.1989442110061646,7.679999999999881
1.539975643157959,-1.9097967147827148,1.2961676120758057,7.6899999999998805
1.482064127922058,-1.8194084167480469,1.40208899974823,7.69999999999988
1.367455244064331,-1.6236076354980469,1.5668625831604004,7.70999999999988
1.437654733657837,-1.4229631423950195,1.8069672584533691,7.71999999999988
1.4315729141235352,-1.021407127380371,1.8494434356689453,7.72999999999988
1.4060863256454468,-0.5554914474487305,1.8801171779632568,7.739999999999879
1.6077958345413208,-0.20711612701416016,1.9729241132736206,7.749999999999879
1.7997803688049316,0.10512065887451172,2.068101644515991,7.759999999999879
1.970038652420044,0.34540557861328125,2.1109912395477295,7.769999999999879
2.1160764694213867,0.5282020568847656,2.118753433227539,7.779999999999879
2.3097329139709473,0.7276802062988281,2.065185546875,7.789999999999878
2.4583072662353516,0.8146677017211914,2.1351113319396973,7.799999999999878
2.5615286827087402,1.2076425552368164,1.808246374130249,7.809999999999878
2.408247709274292,1.7554864883422852,1.406470537185669,7.819999999999878
2.0480594635009766,2.18064022064209,1.1014840602874756,7.8299999999998775
1.6978354454040527,2.662604331970215,0.926283597946167,7.839999999999877
1.2150267362594604,3.1295833587646484,0.5476402640342712,7.849999999999877
1.068694829940796,3.0961828231811523,0.41590410470962524,7.859999999999877
0.730246901512146,2.8690710067749023,0.2897471785545349,7.869999999999877
0.4107094407081604,2.551321029663086,0.7174522280693054,7.879999999999876
0.16261649131774902,2.198052406311035,1.0338400602340698,7.889999999999876
0.24001789093017578,1.8882293701171875,1.8304660320281982,7.899999999999876
0.9358130097389221,1.7102441787719727,2.5411500930786133,7.909999999999876
1.6617363691329956,1.8170099258422852,3.071282386779785,7.919999999999876
2.077903985977173,2.2011566162109375,3.642087459564209,7.929999999999875
2.1551198959350586,2.6783275604248047,4.103067874908447,7.939999999999875
2.0268137454986572,3.1765947341918945,4.362290382385254,7.949999999999875
1.8271658420562744,3.4494762420654297,4.4354705810546875,7.959999999999875
1.516115427017212,3.293961524963379,4.358730316162109,7.9699999999998745
0.9891343116760254,2.758519172668457,3.9948220252990723,7.979999999999874
0.4210811257362366,2.1738624572753906,3.4992542266845703,7.989999999999874
