AccX,AccY,AccZ,SampleRate
2.851475238800049,1.4746637344360352,2.2213199138641357,0
3.389805316925049,1.4912405014038086,2.0775318145751953,0.01
3.888274669647217,1.7914295196533203,2.0704345703125,0.02
4.3221611976623535,2.0615100860595703,1.8086334466934204,0.03
4.690816879272461,2.2344703674316406,1.5349862575531006,0.04
4.727757453918457,2.3054285049438477,1.3028885126113892,0.05
4.813141822814941,2.092684745788574,1.1650676727294922,0.060000000000000005
4.932775497436523,1.8882255554199219,1.0387945175170898,0.07
5.0276031494140625,1.735030174255371,0.7612318992614746,0.08
5.09404182434082,1.468179702758789,0.6893672943115234,0.09
5.250887393951416,1.4014129638671875,0.7960090637207031,0.09999999999999999
5.1693830490112305,1.7357587814331055,1.1127543449401855,0.10999999999999999
5.02551794052124,2.3563737869262695,1.5809826850891113,0.11999999999999998
4.666889667510986,3.1889801025390625,1.9571361541748047,0.12999999999999998
4.033912181854248,3.998880386352539,1.890636920928955,0.13999999999999999
3.2843122482299805,4.54911994934082,1.4028137922286987,0.15
2.6331818103790283,4.751380920410156,0.7368594408035278,0.16
2.0944974422454834,4.517630577087402,0.00758206844329834,0.17
1.6505858898162842,4.037393569946289,-0.6570810079574585,0.18000000000000002
1.436340570449829,3.4378786087036133,-1.0123628377914429,0.19000000000000003
1.3420547246932983,2.905917167663574,-0.8972262144088745,0.20000000000000004
1.3108859062194824,2.2598323822021484,-0.3333418071269989,0.21000000000000005
1.385049819946289,1.5214118957519531,0.5326520800590515,0.22000000000000006
1.2795965671539307,0.7840785980224609,1.494634747505188,0.23000000000000007
0.36441731452941895,0.5306434631347656,2.4036448001861572,0.24000000000000007
-1.0552970170974731,0.7771329879760742,3.010425567626953,0.25000000000000006
-2.5570294857025146,1.6212434768676758,3.1769347190856934,0.26000000000000006
-3.6598424911499023,2.747415542602539,2.9930484294891357,0.2700000000000001
-4.252593040466309,3.611194610595703,2.73569917678833,0.2800000000000001
-4.572867393493652,4.137160301208496,2.375281810760498,0.2900000000000001
-4.842972755432129,4.199297904968262,1.870356798171997,0.3000000000000001
-4.950072288513184,4.032362937927246,1.1455798149108887,0.3100000000000001
-4.951251029968262,3.844271659851074,0.3774961233139038,0.3200000000000001
-4.851220607757568,3.8737239837646484,-0.3985309600830078,0.3300000000000001
-4.650274276733398,3.9359264373779297,-1.253804087638855,0.34000000000000014
-4.435724258422852,4.030401229858398,-2.104757070541382,0.35000000000000014
-4.386171817779541,4.166269302368164,-2.9423880577087402,0.36000000000000015
-4.233468532562256,4.245135307312012,-3.5572962760925293,0.37000000000000016
-4.136013031005859,4.326496124267578,-3.9694392681121826,0.38000000000000017
-4.190408706665039,4.352667808532715,-4.14858341217041,0.3900000000000002
-4.187785625457764,4.165835380554199,-4.177708625793457,0.4000000000000002
-4.207589626312256,3.907480239868164,-4.018350601196289,0.4100000000000002
-4.071797847747803,3.790829658508301,-3.6611242294311523,0.4200000000000002
-3.638788938522339,3.440847396850586,-2.965371608734131,0.4300000000000002
-2.636040449142456,3.0164785385131836,-1.9678423404693604,0.4400000000000002
-0.9582102298736572,2.736201286315918,-0.7736531496047974,0.45000000000000023
0.46806299686431885,2.621872901916504,0.4178805351257324,0.46000000000000024
1.515592336654663,2.596982955932617,1.339402437210083,0.47000000000000025
2.188170909881592,2.462940216064453,1.9086532592773438,0.48000000000000026
2.7710187435150146,2.3677597045898438,2.111152410507202,0.49000000000000027
3.3081400394439697,1.8872947692871094,1.969233751296997,0.5000000000000002
3.298671007156372,1.3222265243530273,1.4834437370300293,0.5100000000000002
2.8837661743164062,0.8916358947753906,0.8569586277008057,0.5200000000000002
2.2165255546569824,0.5681753158569336,0.25896549224853516,0.5300000000000002
1.5425724983215332,0.35594749450683594,-0.3624298572540283,0.5400000000000003
0.8561198711395264,0.13976764678955078,-0.9808132648468018,0.5500000000000003
0.2083560824394226,-0.26679134368896484,-1.529869794845581,0.5600000000000003
-0.3913800120353699,-0.6622838973999023,-2.154688835144043,0.5700000000000003
-0.830270528793335,-1.2043514251708984,-2.62436580657959,0.5800000000000003
-1.2321791648864746,-1.5101251602172852,-3.0117275714874268,0.5900000000000003
-1.5587209463119507,-1.9647526741027832,-3.31520414352417,0.6000000000000003
-1.8122339248657227,-2.3478965759277344,-3.6528286933898926,0.6100000000000003
-2.0814566612243652,-2.7838449478149414,-3.986832618713379,0.6200000000000003
-2.3981549739837646,-3.13600492477417,-4.3392558097839355,0.6300000000000003
-2.6268746852874756,-3.554896354675293,-4.633936405181885,0.6400000000000003
-2.8547897338867188,-3.9565582275390625,-4.885482311248779,0.6500000000000004
-3.1548924446105957,-4.340836048126221,-5.070069313049316,0.6600000000000004
-3.327169895172119,-4.626315593719482,-5.13759708404541,0.6700000000000004
-3.527677059173584,-4.820260524749756,-5.145506858825684,0.6800000000000004
-3.744378089904785,-4.879743576049805,-5.146480560302734,0.6900000000000004
-3.962653160095215,-5.075069427490234,-5.157480239868164,0.7000000000000004
-4.108138561248779,-5.095432281494141,-4.9628801345825195,0.7100000000000004
-4.324399948120117,-4.953359603881836,-4.715168476104736,0.7200000000000004
-4.4799485206604,-4.768985748291016,-4.389654159545898,0.7300000000000004
-4.558058738708496,-4.5618791580200195,-4.011964321136475,0.7400000000000004
-4.630562782287598,-4.456821918487549,-3.5359041690826416,0.7500000000000004
-4.6227312088012695,-4.4731550216674805,-3.219404697418213,0.7600000000000005
-4.279674530029297,-4.525246620178223,-2.8081302642822266,0.7700000000000005
-3.828106164932251,-4.659182071685791,-2.363276958465576,0.7800000000000005
-3.4477384090423584,-4.808578968048096,-1.8691487312316895,0.7900000000000005
-3.0606369972229004,-5.009708404541016,-1.48246169090271,0.8000000000000005
-2.6629433631896973,-5.233991622924805,-1.2502801418304443,0.8100000000000005
-2.3771774768829346,-5.507639408111572,-1.1054022312164307,0.8200000000000005
-2.076244831085205,-5.797066688537598,-1.038259744644165,0.8300000000000005
-1.6827491521835327,-6.040014266967773,-0.9797146320343018,0.8400000000000005
-1.3248307704925537,-6.238968849182129,-0.8891756534576416,0.8500000000000005
-1.0537768602371216,-6.389328479766846,-0.7737090587615967,0.8600000000000005
-0.8419491052627563,-6.450486660003662,-0.6429619789123535,0.8700000000000006
-0.7407875061035156,-6.479787349700928,-0.4875907897949219,0.8800000000000006
-0.7850118279457092,-6.462594509124756,-0.3367960453033447,0.8900000000000006
-0.8973714113235474,-6.415065765380859,-0.20588326454162598,0.9000000000000006
-1.0158129930496216,-6.0257039070129395,0.004760026931762695,0.9100000000000006
-1.1820958852767944,-5.9947052001953125,0.21929574012756348,0.9200000000000006
-1.3021783828735352,-5.735021114349365,0.40050840377807617,0.9300000000000006
-1.3548145294189453,-5.095670700073242,0.6409726142883301,0.9400000000000006
-1.473870038986206,-4.3085551261901855,0.8133904933929443,0.9500000000000006
-1.439836025238037,-3.301609516143799,0.8553383350372314,0.9600000000000006
-1.3275643587112427,-2.110466957092285,0.8957324028015137,0.9700000000000006
-0.9927739500999451,-0.6749210357666016,0.9123125076293945,0.9800000000000006
-0.5683473348617554,1.0605840682983398,0.8534319400787354,0.9900000000000007
-0.41606539487838745,3.2138757705688477,0.7786774635314941,1.0000000000000007
-0.07418105751276016,5.553680419921875,0.7242779731750488,1.0100000000000007
0.1066652312874794,8.312867164611816,0.7084920406341553,1.0200000000000007
0.12083112448453903,11.685412406921387,0.9124908447265625,1.0300000000000007
-0.02913835644721985,15.496014595031738,1.5961799621582031,1.0400000000000007
-0.1792052984237671,18.518436431884766,2.89762282371521,1.0500000000000007
-0.07340234518051147,19.85174560546875,5.369332313537598,1.0600000000000007
0.14344948530197144,17.55164909362793,7.649964332580566,1.0700000000000007
0.604684054851532,12.262207984924316,8.750271797180176,1.0800000000000007
1.3232951164245605,7.709128379821777,9.173789978027344,1.0900000000000007
2.0220305919647217,4.622221946716309,8.90675163269043,1.1000000000000008
2.72762393951416,2.606769561767578,7.9704203605651855,1.1100000000000008
3.4599502086639404,1.3719148635864258,6.4436845779418945,1.1200000000000008
3.860722541809082,0.4581441879272461,4.5745954513549805,1.1300000000000008
3.7411890029907227,-0.2149515151977539,2.514575242996216,1.1400000000000008
3.2271718978881836,-0.8086357116699219,0.4440891742706299,1.1500000000000008
2.374941825866699,-1.2666149139404297,-1.444262146949768,1.1600000000000008
1.329854965209961,-1.4639339447021484,-2.83644437789917,1.1700000000000008
0.2892075479030609,-1.506082534790039,-3.6215882301330566,1.1800000000000008
-0.5585980415344238,-1.3483819961547852,-3.8371729850769043,1.1900000000000008
-1.3229353427886963,-1.1259822845458984,-3.5619022846221924,1.2000000000000008
-2.0617499351501465,-0.7084798812866211,-3.082181215286255,1.2100000000000009
-2.7386085987091064,-0.06350231170654297,-2.598532199859619,1.2200000000000009
-3.484039306640625,0.8440799713134766,-2.2552061080932617,1.2300000000000009
-4.120553970336914,1.739206314086914,-2.349231719970703,1.2400000000000009
-4.530175685882568,2.340921401977539,-2.7095649242401123,1.2500000000000009
-5.0387468338012695,2.60604190826416,-3.0033700466156006,1.260000000000001
-5.729347229003906,2.9462480545043945,-2.7836875915527344,1.270000000000001
-6.550359725952148,3.215330123901367,-2.095696449279785,1.280000000000001
-7.168307304382324,2.8469362258911133,-1.1264188289642334,1.290000000000001
-7.221252918243408,1.7701358795166016,0.27884936332702637,1.300000000000001
-6.584634304046631,0.6401424407958984,1.8275065422058105,1.310000000000001
-4.972866535186768,-0.35202503204345703,3.1092095375061035,1.320000000000001
-2.9732964038848877,-1.1676359176635742,3.649946928024292,1.330000000000001
-0.7954126596450806,-1.8478679656982422,2.736720323562622,1.340000000000001
0.7926799058914185,-2.4924755096435547,0.5862070322036743,1.350000000000001
1.4126932621002197,-3.1528220176696777,-2.0344700813293457,1.360000000000001
1.4382822513580322,-3.638760566711426,-4.471506118774414,1.370000000000001
1.0739390850067139,-3.8872461318969727,-6.459168434143066,1.380000000000001
0.7451344728469849,-4.002869606018066,-7.772551536560059,1.390000000000001
0.4453263580799103,-3.8009471893310547,-8.464296340942383,1.400000000000001
0.13540059328079224,-3.388981819152832,-8.7062349319458,1.410000000000001
-0.3179817199707031,-2.7382912635803223,-8.698121070861816,1.420000000000001
-0.7226238250732422,-1.9686851501464844,-8.521246910095215,1.430000000000001
-1.094574213027954,-1.0995712280273438,-8.097869873046875,1.440000000000001
-1.4163203239440918,-0.2628803253173828,-7.33460807800293,1.450000000000001
-1.5177817344665527,0.5553312301635742,-6.134828567504883,1.460000000000001
-1.4945920705795288,1.3521184921264648,-4.3387837409973145,1.470000000000001
-1.2941153049468994,2.229581832885742,-1.9771196842193604,1.480000000000001
-0.9378029108047485,2.8519554138183594,0.511792778968811,1.490000000000001
-0.46030497550964355,3.1728286743164062,3.2387049198150635,1.500000000000001
0.2828786373138428,2.9975194931030273,5.962521553039551,1.5100000000000011
0.9370893239974976,2.314420700073242,6.261949062347412,1.5200000000000011
1.56826651096344,1.5148162841796875,4.340723037719727,1.5300000000000011
1.4715465307235718,0.6884765625,1.6768759489059448,1.5400000000000011
1.1525858640670776,0.07535362243652344,-0.43793725967407227,1.5500000000000012
0.7221391201019287,-0.408050537109375,-1.789659023284912,1.5600000000000012
0.4944092035293579,-0.6803693771362305,-2.576420307159424,1.5700000000000012
0.28380370140075684,-0.8541269302368164,-2.8849802017211914,1.5800000000000012
0.16359740495681763,-0.8982858657836914,-2.7916884422302246,1.5900000000000012
0.07569652795791626,-0.9731101989746094,-2.518670082092285,1.6000000000000012
-0.12440264225006104,-1.0282459259033203,-2.2739009857177734,1.6100000000000012
-0.4359753131866455,-1.1736259460449219,-2.1293892860412598,1.6200000000000012
-0.8351589441299438,-1.253666877746582,-2.258141040802002,1.6300000000000012
-1.1548808813095093,-1.3664512634277344,-2.342987298965454,1.6400000000000012
-1.4001489877700806,-1.4449529647827148,-2.430568218231201,1.6500000000000012
-1.5134837627410889,-1.603999137878418,-2.3394274711608887,1.6600000000000013
-1.566333293914795,-1.8267693519592285,-2.050398826599121,1.6700000000000013
-1.5369960069656372,-2.0367231369018555,-1.5366730690002441,1.6800000000000013
-1.511439561843872,-2.250673770904541,-0.9361183047294617,1.6900000000000013
-1.4776067733764648,-2.4543166160583496,-0.3338569402694702,1.7000000000000013
-1.4117074012756348,-2.4803056716918945,0.05056405067443848,1.7100000000000013
-1.2661097049713135,-2.474712371826172,0.2532068192958832,1.7200000000000013
-1.1199102401733398,-2.239091396331787,0.2046891152858734,1.7300000000000013
-0.9688347578048706,-2.058297634124756,0.07500377297401428,1.7400000000000013
-0.7657521963119507,-1.7960262298583984,-0.1307828277349472,1.7500000000000013
-0.5496011972427368,-1.526559829711914,-0.33568620681762695,1.7600000000000013
-0.2777944803237915,-1.2427635192871094,-0.5731050968170166,1.7700000000000014
0.03010845184326172,-0.8825149536132812,-0.7542458772659302,1.7800000000000014
0.30453866720199585,-0.7232894897460938,-0.8596435189247131,1.7900000000000014
0.6507381796836853,-0.6165637969970703,-0.8630749583244324,1.8000000000000014
0.9346517324447632,-0.5000896453857422,-0.7551636099815369,1.8100000000000014
1.2594131231307983,-0.4503459930419922,-0.5767788290977478,1.8200000000000014
1.4554166793823242,-0.41698741912841797,-0.36397525668144226,1.8300000000000014
1.5827291011810303,-0.5027732849121094,-0.16473877429962158,1.8400000000000014
1.6006511449813843,-0.6334295272827148,-0.02950015664100647,1.8500000000000014
1.5498745441436768,-0.6223955154418945,0.04868042469024658,1.8600000000000014
1.3822163343429565,-0.7281398773193359,0.08649590611457825,1.8700000000000014
1.222010850906372,-0.8357648849487305,0.1291700005531311,1.8800000000000014
1.1075937747955322,-0.9189548492431641,0.18368396162986755,1.8900000000000015
1.0773487091064453,-1.044663429260254,0.2835027873516083,1.9000000000000015
1.0382260084152222,-1.2008304595947266,0.3448939025402069,1.9100000000000015
0.990524172782898,-1.272587776184082,0.4253021478652954,1.9200000000000015
0.8794830441474915,-1.3125905990600586,0.594221830368042,1.9300000000000015
0.6668838262557983,-1.2060823440551758,0.8326301574707031,1.9400000000000015
0.5589965581893921,-1.2329282760620117,1.0395973920822144,1.9500000000000015
0.36724352836608887,-1.105966567993164,1.2672703266143799,1.9600000000000015
0.1205744743347168,-0.6364936828613281,1.4839203357696533,1.9700000000000015
-0.2671549320220947,-0.11675071716308594,1.693326711654663,1.9800000000000015
-0.5018208026885986,0.3550291061401367,1.915822982788086,1.9900000000000015
-0.6629065275192261,0.7069635391235352,2.0640058517456055,2.0000000000000013
-0.6767946481704712,0.95330810546875,2.1509604454040527,2.010000000000001
-0.517524003982544,0.9649009704589844,2.137507915496826,2.020000000000001
-0.21680760383605957,0.8733892440795898,2.0999608039855957,2.0300000000000007
0.0857381820678711,0.8126935958862305,1.9865832328796387,2.0400000000000005
0.532808780670166,0.7994527816772461,1.7868517637252808,2.0500000000000003
1.0926308631896973,0.7499113082885742,1.509371042251587,2.06
1.625974416732788,0.7621536254882812,1.3132941722869873,2.07
2.1970980167388916,0.9102029800415039,1.2711451053619385,2.0799999999999996
2.7575345039367676,1.1004886627197266,1.3877826929092407,2.0899999999999994
3.323294162750244,1.4212160110473633,1.612874984741211,2.099999999999999
3.9654784202575684,1.9462242126464844,2.018798589706421,2.109999999999999
4.4366888999938965,2.5674524307250977,2.419802665710449,2.1199999999999988
4.70464563369751,3.0620784759521484,2.4436757564544678,2.1299999999999986
4.792359352111816,3.169276237487793,2.167202949523926,2.1399999999999983
4.78510856628418,3.106675148010254,1.505525827407837,2.149999999999998
4.8000054359436035,2.804928779602051,0.8900952935218811,2.159999999999998
5.012395858764648,2.47725772857666,0.5778430700302124,2.1699999999999977
5.138439178466797,2.4825639724731445,0.2828962802886963,2.1799999999999975
5.29695463180542,2.459819793701172,0.1270102858543396,2.1899999999999973
5.367625713348389,2.4909191131591797,0.11323630809783936,2.199999999999997
5.452657222747803,2.717426300048828,0.13482004404067993,2.209999999999997
5.551482200622559,3.0511770248413086,0.3144984543323517,2.2199999999999966
5.4719438552856445,3.5234603881835938,0.4267977178096771,2.2299999999999964
5.217404365539551,4.141298294067383,0.39316442608833313,2.239999999999996
4.656505107879639,4.662808418273926,0.23221397399902344,2.249999999999996
4.097501754760742,4.982669830322266,0.12758702039718628,2.259999999999996
3.441364288330078,5.034052848815918,0.21875828504562378,2.2699999999999956
2.864006519317627,4.860369682312012,0.4509847164154053,2.2799999999999954
2.3474252223968506,4.505086898803711,0.9338316321372986,2.289999999999995
1.4900250434875488,4.066407203674316,1.6129851341247559,2.299999999999995
-0.07983565330505371,3.6611366271972656,2.355185031890869,2.3099999999999947
-1.7714307308197021,3.1692800521850586,3.071063995361328,2.3199999999999945
-3.0262303352355957,2.6818246841430664,3.508551597595215,2.3299999999999943
-3.7623953819274902,2.359518051147461,3.641157865524292,2.339999999999994
-4.071581840515137,2.150454521179199,3.532973527908325,2.349999999999994
-4.42352294921875,2.1534385681152344,3.1369333267211914,2.3599999999999937
-4.572619915008545,2.3092899322509766,2.5249671936035156,2.3699999999999934
-4.596258163452148,2.4966297149658203,1.8279039859771729,2.3799999999999932
-4.542394638061523,2.6896533966064453,1.3458620309829712,2.389999999999993
-4.614317417144775,2.9410266876220703,1.019301176071167,2.399999999999993
-4.539445877075195,2.963320732116699,0.7987381219863892,2.4099999999999926
-4.330067157745361,2.9426145553588867,0.5237427949905396,2.4199999999999924
-4.044097423553467,2.796891212463379,-0.0012971162796020508,2.429999999999992
-3.682586669921875,2.664400100708008,-0.8069024682044983,2.439999999999992
-3.4177768230438232,2.6355934143066406,-1.6360328197479248,2.4499999999999917
-3.346311330795288,2.604884147644043,-2.4883997440338135,2.4599999999999915
-3.4942400455474854,2.5816574096679688,-3.3350119590759277,2.4699999999999913
-3.6077988147735596,2.5994396209716797,-4.118688583374023,2.479999999999991
-3.768524646759033,2.440993309020996,-4.747502326965332,2.489999999999991
-3.924248456954956,2.16208553314209,-5.0817975997924805,2.4999999999999907
-3.9411752223968506,1.8780279159545898,-5.111917018890381,2.5099999999999905
-3.6201071739196777,1.7253570556640625,-4.683229446411133,2.5199999999999902
-2.425018310546875,1.5702238082885742,-3.8867790699005127,2.52999999999999
-0.9867621660232544,1.3578777313232422,-2.7202651500701904,2.53999999999999
0.30782657861709595,1.286787986755371,-1.2449549436569214,2.5499999999999896
1.2854074239730835,1.251230239868164,0.2994251251220703,2.5599999999999894
2.000156879425049,1.27227783203125,1.4628031253814697,2.569999999999989
2.591212034225464,1.554966926574707,2.1112420558929443,2.579999999999989
2.7997775077819824,1.5866317749023438,2.4670662879943848,2.5899999999999888
2.6202988624572754,1.613297462463379,2.4265146255493164,2.5999999999999885
2.2424466609954834,1.6177291870117188,2.117497682571411,2.6099999999999883
1.6077080965042114,1.4943199157714844,1.6485037803649902,2.619999999999988
0.7362838983535767,1.350738525390625,0.8735537528991699,2.629999999999988
0.0628904402256012,1.0962762832641602,0.048018693923950195,2.6399999999999877
-0.45818400382995605,0.7289066314697266,-0.7932450771331787,2.6499999999999875
-0.7092912197113037,0.39481353759765625,-1.5220568180084229,2.6599999999999873
-0.8192144632339478,-0.03275489807128906,-2.107937812805176,2.669999999999987
-1.1375384330749512,-0.8525762557983398,-2.4388742446899414,2.679999999999987
-0.990196943283081,-1.1294183731079102,-2.754430055618286,2.6899999999999866
-1.0128726959228516,-1.5575857162475586,-3.02109694480896,2.6999999999999864
-1.1500260829925537,-2.0077948570251465,-3.32293438911438,2.709999999999986
-1.3543336391448975,-2.5133066177368164,-3.605503797531128,2.719999999999986
-1.6669306755065918,-3.066591739654541,-3.9150514602661133,2.7299999999999858
-1.9138747453689575,-3.5860047340393066,-4.173323631286621,2.7399999999999856
-2.2060365676879883,-4.030741214752197,-4.395116806030273,2.7499999999999853
-2.517871379852295,-4.434159755706787,-4.623887062072754,2.759999999999985
-2.83070707321167,-4.702870845794678,-4.797815322875977,2.769999999999985
-3.154660701751709,-4.958731651306152,-4.931794166564941,2.7799999999999847
-3.506955146789551,-5.103562355041504,-5.040447235107422,2.7899999999999845
-3.7779126167297363,-4.998837471008301,-5.080586910247803,2.7999999999999843
-4.022954940795898,-4.826814651489258,-5.058836936950684,2.809999999999984
-4.1799492835998535,-4.5328450202941895,-4.9866042137146,2.819999999999984
-4.077884197235107,-4.189172267913818,-4.875463485717773,2.8299999999999836
-3.736764907836914,-3.947096347808838,-4.5620622634887695,2.8399999999999834
-3.399203300476074,-3.759402275085449,-4.09575891494751,2.849999999999983
-2.984963893890381,-3.7033634185791016,-3.48738169670105,2.859999999999983
-2.6326751708984375,-3.695897102355957,-2.747579336166382,2.869999999999983
-2.3765177726745605,-3.735140323638916,-2.0521087646484375,2.8799999999999826
-2.1793079376220703,-3.8763489723205566,-1.502837896347046,2.8899999999999824
-2.09017014503479,-4.109915256500244,-1.1397464275360107,2.899999999999982
-1.95203697681427,-4.421408653259277,-0.8379786014556885,2.909999999999982
-1.7676336765289307,-4.7102837562561035,-0.6284596920013428,2.9199999999999817
-1.4936860799789429,-4.971822738647461,-0.44640564918518066,2.9299999999999815
-1.237039566040039,-5.198892593383789,-0.3037726879119873,2.9399999999999813
-1.003778100013733,-5.384276390075684,-0.1911625862121582,2.949999999999981
-0.7832245230674744,-5.539824485778809,-0.10884356498718262,2.959999999999981
-0.6725391149520874,-5.6533637046813965,-0.02608942985534668,2.9699999999999807
-0.6756372451782227,-5.736501216888428,0.022991180419921875,2.9799999999999804
-0.7630513906478882,-5.781681537628174,0.0880439281463623,2.9899999999999802
-0.9510180354118347,-5.786046504974365,0.1635270118713379,2.99999999999998
-1.1366225481033325,-5.6175384521484375,0.2677192687988281,3.00999999999998
-1.329693078994751,-5.424023628234863,0.45955657958984375,3.0199999999999796
-1.4720960855484009,-5.398492813110352,0.5940530300140381,3.0299999999999794
-1.546655535697937,-5.238923072814941,0.7325143814086914,3.039999999999979
-1.4170820713043213,-4.722704887390137,0.8242332935333252,3.049999999999979
-1.3343088626861572,-4.290011405944824,0.8931093215942383,3.0599999999999787
-1.0835764408111572,-3.5148844718933105,0.9488871097564697,3.0699999999999785
-0.5732053518295288,-2.308835983276367,0.8668391704559326,3.0799999999999783
-0.02637644112110138,-0.8965435028076172,0.7680037021636963,3.089999999999978
0.4612043499946594,0.4975547790527344,0.8278803825378418,3.099999999999978
0.8956332802772522,2.4719457626342773,0.8163409233093262,3.1099999999999777
1.3221920728683472,4.598541259765625,0.9595723152160645,3.1199999999999775
1.5147087574005127,6.906496047973633,1.269850492477417,3.1299999999999772
1.6410664319992065,9.498815536499023,1.8743698596954346,3.139999999999977
1.5985989570617676,12.25296688079834,2.79951548576355,3.149999999999977
1.718808650970459,14.6797513961792,4.286380767822266,3.1599999999999766
2.206951141357422,16.115148544311523,6.676185607910156,3.1699999999999764
2.9256091117858887,15.092597007751465,9.060403823852539,3.179999999999976
3.6602861881256104,12.013477325439453,10.279632568359375,3.189999999999976
4.092567443847656,8.654583930969238,9.987186431884766,3.1999999999999758
3.9477381706237793,6.166913986206055,8.556729316711426,3.2099999999999755
3.781369209289551,4.683730125427246,6.689186096191406,3.2199999999999753
3.6114041805267334,3.761786460876465,4.728432655334473,3.229999999999975
3.0278267860412598,3.1714181900024414,2.681851387023926,3.239999999999975
2.148916482925415,2.955887794494629,0.7043650150299072,3.2499999999999747
0.8977569341659546,3.040907859802246,-0.8592811822891235,3.2599999999999745
-0.5551074147224426,3.3063812255859375,-1.935439109802246,3.2699999999999743
-1.9923646450042725,3.6200075149536133,-2.5538907051086426,3.279999999999974
-3.201582908630371,3.830267906188965,-2.8268589973449707,3.289999999999974
-4.103639125823975,3.7786808013916016,-2.926198720932007,3.2999999999999736
-4.618563652038574,3.5845470428466797,-2.928811550140381,3.3099999999999734
-4.883355617523193,3.2669553756713867,-2.8005871772766113,3.319999999999973
-5.18095588684082,2.9937095642089844,-2.825019598007202,3.329999999999973
-5.648693084716797,2.3757123947143555,-2.8589389324188232,3.3399999999999728
-6.181517124176025,1.1301069259643555,-2.80465030670166,3.3499999999999726
-6.760971546173096,-0.40599536895751953,-2.630563735961914,3.3599999999999723
-7.234249591827393,-1.9179019927978516,-2.1284332275390625,3.369999999999972
-7.238431453704834,-3.016618251800537,-1.2757506370544434,3.379999999999972
-6.373800754547119,-3.5833444595336914,-0.16352605819702148,3.3899999999999717
-4.419429779052734,-3.6477913856506348,0.7734761238098145,3.3999999999999715
-1.7165156602859497,-3.678192138671875,0.6981154680252075,3.4099999999999713
0.6668387055397034,-3.8846797943115234,-0.4556494951248169,3.419999999999971
2.062467575073242,-4.114809989929199,-2.3746745586395264,3.429999999999971
2.600130558013916,-4.235266208648682,-4.413072109222412,3.4399999999999706
2.426269292831421,-4.1324005126953125,-6.128120422363281,3.4499999999999704
1.8691455125808716,-3.858015537261963,-7.227771759033203,3.45999999999997
1.2838846445083618,-3.4067859649658203,-7.68267297744751,3.46999999999997
0.8049597144126892,-2.945779323577881,-7.525227069854736,3.47999999999997
0.452007532119751,-2.520199775695801,-6.982327938079834,3.4899999999999696
0.3291762173175812,-2.118130683898926,-6.229963302612305,3.4999999999999694
0.13439783453941345,-1.6706171035766602,-5.344814777374268,3.509999999999969
-0.19982165098190308,-1.2380199432373047,-4.3396453857421875,3.519999999999969
-0.5115645527839661,-0.7659053802490234,-3.169156789779663,3.5299999999999687
-0.9790989756584167,-0.38890743255615234,-1.7973146438598633,3.5399999999999685
-1.479153037071228,0.011858940124511719,-0.32907676696777344,3.5499999999999683
-1.9910995960235596,0.4282674789428711,1.0808223485946655,3.559999999999968
-2.8437998294830322,0.9522676467895508,2.6595773696899414,3.569999999999968
-3.638880491256714,1.4222602844238281,3.8731842041015625,3.5799999999999677
-3.8267781734466553,1.7469358444213867,3.885401725769043,3.5899999999999674
-3.5754172801971436,2.0918283462524414,2.8631296157836914,3.5999999999999672
-3.0400795936584473,1.9748592376708984,1.1590197086334229,3.609999999999967
-2.4543535709381104,1.5100526809692383,-0.5572700500488281,3.619999999999967
-1.963029384613037,1.0957422256469727,-2.0878398418426514,3.6299999999999666
-1.495787501335144,0.7038402557373047,-3.2410197257995605,3.6399999999999664
-1.0064371824264526,0.43751049041748047,-3.874142646789551,3.649999999999966
-0.6429964900016785,0.31111621856689453,-4.252768516540527,3.659999999999966
-0.2808034420013428,0.21215248107910156,-4.481319427490234,3.6699999999999657
-0.015347719192504883,0.0927419662475586,-4.546415328979492,3.6799999999999655
0.182364821434021,-0.02804088592529297,-4.501028060913086,3.6899999999999653
0.3245927095413208,-0.17661285400390625,-4.2898759841918945,3.699999999999965
0.4667336940765381,-0.38176727294921875,-3.9624292850494385,3.709999999999965
0.7026216983795166,-0.7153358459472656,-3.2945151329040527,3.7199999999999647
1.0380016565322876,-1.143803596496582,-2.628655433654785,3.7299999999999645
1.0070558786392212,-1.4543752670288086,-1.9602043628692627,3.7399999999999642
0.8589836955070496,-1.7381820678710938,-1.2465448379516602,3.749999999999964
0.6584433913230896,-1.952291488647461,-0.5508115291595459,3.759999999999964
0.3452017903327942,-2.0705199241638184,-0.0587691068649292,3.7699999999999636
0.15846025943756104,-2.0498690605163574,0.24872934818267822,3.7799999999999634
-0.023935914039611816,-1.9501714706420898,0.3949928283691406,3.789999999999963
-0.14920592308044434,-1.809633731842041,0.3981400430202484,3.799999999999963
-0.1500285267829895,-1.6735725402832031,0.3550022542476654,3.8099999999999627
-0.23961013555526733,-1.5730047225952148,0.2955683469772339,3.8199999999999625
-0.24367058277130127,-1.4480953216552734,0.21671566367149353,3.8299999999999623
-0.18909943103790283,-1.284555435180664,0.08693179488182068,3.839999999999962
-0.031207680702209473,-1.0657634735107422,-0.11060592532157898,3.849999999999962
0.18905514478683472,-0.9161567687988281,-0.3495456278324127,3.8599999999999617
0.41630280017852783,-0.8333053588867188,-0.5196072459220886,3.8699999999999615
0.5427456498146057,-0.7286872863769531,-0.5702847242355347,3.8799999999999613
0.5899072289466858,-0.6597452163696289,-0.45788058638572693,3.889999999999961
0.6201979517936707,-0.6192331314086914,-0.21521881222724915,3.899999999999961
0.6338712573051453,-0.6979265213012695,0.057595569640398026,3.9099999999999606
0.5213136672973633,-0.7712631225585938,0.22432921826839447,3.9199999999999604
0.4840138554573059,-0.8511075973510742,0.3757821321487427,3.92999999999996
0.450533390045166,-0.9445438385009766,0.49482977390289307,3.93999999999996
0.4379693269729614,-1.0538702011108398,0.607338547706604,3.9499999999999598
0.47788006067276,-1.1048612594604492,0.6743884086608887,3.9599999999999596
0.6066148281097412,-1.1668615341186523,0.685533881187439,3.9699999999999593
0.7287144660949707,-1.1537466049194336,0.6663407683372498,3.979999999999959
0.8082696795463562,-1.1612653732299805,0.7122097015380859,3.989999999999959
0.8259531855583191,-1.03875732421875,0.7707712650299072,3.9999999999999587
0.9299585819244385,-1.0709352493286133,0.7654406428337097,4.009999999999959
1.103285312652588,-1.0280332565307617,0.8832470774650574,4.019999999999959
1.1254994869232178,-0.9436197280883789,1.002685785293579,4.0299999999999585
1.1611895561218262,-0.7819375991821289,1.167034387588501,4.039999999999958
1.080702543258667,-0.4762239456176758,1.3043224811553955,4.049999999999958
0.7782000303268433,-0.11297893524169922,1.3967864513397217,4.059999999999958
0.3293572664260864,0.25951290130615234,1.4668570756912231,4.069999999999958
-0.07752037048339844,0.4543123245239258,1.4910218715667725,4.079999999999957
-0.33274245262145996,0.5095386505126953,1.5508840084075928,4.089999999999957
-0.38378024101257324,0.44428157806396484,1.6905238628387451,4.099999999999957
-0.2884204387664795,0.41639232635498047,1.921919345855713,4.109999999999957
-0.0330507755279541,0.3277244567871094,2.1840615272521973,4.119999999999957
0.5301187038421631,0.2740650177001953,2.2586796283721924,4.129999999999956
1.2789045572280884,0.5280914306640625,2.1473641395568848,4.139999999999956
2.0842177867889404,0.7476205825805664,1.956507682800293,4.149999999999956
2.819014072418213,1.0235223770141602,1.7058844566345215,4.159999999999956
3.4035611152648926,1.3746576309204102,1.4918792247772217,4.1699999999999555
3.9925365447998047,1.8916244506835938,1.4757472276687622,4.179999999999955
4.347726821899414,2.3563032150268555,1.354735016822815,4.189999999999955
4.5755157470703125,2.5029783248901367,1.089137077331543,4.199999999999955
4.512611389160156,2.348552703857422,0.7679938673973083,4.209999999999955
4.5320234298706055,2.132328987121582,0.3547952175140381,4.2199999999999545
4.557186126708984,1.792048454284668,-0.018402159214019775,4.229999999999954
4.629115104675293,1.495152473449707,-0.37796515226364136,4.239999999999954
4.768339157104492,1.3399219512939453,-0.5103512406349182,4.249999999999954
4.966707229614258,1.4963722229003906,-0.5718395709991455,4.259999999999954
5.103716850280762,1.7925491333007812,-0.34838569164276123,4.269999999999953
5.091789722442627,2.3171768188476562,-0.18776291608810425,4.279999999999953
4.9314470291137695,3.08695125579834,-0.22258931398391724,4.289999999999953
4.727940559387207,3.876811981201172,-0.5411846041679382,4.299999999999953
4.440011024475098,4.633969306945801,-0.8452129364013672,4.3099999999999525
4.167845726013184,5.243599891662598,-0.892189085483551,4.319999999999952
4.0407304763793945,5.780082702636719,-0.6000415682792664,4.329999999999952
4.042726039886475,6.131443977355957,0.0828171968460083,4.339999999999952
4.14483642578125,6.288984298706055,1.099028468132019,4.349999999999952
3.843337059020996,6.415866851806641,2.1213173866271973,4.3599999999999515
1.6286635398864746,6.5497589111328125,3.032447338104248,4.369999999999951
-0.7706429958343506,6.29292106628418,3.633297920227051,4.379999999999951
-2.636962413787842,5.538081169128418,3.9468390941619873,4.389999999999951
-3.5564112663269043,4.468111038208008,3.971914529800415,4.399999999999951
-4.101731777191162,3.6341934204101562,3.7864482402801514,4.40999999999995
-4.5319390296936035,3.256807327270508,3.433077335357666,4.41999999999995
-4.867221832275391,3.218891143798828,2.8742637634277344,4.42999999999995
-4.984150409698486,3.2886829376220703,2.2982349395751953,4.43999999999995
-5.005232810974121,3.2967939376831055,1.754887342453003,4.4499999999999496
-4.954429626464844,3.2651376724243164,1.3475501537322998,4.459999999999949
-4.7286696434021,3.1746788024902344,1.1012661457061768,4.469999999999949
-4.476118087768555,2.943920135498047,0.7973525524139404,4.479999999999949
-4.0701117515563965,2.4721336364746094,0.33361268043518066,4.489999999999949
-3.6240954399108887,1.95751953125,-0.35030585527420044,4.4999999999999485
-3.3101601600646973,1.5334806442260742,-1.0578110218048096,4.509999999999948
-2.9691622257232666,1.1348752975463867,-1.744122862815857,4.519999999999948
-2.6777796745300293,0.7469158172607422,-2.3719706535339355,4.529999999999948
-2.671584129333496,0.47925567626953125,-2.9833760261535645,4.539999999999948
-2.830254077911377,0.34344482421875,-3.450604200363159,4.549999999999947
-2.985860824584961,0.22445106506347656,-3.8449044227600098,4.559999999999947
-3.1375627517700195,0.19895648956298828,-4.039771556854248,4.569999999999947
-2.8023362159729004,0.25069427490234375,-4.096228122711182,4.579999999999947
-1.6958240270614624,0.38046932220458984,-4.005867004394531,4.589999999999947
-0.657507598400116,0.5411262512207031,-3.55789852142334,4.599999999999946
0.1270865797996521,0.7690238952636719,-2.772120952606201,4.609999999999946
0.9449875354766846,1.1719160079956055,-1.6523540019989014,4.619999999999946
1.816359281539917,1.4432792663574219,-0.20070600509643555,4.629999999999946
2.552259922027588,1.7762155532836914,1.1394078731536865,4.6399999999999455
3.0276529788970947,2.0213212966918945,2.1521291732788086,4.649999999999945
2.895145893096924,2.1657800674438477,2.5797412395477295,4.659999999999945
2.1667656898498535,2.2091856002807617,2.447460412979126,4.669999999999945
1.2141363620758057,2.060481071472168,1.9855327606201172,4.679999999999945
0.38957175612449646,1.8082122802734375,1.390171766281128,4.689999999999944
-0.14342373609542847,1.3996973037719727,0.7715744972229004,4.699999999999944
-0.5296168327331543,0.9807834625244141,0.12752628326416016,4.709999999999944
-0.9376108646392822,0.3793525695800781,-0.5041444301605225,4.719999999999944
-1.0652492046356201,0.023746490478515625,-1.1888513565063477,4.729999999999944
-1.227658987045288,-0.4187479019165039,-1.6351832151412964,4.739999999999943
-1.344714641571045,-0.9024362564086914,-2.047697067260742,4.749999999999943
-1.5353670120239258,-1.3790655136108398,-2.4495046138763428,4.759999999999943
-1.7605457305908203,-1.8530845642089844,-2.7702808380126953,4.769999999999943
-1.8614716529846191,-2.2072644233703613,-2.982074022293091,4.7799999999999425
-2.0269997119903564,-2.568516731262207,-3.1593103408813477,4.789999999999942
-2.176041841506958,-2.9511642456054688,-3.292635440826416,4.799999999999942
-2.486193895339966,-3.3741955757141113,-3.4804303646087646,4.809999999999942
-2.812014102935791,-3.7299084663391113,-3.662945032119751,4.819999999999942
-3.1088433265686035,-4.006484508514404,-3.83512020111084,4.8299999999999415
-3.4279210567474365,-4.211212635040283,-3.977593421936035,4.839999999999941
-3.8059592247009277,-4.377628803253174,-4.090277194976807,4.849999999999941
-4.037639617919922,-4.508091926574707,-4.211600303649902,4.859999999999941
-4.235889434814453,-4.5666327476501465,-4.267721652984619,4.869999999999941
-4.384270191192627,-4.507882595062256,-4.215680122375488,4.87999999999994
-4.379981994628906,-4.33208703994751,-4.036250114440918,4.88999999999994
-4.100136756896973,-4.151890277862549,-3.861159563064575,4.89999999999994
-3.6057238578796387,-3.955667018890381,-3.589675188064575,4.90999999999994
-3.1733875274658203,-3.719985008239746,-3.144636631011963,4.9199999999999395
-2.7879910469055176,-3.5769171714782715,-2.6640076637268066,4.929999999999939
-2.4587793350219727,-3.467195510864258,-2.038902521133423,4.939999999999939
-2.142517328262329,-3.381742000579834,-1.5289981365203857,4.949999999999939
-1.8513514995574951,-3.4045820236206055,-1.1619901657104492,4.959999999999939
-1.6695234775543213,-3.488015651702881,-0.9273891448974609,4.9699999999999385
-1.5572948455810547,-3.6368565559387207,-0.702505350112915,4.979999999999938
-1.5008512735366821,-3.8461952209472656,-0.5517580509185791,4.989999999999938
-1.3589469194412231,-4.096774101257324,-0.477508544921875,4.999999999999938
-1.1909834146499634,-4.3525309562683105,-0.46567726135253906,5.009999999999938
-0.9221148490905762,-4.615670680999756,-0.4497189521789551,5.019999999999937
-0.6856768131256104,-4.87883996963501,-0.4133107662200928,5.029999999999937
-0.5120181441307068,-5.139591217041016,-0.34699463844299316,5.039999999999937
-0.31434017419815063,-5.390596389770508,-0.2630324363708496,5.049999999999937
-0.2956457734107971,-5.375790119171143,-0.24541950225830078,5.0599999999999365
-0.46975982189178467,-5.5327558517456055,-0.22762060165405273,5.069999999999936
-0.6061297059059143,-5.961173057556152,-0.2969191074371338,5.079999999999936
-0.8104343414306641,-5.964409828186035,-0.3319871425628662,5.089999999999936
-1.054611325263977,-5.604761600494385,-0.22334742546081543,5.099999999999936
-1.1773548126220703,-5.699975490570068,-0.185197114944458,5.1099999999999355
-1.214059591293335,-5.428915023803711,-0.13950514793395996,5.119999999999935
-1.1241605281829834,-4.712907791137695,-0.01954483985900879,5.129999999999935
-0.9742391109466553,-3.9659461975097656,0.09298253059387207,5.139999999999935
-0.6093027591705322,-2.867391586303711,0.12136602401733398,5.149999999999935
-0.24198713898658752,-1.460317611694336,0.14656710624694824,5.159999999999934
0.18212750554084778,0.18365764617919922,0.06961202621459961,5.169999999999934
0.3385426700115204,1.7755050659179688,0.07304263114929199,5.179999999999934
0.724632740020752,3.77744197845459,-0.0015189647674560547,5.189999999999934
0.9137060046195984,5.677867889404297,0.11059188842773438,5.199999999999934
1.0529953241348267,7.682955741882324,0.4084742069244385,5.209999999999933
1.1467044353485107,9.797408103942871,1.0836679935455322,5.219999999999933
1.2878814935684204,11.709966659545898,2.3193323612213135,5.229999999999933
1.51093327999115,13.187987327575684,4.186868667602539,5.239999999999933
2.1017162799835205,13.302321434020996,7.290593147277832,5.2499999999999325
2.5089569091796875,11.218164443969727,10.424752235412598,5.259999999999932
2.8396263122558594,8.206785202026367,12.281401634216309,5.269999999999932
2.8137004375457764,5.641909599304199,12.130414962768555,5.279999999999932
2.547529935836792,4.051947593688965,10.704160690307617,5.289999999999932
2.3896851539611816,3.252020835876465,8.667486190795898,5.299999999999931
2.260411500930786,2.736935615539551,6.531835556030273,5.309999999999931
2.0250227451324463,2.2844791412353516,4.307395935058594,5.319999999999931
1.821828842163086,1.9312744140625,2.1654000282287598,5.329999999999931
1.4344640970230103,1.8478975296020508,0.28344011306762695,5.339999999999931
0.8683123588562012,2.087240219116211,-1.1838898658752441,5.34999999999993
0.2524759769439697,2.675018310546875,-2.021404981613159,5.35999999999993
-0.4748702943325043,3.5572996139526367,-2.3865954875946045,5.36999999999993
-0.9106099605560303,4.301887512207031,-2.4752964973449707,5.37999999999993
-1.0362749099731445,4.756587028503418,-2.431736469268799,5.3899999999999295
-1.1986732482910156,5.190340995788574,-2.2401716709136963,5.399999999999929
-1.6128883361816406,5.4062347412109375,-2.224622964859009,5.409999999999929
-2.014218330383301,5.082038879394531,-2.624423027038574,5.419999999999929
-2.7857675552368164,4.643159866333008,-3.1164917945861816,5.429999999999929
-3.7509496212005615,3.6427040100097656,-3.4880049228668213,5.4399999999999284
-4.706058502197266,1.9738073348999023,-3.656589984893799,5.449999999999928
-5.112908363342285,-0.33359718322753906,-3.5290591716766357,5.459999999999928
-5.055974006652832,-2.5323257446289062,-2.9904909133911133,5.469999999999928
-4.49833869934082,-4.076694011688232,-2.660696029663086,5.479999999999928
-3.706531524658203,-5.104287624359131,-2.7126035690307617,5.489999999999927
-2.8310108184814453,-5.785033226013184,-3.1015400886535645,5.499999999999927
-1.9268970489501953,-6.13265323638916,-3.810636281967163,5.509999999999927
-1.2678288221359253,-6.230161666870117,-4.594965934753418,5.519999999999927
-0.9384009838104248,-6.010009765625,-5.35856819152832,5.5299999999999265
-0.870776355266571,-5.593880653381348,-5.943145275115967,5.539999999999926
-0.7710874080657959,-5.101208686828613,-6.208329677581787,5.549999999999926
-0.7083185315132141,-4.512876510620117,-6.2696332931518555,5.559999999999926
-0.6922950148582458,-3.8243165016174316,-6.21817684173584,5.569999999999926
-0.809914231300354,-3.0979480743408203,-6.147997856140137,5.5799999999999255
-1.0795838832855225,-2.4223928451538086,-6.013598918914795,5.589999999999925
-1.6017961502075195,-1.5514802932739258,-5.744888782501221,5.599999999999925
-2.272027015686035,-0.6077756881713867,-5.134580612182617,5.609999999999925
-2.8613178730010986,0.4222221374511719,-4.081165313720703,5.619999999999925
-3.824903726577759,1.4866456985473633,-1.613004207611084,5.629999999999924
-4.79469108581543,2.6695175170898438,1.5181872844696045,5.639999999999924
-5.314321517944336,3.6797637939453125,3.797149658203125,5.649999999999924
-4.836235523223877,4.275724411010742,4.350235462188721,5.659999999999924
-3.6925830841064453,4.152585983276367,3.6825475692749023,5.6699999999999235
-2.7121047973632812,3.2525529861450195,2.70999813079834,5.679999999999923
-2.169675350189209,2.029512405395508,1.8143815994262695,5.689999999999923
-1.6140180826187134,0.8577442169189453,0.6486519575119019,5.699999999999923
-0.855400800704956,-0.08997821807861328,-0.40660327672958374,5.709999999999923
0.007000565528869629,-0.7776117324829102,-1.2558584213256836,5.7199999999999225
0.7374104261398315,-1.1215009689331055,-1.9245669841766357,5.729999999999922
1.0274955034255981,-1.2056970596313477,-2.2431232929229736,5.739999999999922
0.9261796474456787,-1.128727912902832,-2.2155003547668457,5.749999999999922
0.5097910761833191,-1.0201911926269531,-2.0626518726348877,5.759999999999922
-0.05224609375,-0.9712285995483398,-1.926393747329712,5.769999999999921
-0.4439220428466797,-0.9579324722290039,-1.9250918626785278,5.779999999999921
-0.5538476705551147,-0.9777736663818359,-2.031477451324463,5.789999999999921
-0.5743409395217896,-0.9875516891479492,-2.185006618499756,5.799999999999921
-0.6241467595100403,-1.0948209762573242,-2.3205461502075195,5.809999999999921
-0.7295888662338257,-1.1249446868896484,-2.325160503387451,5.81999999999992
-0.8338768482208252,-1.1737537384033203,-2.128906011581421,5.82999999999992
-0.7656336426734924,-1.301100730895996,-1.82188880443573,5.83999999999992
-0.5880260467529297,-1.3443803787231445,-1.448648452758789,5.84999999999992
-0.33756744861602783,-1.451991081237793,-1.0347028970718384,5.8599999999999195
0.023601293563842773,-1.573648452758789,-0.7185375690460205,5.869999999999919
0.41372668743133545,-1.6543302536010742,-0.48380589485168457,5.879999999999919
0.6629019379615784,-1.5960264205932617,-0.3025485873222351,5.889999999999919
0.9291519522666931,-1.5901622772216797,-0.18077200651168823,5.899999999999919
0.9374910593032837,-1.4238557815551758,0.005226681008934975,5.909999999999918
0.8508577942848206,-1.0470924377441406,0.28380557894706726,5.919999999999918
0.6982923150062561,-0.6083593368530273,0.5449531078338623,5.929999999999918
0.5399935841560364,-0.2894124984741211,0.7149045467376709,5.939999999999918
0.36410951614379883,-0.10203933715820312,0.7222403287887573,5.949999999999918
0.38356339931488037,-0.07474708557128906,0.5430951714515686,5.959999999999917
0.4381885528564453,-0.13077831268310547,0.24440796673297882,5.969999999999917
0.5185537934303284,-0.24848175048828125,-0.07106320559978485,5.979999999999917
0.4903911352157593,-0.4278078079223633,-0.22858834266662598,5.989999999999917
0.3698752522468567,-0.47028636932373047,-0.3093273341655731,5.9999999999999165
0.06318771839141846,-0.35464000701904297,-0.3871951401233673,6.009999999999916
0.25979089736938477,-0.3152914047241211,-0.3518870770931244,6.019999999999916
0.4022923707962036,-0.3688087463378906,-0.24879249930381775,6.029999999999916
0.488603413105011,-0.3835124969482422,-0.13780349493026733,6.039999999999916
0.5547751784324646,-0.4454917907714844,0.09581047296524048,6.0499999999999154
0.612846851348877,-0.6646566390991211,0.38711461424827576,6.059999999999915
0.7515183687210083,-0.7945060729980469,0.6087028384208679,6.069999999999915
0.8010836243629456,-0.9379796981811523,0.8052005767822266,6.079999999999915
0.771040678024292,-1.090341567993164,0.9903449416160583,6.089999999999915
0.756702184677124,-0.9288501739501953,1.15935480594635,6.099999999999914
0.7794255018234253,-0.9608430862426758,1.2953886985778809,6.109999999999914
0.7745198011398315,-0.889582633972168,1.3437201976776123,6.119999999999914
0.8039932250976562,-0.6888751983642578,1.4485681056976318,6.129999999999914
0.6591681241989136,-0.28240108489990234,1.5079429149627686,6.1399999999999135
0.6148374080657959,0.1813220977783203,1.5967116355895996,6.149999999999913
0.6371890306472778,0.7069883346557617,1.6312892436981201,6.159999999999913
0.7022155523300171,1.1175193786621094,1.5824682712554932,6.169999999999913
0.7450675964355469,1.1833620071411133,1.5353622436523438,6.179999999999913
1.0434952974319458,1.0531129837036133,1.433603048324585,6.1899999999999125
1.291233777999878,0.8153257369995117,1.3020596504211426,6.199999999999912
1.514540195465088,0.5369396209716797,1.1781680583953857,6.209999999999912
1.7394717931747437,0.2896127700805664,1.0712194442749023,6.219999999999912
1.8842823505401611,0.1927490234375,1.0101377964019775,6.229999999999912
2.025484085083008,0.11219978332519531,0.9613542556762695,6.239999999999911
2.3619513511657715,0.16752147674560547,0.9101191163063049,6.249999999999911
2.6879093647003174,0.40157318115234375,0.9136199951171875,6.259999999999911
3.0078492164611816,0.6993026733398438,0.9911922812461853,6.269999999999911
3.49552059173584,1.007986068725586,1.278143286705017,6.2799999999999105
3.934389114379883,1.425553321838379,1.5201960802078247,6.28999999999991
4.37839412689209,1.968435287475586,1.4389541149139404,6.29999999999991
4.6351189613342285,2.208219528198242,1.0618633031845093,6.30999999999991
4.70350456237793,2.398374557495117,0.6260932683944702,6.31999999999991
4.80303955078125,2.3473615646362305,0.2839014530181885,6.3299999999999095
4.878424644470215,2.0791826248168945,0.179864764213562,6.339999999999909
5.030623912811279,1.775832176208496,0.44625985622406006,6.349999999999909
5.365673065185547,1.602421760559082,0.6336812973022461,6.359999999999909
5.798956871032715,1.487502098083496,1.038346529006958,6.369999999999909
6.183670520782471,1.5463409423828125,1.4530431032180786,6.379999999999908
6.222161293029785,1.8796358108520508,1.7860829830169678,6.389999999999908
6.056662082672119,2.348647117614746,1.9140205383300781,6.399999999999908
5.584810733795166,2.8002119064331055,1.9061086177825928,6.409999999999908
5.04622220993042,3.3275489807128906,1.832934856414795,6.419999999999908
4.343239784240723,3.834855079650879,1.8094723224639893,6.429999999999907
3.720238208770752,4.164278030395508,1.6511552333831787,6.439999999999907
2.945072650909424,4.155769348144531,1.3675121068954468,6.449999999999907
2.421571969985962,3.8743085861206055,0.9067469835281372,6.459999999999907
1.6100711822509766,3.4349632263183594,0.3643551766872406,6.4699999999999065
1.2773975133895874,3.02219295501709,-0.0887250304222107,6.479999999999906
1.0631226301193237,2.650479316711426,-0.20186248421669006,6.489999999999906
0.7410029172897339,2.1261987686157227,0.10192865133285522,6.499999999999906
0.450996994972229,1.633681297302246,0.749119758605957,6.509999999999906
-0.2649836540222168,1.074742317199707,1.5861185789108276,6.519999999999905
-1.1400156021118164,0.5664920806884766,2.413951873779297,6.529999999999905
-2.1294925212860107,0.2739534378051758,2.983341932296753,6.539999999999905
-3.1690754890441895,0.5153779983520508,3.2591331005096436,6.549999999999905
-4.055521011352539,1.2956666946411133,3.4032609462738037,6.559999999999905
-4.6758809089660645,2.2755937576293945,3.3912181854248047,6.569999999999904
-4.787225723266602,3.032628059387207,3.2780938148498535,6.579999999999904
-4.937971115112305,3.5508975982666016,3.087641716003418,6.589999999999904
-5.02025842666626,3.8906373977661133,2.731933832168579,6.599999999999904
-5.009687423706055,4.003965377807617,2.381446361541748,6.6099999999999035
-4.930269241333008,3.9455299377441406,1.719809889793396,6.619999999999903
-4.852079391479492,3.9443607330322266,0.6635726690292358,6.629999999999903
-4.853439807891846,4.0449934005737305,-0.5153394937515259,6.639999999999903
-4.762338638305664,4.188982009887695,-1.7868916988372803,6.649999999999903
-4.47839879989624,4.454424858093262,-2.9328229427337646,6.659999999999902
-4.262417316436768,4.625412940979004,-3.874485731124878,6.669999999999902
-3.994070053100586,4.711315155029297,-4.531522750854492,6.679999999999902
-3.6273794174194336,4.635688781738281,-4.807811737060547,6.689999999999902
-3.39465594291687,4.442011833190918,-4.785204887390137,6.699999999999902
-3.1609764099121094,4.212241172790527,-4.574976921081543,6.709999999999901
-2.760258913040161,3.693692207336426,-4.257730960845947,6.719999999999901
-1.8230825662612915,2.952122688293457,-3.7247209548950195,6.729999999999901
-0.5245605111122131,2.285215377807617,-2.96968150138855,6.739999999999901
0.45562857389450073,1.8395967483520508,-2.0094637870788574,6.7499999999999005
1.3778842687606812,1.713547706604004,-0.9619215726852417,6.7599999999999
2.2200639247894287,1.6198596954345703,0.07829642295837402,6.7699999999999
3.055433750152588,1.4866352081298828,0.9285299777984619,6.7799999999999
3.7454683780670166,1.2583427429199219,1.5289428234100342,6.7899999999999
4.252849102020264,0.9032440185546875,1.8029546737670898,6.7999999999998995
4.37975549697876,0.7219810485839844,1.7428834438323975,6.809999999999899
4.386713981628418,0.4312419891357422,1.5492141246795654,6.819999999999899
4.037404537200928,0.21663379669189453,1.2240478992462158,6.829999999999899
3.0728423595428467,0.14901351928710938,0.7091968059539795,6.839999999999899
2.099879026412964,0.06760978698730469,0.09857606887817383,6.849999999999898
1.2710806131362915,-0.053879737854003906,-0.5796449184417725,6.859999999999898
0.70135498046875,-0.19388675689697266,-1.1898653507232666,6.869999999999898
-0.019146084785461426,-0.5675210952758789,-1.6203229427337646,6.879999999999898
-0.27740317583084106,-0.7678089141845703,-2.11630916595459,6.8899999999998975
-0.5201764702796936,-0.9482641220092773,-2.4410200119018555,6.899999999999897
-0.773145318031311,-0.7912807464599609,-2.658792495727539,6.909999999999897
-0.9796139001846313,-1.1532306671142578,-2.901479959487915,6.919999999999897
-1.4377659559249878,-1.617236614227295,-3.159579277038574,6.929999999999897
-1.6865108013153076,-1.7262778282165527,-3.4860329627990723,6.9399999999998965
-2.2345118522644043,-2.0376663208007812,-3.8379435539245605,6.949999999999896
-2.750600814819336,-2.426396369934082,-4.203869342803955,6.959999999999896
-3.2621004581451416,-2.7915005683898926,-4.6324005126953125,6.969999999999896
-3.822657585144043,-3.1181583404541016,-5.074134349822998,6.979999999999896
-4.382809638977051,-3.492025852203369,-5.43907356262207,6.989999999999895
-4.876460552215576,-3.855225086212158,-5.754383563995361,6.999999999999895
-5.3261003494262695,-4.159535884857178,-6.01603889465332,7.009999999999895
-5.7946696281433105,-4.550480842590332,-6.239182472229004,7.019999999999895
-6.177602767944336,-4.793473720550537,-6.275729179382324,7.0299999999998946
-6.482632160186768,-4.986672401428223,-6.192828178405762,7.039999999999894
-6.702927589416504,-5.139849662780762,-5.892125606536865,7.049999999999894
-6.315561294555664,-5.107664585113525,-5.5406341552734375,7.059999999999894
-5.480863571166992,-4.977267265319824,-5.070375442504883,7.069999999999894
-4.625424385070801,-4.902805328369141,-4.377010345458984,7.0799999999998935
-3.8175909519195557,-4.8468523025512695,-3.7269628047943115,7.089999999999893
-3.196068048477173,-4.838862895965576,-3.073093891143799,7.099999999999893
-2.720639944076538,-4.898616790771484,-2.382699728012085,7.109999999999893
-2.300966262817383,-5.062468528747559,-1.7788231372833252,7.119999999999893
-1.9443187713623047,-5.2662529945373535,-1.2650325298309326,7.129999999999892
-1.5641446113586426,-5.479283332824707,-0.7997093200683594,7.139999999999892
-1.2218800783157349,-5.685142993927002,-0.4204525947570801,7.149999999999892
-1.0315120220184326,-5.855255126953125,-0.12692689895629883,7.159999999999892
-0.994331955909729,-5.953724384307861,0.06892800331115723,7.169999999999892
-1.0015501976013184,-6.05451774597168,0.21469449996948242,7.179999999999891
-1.0543047189712524,-6.135778427124023,0.3195052146911621,7.189999999999891
-1.225520372390747,-6.2448625564575195,0.4185750484466553,7.199999999999891
-1.464504599571228,-6.20893669128418,0.5565736293792725,7.209999999999891
-1.629669189453125,-6.208921432495117,0.6912388801574707,7.2199999999998905
-1.8880116939544678,-6.21737003326416,0.8015563488006592,7.22999999999989
-2.0030508041381836,-5.998990058898926,0.9554424285888672,7.23999999999989
-2.256868600845337,-5.730157852172852,1.084489345550537,7.24999999999989
-2.396623373031616,-5.180755615234375,1.1999273300170898,7.25999999999989
-2.260930299758911,-4.264726161956787,1.3089652061462402,7.269999999999889
-2.1161186695098877,-3.1472911834716797,1.3639640808105469,7.279999999999889
-1.640869140625,-1.814192295074463,1.4179790019989014,7.289999999999889
-0.9986447691917419,-0.18656253814697266,1.4614229202270508,7.299999999999889
-0.3755243420600891,1.6998929977416992,1.3564932346343994,7.309999999999889
0.20951177179813385,3.5563249588012695,1.2051975727081299,7.319999999999888
0.7246896028518677,6.105928421020508,0.9903841018676758,7.329999999999888
1.076310634613037,9.260390281677246,0.880500316619873,7.339999999999888
1.1937427520751953,13.007640838623047,1.111259937286377,7.349999999999888
1.4334311485290527,16.438003540039062,2.2128777503967285,7.3599999999998875
1.8623555898666382,18.52459144592285,3.9069104194641113,7.369999999999887
2.588681697845459,18.501697540283203,6.00828218460083,7.379999999999887
3.1573410034179688,14.289905548095703,7.739902496337891,7.389999999999887
3.3839776515960693,8.80591106414795,8.454913139343262,7.399999999999887
3.2711501121520996,4.989314079284668,8.55787181854248,7.4099999999998865
3.0714735984802246,2.8086557388305664,8.160697937011719,7.419999999999886
2.9199323654174805,1.9097137451171875,7.346242427825928,7.429999999999886
2.865846872329712,1.5562305450439453,6.29477596282959,7.439999999999886
2.8512470722198486,1.3457508087158203,5.031329154968262,7.449999999999886
2.605005979537964,0.9940853118896484,3.5378992557525635,7.459999999999885
1.8117533922195435,0.5432014465332031,1.915954828262329,7.469999999999885
0.697655200958252,-0.11053180694580078,0.23424339294433594,7.479999999999885
-0.6161606311798096,-0.6236581802368164,-1.1250261068344116,7.489999999999885
-1.811737060546875,-1.002730369567871,-2.058305263519287,7.4999999999998845
-2.7629430294036865,-1.2023544311523438,-2.3639285564422607,7.509999999999884
-3.349883556365967,-1.2592191696166992,-2.033494472503662,7.519999999999884
-3.6522154808044434,-1.1434125900268555,-1.1739169359207153,7.529999999999884
-3.7552056312561035,-0.7510347366333008,-0.16149425506591797,7.539999999999884
-3.85768461227417,0.021979331970214844,0.6078414916992188,7.5499999999998835
-3.9155170917510986,1.0553083419799805,0.6889803409576416,7.559999999999883
-4.279363632202148,2.3371410369873047,-0.10030603408813477,7.569999999999883
-4.571278095245361,3.674616813659668,-1.4116387367248535,7.579999999999883
-4.961435794830322,4.825356483459473,-2.679507255554199,7.589999999999883
-5.396698474884033,5.650315284729004,-3.532423257827759,7.599999999999882
-5.661354064941406,6.115285873413086,-3.992830276489258,7.609999999999882
-5.460064888000488,5.938065528869629,-4.087527751922607,7.619999999999882
-4.566646575927734,4.865987777709961,-3.677597999572754,7.629999999999882
-2.887392520904541,3.215604782104492,-2.8538570404052734,7.6399999999998816
-1.2953094244003296,1.234745979309082,-2.1561496257781982,7.649999999999881
0.05356597900390625,-0.6342535018920898,-1.8752624988555908,7.659999999999881
1.110936164855957,-2.214198589324951,-1.9898024797439575,7.669999999999881
1.7778148651123047,-3.480663299560547,-2.4044349193573,7.679999999999881
2.220489025115967,-4.423461437225342,-2.9412357807159424,7.6899999999998805
2.3459904193878174,-5.094736576080322,-3.4701032638549805,7.69999999999988
2.1896088123321533,-5.584870338439941,-4.009804725646973,7.70999999999988
1.5345782041549683,-5.800060272216797,-4.345234394073486,7.71999999999988
0.5470213294029236,-5.7806243896484375,-4.469389915466309,7.72999999999988
-0.40629616379737854,-5.612489700317383,-4.419288635253906,7.739999999999879
-1.2728407382965088,-5.240760326385498,-4.255552291870117,7.749999999999879
-2.0031886100769043,-4.6922287940979,-3.871122360229492,7.759999999999879
-2.637507915496826,-3.9293131828308105,-3.4110617637634277,7.769999999999879
-3.041344165802002,-3.0269641876220703,-2.8546090126037598,7.779999999999879
-3.326498031616211,-1.847311019897461,-2.2453365325927734,7.789999999999878
-3.3202664852142334,-0.5563430786132812,-1.7372450828552246,7.799999999999878
-3.130006790161133,0.7660932540893555,-1.2088556289672852,7.809999999999878
-2.6522326469421387,2.011384963989258,-0.33238518238067627,7.819999999999878
-2.0892553329467773,2.9635114669799805,0.49478936195373535,7.8299999999998775
-1.5739428997039795,3.6318702697753906,0.7611793279647827,7.839999999999877
-1.096024751663208,3.815927505493164,0.42389976978302,7.849999999999877
-0.7507067918777466,3.6050796508789062,-0.29201674461364746,7.859999999999877
-0.3716341257095337,2.9670114517211914,-1.2593491077423096,7.869999999999877
0.11748981475830078,2.161283493041992,-2.2225418090820312,7.879999999999876
0.4892386198043823,1.4301576614379883,-2.9470534324645996,7.889999999999876
0.8081716895103455,0.9101324081420898,-3.326633930206299,7.899999999999876
1.1509191989898682,0.5436878204345703,-3.4215688705444336,7.909999999999876
1.5612869262695312,0.19443321228027344,-3.2311697006225586,7.919999999999876
2.1223273277282715,-0.0729074478149414,-2.8809051513671875,7.929999999999875
2.7264890670776367,-0.25580692291259766,-2.304006576538086,7.939999999999875
3.2407796382904053,-0.5310449600219727,-1.5785114765167236,7.949999999999875
3.634922504425049,-0.8433132171630859,-0.8269944787025452,7.959999999999875
3.0924742221832275,-1.1687040328979492,-0.12145507335662842,7.9699999999998745
1.8191781044006348,-1.3257665634155273,0.3534508943557739,7.979999999999874
0.5822252035140991,-1.3508100509643555,0.5201243162155151,7.989999999999874
-0.24810445308685303,-1.3301200866699219,0.3599705100059509,7.999999999999874
