AccX,AccY,AccZ,SampleRate
-2.1648547649383545,1.756570816040039,-1.8320592641830444,0
-2.283816337585449,2.0642080307006836,-2.349853515625,0.01
-2.2430264949798584,2.493040084838867,-2.970524311065674,0.02
-2.1647188663482666,2.918583869934082,-3.582676410675049,0.03
-2.1134793758392334,3.326441764831543,-4.048178672790527,0.04
-2.1009535789489746,3.6903371810913086,-4.27457332611084,0.05
-1.9471814632415771,4.079827308654785,-4.169971466064453,0.060000000000000005
-1.8103649616241455,4.263326644897461,-3.7487545013427734,0.07
-1.380164623260498,4.253739356994629,-3.1410226821899414,0.08
-0.5742068886756897,3.822299003601074,-2.368210554122925,0.09
0.17528294026851654,3.0102291107177734,-1.3706570863723755,0.09999999999999999
0.8515797853469849,2.307973861694336,-0.4821779727935791,0.10999999999999999
1.2904438972473145,1.6698026657104492,0.13569855690002441,0.11999999999999998
1.663644552230835,1.4256744384765625,0.31104326248168945,0.12999999999999998
1.978063702583313,1.1901817321777344,0.2927815914154053,0.13999999999999999
2.0146636962890625,0.915257453918457,0.24190616607666016,0.15
2.103067398071289,1.0740203857421875,0.05396437644958496,0.16
2.0795960426330566,1.0771865844726562,-0.09052777290344238,0.17
1.6215109825134277,1.0895757675170898,-0.22211551666259766,0.18000000000000002
1.179258108139038,1.079935073852539,-0.4748876094818115,0.19000000000000003
0.7674205899238586,1.019547462463379,-0.6554334163665771,0.20000000000000004
0.26353174448013306,0.7984619140625,-0.8406469821929932,0.21000000000000005
-0.14303463697433472,0.5605287551879883,-1.1176173686981201,0.22000000000000006
-0.41759711503982544,0.5112237930297852,-1.4002970457077026,0.23000000000000007
-0.7490068674087524,0.2651386260986328,-1.6741396188735962,0.24000000000000007
-1.036840796470642,0.016042709350585938,-1.9413636922836304,0.25000000000000006
-1.322469711303711,-0.36054229736328125,-2.2064144611358643,0.26000000000000006
-1.59275484085083,-0.7114877700805664,-2.4498496055603027,0.2700000000000001
-1.9543510675430298,-1.2662944793701172,-2.6812245845794678,0.2800000000000001
-2.143226146697998,-1.6970767974853516,-2.8095126152038574,0.2900000000000001
-2.5227463245391846,-2.1878108978271484,-3.0383782386779785,0.3000000000000001
-2.941554546356201,-2.6926279067993164,-3.2486307621002197,0.3100000000000001
-3.3313684463500977,-3.1250624656677246,-3.4625003337860107,0.3200000000000001
-3.7959485054016113,-3.561476707458496,-3.6468849182128906,0.3300000000000001
-4.203821659088135,-3.858327865600586,-3.6752207279205322,0.34000000000000014
-4.619126796722412,-4.1186652183532715,-3.585906744003296,0.35000000000000014
-4.871431350708008,-4.321146011352539,-3.536721706390381,0.36000000000000015
-4.910128593444824,-4.37047815322876,-3.381190299987793,0.37000000000000016
-4.768002510070801,-4.276858329772949,-3.2118749618530273,0.38000000000000017
-4.201979637145996,-4.167604923248291,-3.1407041549682617,0.3900000000000002
-3.593636989593506,-4.105313777923584,-3.035547971725464,0.4000000000000002
-3.1626381874084473,-4.159692764282227,-2.7880053520202637,0.4100000000000002
-2.755570411682129,-4.173114776611328,-2.526693105697632,0.4200000000000002
-2.3602535724639893,-4.1865105628967285,-2.296623706817627,0.4300000000000002
-1.9764950275421143,-4.2143683433532715,-2.12141752243042,0.4400000000000002
-1.6879522800445557,-4.237616062164307,-1.9028136730194092,0.45000000000000023
-1.4755511283874512,-4.215624809265137,-1.6670494079589844,0.46000000000000024
-1.363077163696289,-4.193840026855469,-1.4572410583496094,0.47000000000000025
-1.2952895164489746,-4.145930767059326,-1.2685909271240234,0.48000000000000026
-1.2790626287460327,-4.019266128540039,-1.0772521495819092,0.49000000000000027
-1.3356884717941284,-3.8783702850341797,-0.9623570442199707,0.5000000000000002
-1.45271897315979,-3.746962070465088,-0.9027550220489502,0.5100000000000002
-1.6033155918121338,-3.6774115562438965,-0.896477460861206,0.5200000000000002
-1.801328420639038,-3.6383118629455566,-0.9200794696807861,0.5300000000000002
-2.0269837379455566,-3.672515392303467,-0.9833893775939941,0.5400000000000003
-2.2320070266723633,-3.7725725173950195,-1.055577278137207,0.5500000000000003
-2.492649555206299,-3.9118599891662598,-1.1154916286468506,0.5600000000000003
-2.7347443103790283,-3.9727935791015625,-1.163792371749878,0.5700000000000003
-2.8869473934173584,-3.914330005645752,-1.2157689332962036,0.5800000000000003
-2.9852778911590576,-3.9488062858581543,-1.225043535232544,0.5900000000000003
-2.965066909790039,-3.819766044616699,-1.1881200075149536,0.6000000000000003
-2.841101884841919,-3.5222206115722656,-1.0820691585540771,0.6100000000000003
-2.583204746246338,-2.9220829010009766,-0.9843409061431885,0.6200000000000003
-2.125938653945923,-2.0696916580200195,-0.8236002922058105,0.6300000000000003
-1.6646313667297363,-1.0226125717163086,-0.6001009941101074,0.6400000000000003
-1.1265273094177246,0.1304759979248047,-0.3545677661895752,0.6500000000000004
-0.6949508190155029,1.284250259399414,-0.0655665397644043,0.6600000000000004
-0.29489395022392273,2.4411392211914062,0.23306846618652344,0.6700000000000004
0.07873948663473129,3.555818557739258,0.5143239498138428,0.6800000000000004
0.33533793687820435,4.616483688354492,0.8682103157043457,0.6900000000000004
0.5682874917984009,5.582492828369141,1.308501958847046,0.7000000000000004
0.8496983647346497,6.355650901794434,1.8592069149017334,0.7100000000000004
1.130769968032837,6.842401504516602,2.526207447052002,0.7200000000000004
1.505632758140564,7.013728141784668,3.4619688987731934,0.7300000000000004
1.9881197214126587,6.6112060546875,4.534119606018066,0.7400000000000004
2.3245248794555664,5.393617630004883,5.502501010894775,0.7500000000000004
2.383119583129883,3.806149482727051,6.469759941101074,0.7600000000000005
2.1224746704101562,2.456083297729492,6.950015068054199,0.7700000000000005
1.6624935865402222,1.5124797821044922,6.885538101196289,0.7800000000000005
1.2441041469573975,1.1059999465942383,6.3188982009887695,0.7900000000000005
1.0794233083724976,1.0945978164672852,5.357122898101807,0.8000000000000005
1.16340172290802,1.2838497161865234,4.147799491882324,0.8100000000000005
1.3104920387268066,1.477431297302246,2.87591290473938,0.8200000000000005
1.5756778717041016,1.7091941833496094,1.6436731815338135,0.8300000000000005
1.8566217422485352,1.8770990371704102,0.3697059154510498,0.8400000000000005
1.9836223125457764,2.0684070587158203,-0.8660444021224976,0.8500000000000005
1.773759365081787,2.2553911209106445,-1.866637110710144,0.8600000000000005
1.188843011856079,2.4937973022460938,-2.492173433303833,0.8700000000000006
0.5341683030128479,2.817418098449707,-2.651902914047241,0.8800000000000006
-0.07449406385421753,3.144831657409668,-2.3922905921936035,0.8900000000000006
-0.49481290578842163,3.456594467163086,-1.8707623481750488,0.9000000000000006
-0.7577600479125977,3.4723825454711914,-1.2694494724273682,0.9100000000000006
-0.8717600107192993,3.4021644592285156,-0.6900043487548828,0.9200000000000006
-1.018999695777893,3.2501001358032227,-0.2316272258758545,0.9300000000000006
-1.2283169031143188,2.9776687622070312,-0.0354388952255249,0.9400000000000006
-1.5245238542556763,2.5805559158325195,-0.14743173122406006,0.9500000000000006
-2.0773844718933105,2.103015899658203,-0.6293607950210571,0.9600000000000006
-2.6546502113342285,1.3361434936523438,-1.124666452407837,0.9700000000000006
-3.2821569442749023,0.48950767517089844,-1.4205536842346191,0.9800000000000006
-3.739912509918213,-0.3505105972290039,-1.4504735469818115,0.9900000000000007
-3.918747663497925,-1.1992816925048828,-1.183945894241333,1.0000000000000007
-3.8481569290161133,-1.8695144653320312,-0.7825272679328918,1.0100000000000007
-3.6231837272644043,-2.413060188293457,-0.46087050437927246,1.0200000000000007
-3.3607003688812256,-2.888263702392578,-0.3865128755569458,1.0300000000000007
-2.9541306495666504,-3.4460206031799316,-0.5027316808700562,1.0400000000000007
-2.034668445587158,-3.767940044403076,-0.8648018836975098,1.0500000000000007
-1.2280151844024658,-3.9063515663146973,-1.2639256715774536,1.0600000000000007
-0.7633212804794312,-3.827394962310791,-1.697746992111206,1.0700000000000007
-0.6722192764282227,-3.535435199737549,-2.1910862922668457,1.0800000000000007
-0.877108633518219,-3.056328773498535,-2.688154697418213,1.0900000000000007
-1.169468879699707,-2.7578892707824707,-3.109457492828369,1.1000000000000008
-1.592543363571167,-2.3525190353393555,-3.4057154655456543,1.1100000000000008
-2.011105537414551,-1.9549689292907715,-3.5476279258728027,1.1200000000000008
-2.455976963043213,-1.6036262512207031,-3.6428394317626953,1.1300000000000008
-2.826503276824951,-1.1696643829345703,-3.5486583709716797,1.1400000000000008
-3.064861297607422,-0.6727972030639648,-3.4012889862060547,1.1500000000000008
-3.184323310852051,-0.044241905212402344,-3.188279628753662,1.1600000000000008
-2.9921298027038574,0.528895378112793,-2.9596669673919678,1.1700000000000008
-2.5750350952148438,0.9864530563354492,-2.616875648498535,1.1800000000000008
-2.031252861022949,1.569523811340332,-1.7854604721069336,1.1900000000000008
-1.3945454359054565,2.095792770385742,-1.0512830018997192,1.2000000000000008
-0.8620657920837402,2.409510612487793,-0.34276556968688965,1.2100000000000009
-0.2795666456222534,2.6016149520874023,0.1516416072845459,1.2200000000000009
0.20768606662750244,2.490504264831543,0.292333722114563,1.2300000000000009
0.5311833620071411,2.1938161849975586,0.07991015911102295,1.2400000000000009
0.7424561381340027,1.8195581436157227,-0.5380722284317017,1.2500000000000009
0.986758291721344,1.3871841430664062,-1.284122109413147,1.260000000000001
1.1396691799163818,0.8922481536865234,-2.0626940727233887,1.270000000000001
1.3454910516738892,0.4379310607910156,-2.6319379806518555,1.280000000000001
1.529359221458435,0.10581111907958984,-2.9815430641174316,1.290000000000001
1.7319327592849731,-0.04895782470703125,-3.0045695304870605,1.300000000000001
2.0011723041534424,-0.1052236557006836,-2.6199591159820557,1.310000000000001
2.32783842086792,-0.21346187591552734,-2.0000429153442383,1.320000000000001
2.516378402709961,-0.39250659942626953,-1.1342666149139404,1.330000000000001
2.1694388389587402,-0.5441904067993164,-0.2504445016384125,1.340000000000001
1.0839022397994995,-0.5898399353027344,0.42374491691589355,1.350000000000001
-0.09031641483306885,-0.6277961730957031,0.6736845374107361,1.360000000000001
-0.8830922842025757,-0.7154865264892578,0.38840582966804504,1.370000000000001
-1.2762316465377808,-0.7021455764770508,-0.22356052696704865,1.380000000000001
-1.6125017404556274,-0.5161552429199219,-0.9342302083969116,1.390000000000001
-1.70292329788208,-0.6431179046630859,-1.4406909942626953,1.400000000000001
-1.5064208507537842,-0.8411102294921875,-1.790736436843872,1.410000000000001
-1.225861668586731,-1.0813283920288086,-1.8710575103759766,1.420000000000001
-0.9901036024093628,-1.3900442123413086,-1.7111879587173462,1.430000000000001
-0.8803373575210571,-1.7791595458984375,-1.4745848178863525,1.440000000000001
-0.7679574489593506,-1.9832592010498047,-1.05683434009552,1.450000000000001
-0.6202313899993896,-2.2513232231140137,-0.7038044929504395,1.460000000000001
-0.5264772176742554,-2.3729171752929688,-0.415693998336792,1.470000000000001
-0.41080808639526367,-2.324368476867676,-0.2075594961643219,1.480000000000001
-0.2905449867248535,-2.376133441925049,-0.09724128246307373,1.490000000000001
-0.2400074005126953,-2.1694416999816895,-0.03568888083100319,1.500000000000001
-0.13703930377960205,-1.771561622619629,0.029026156291365623,1.5100000000000011
-0.08176243305206299,-1.304642677307129,0.0776132270693779,1.5200000000000011
0.024233698844909668,-0.7663497924804688,0.10564079880714417,1.5300000000000011
0.13593029975891113,-0.3551626205444336,0.0563863180577755,1.5400000000000011
0.40706145763397217,0.008099555969238281,-0.13644851744174957,1.5500000000000012
0.5430454015731812,0.015027999877929688,-0.26880311965942383,1.5600000000000012
0.6010639667510986,0.03665447235107422,-0.42638880014419556,1.5700000000000012
0.6861588954925537,0.11359405517578125,-0.5227665305137634,1.5800000000000012
0.7910499572753906,0.14536666870117188,-0.5626727342605591,1.5900000000000012
0.9757101535797119,0.2898902893066406,-0.6013766527175903,1.6000000000000012
0.9765836596488953,0.1333150863647461,-0.43553975224494934,1.6100000000000012
1.0061712265014648,0.0178680419921875,-0.2113996148109436,1.6200000000000012
0.9827784299850464,-0.1259136199951172,0.04187744855880737,1.6300000000000012
1.0832979679107666,-0.3769407272338867,0.311796098947525,1.6400000000000012
1.111403465270996,-0.6203432083129883,0.5788938999176025,1.6500000000000012
1.2206876277923584,-0.7245597839355469,0.739983081817627,1.6600000000000013
1.2271242141723633,-1.0292720794677734,1.0008223056793213,1.6700000000000013
1.3154913187026978,-1.216120719909668,1.1531920433044434,1.6800000000000013
1.3735195398330688,-1.3497676849365234,1.2355475425720215,1.6900000000000013
1.2647987604141235,-1.415949821472168,1.300729513168335,1.7000000000000013
1.2907311916351318,-1.2952079772949219,1.3104796409606934,1.7100000000000013
1.145016074180603,-0.9375782012939453,1.2911713123321533,1.7200000000000013
0.9015820026397705,-0.3793048858642578,1.3551663160324097,1.7300000000000013
0.9218155145645142,0.29328441619873047,1.3393640518188477,1.7400000000000013
0.9091101884841919,0.6209630966186523,1.4084341526031494,1.7500000000000013
0.8418163061141968,0.8168430328369141,1.3796228170394897,1.7600000000000013
0.604999303817749,0.8498296737670898,1.3045120239257812,1.7700000000000014
0.7396684885025024,0.7894515991210938,1.189435362815857,1.7800000000000014
0.9011266231536865,0.65966796875,1.009878396987915,1.7900000000000014
1.0460315942764282,0.541752815246582,0.7775751352310181,1.8000000000000014
1.266925573348999,0.5383501052856445,0.5646552443504333,1.8100000000000014
1.527205228805542,0.5798912048339844,0.5154552459716797,1.8200000000000014
1.790217399597168,0.7044763565063477,0.6378986239433289,1.8300000000000014
2.0910439491271973,0.9190425872802734,0.9062885642051697,1.8400000000000014
2.5129222869873047,1.3406105041503906,1.373995304107666,1.8500000000000014
2.9884018898010254,1.8827810287475586,1.8093743324279785,1.8600000000000014
3.430887222290039,2.2917518615722656,1.8915152549743652,1.8700000000000014
3.7227680683135986,2.438333511352539,1.6366688013076782,1.8800000000000014
3.998086929321289,2.4016799926757812,1.2599092721939087,1.8900000000000015
4.187565326690674,2.265727996826172,0.8619259595870972,1.9000000000000015
4.143378257751465,2.035496711730957,0.5052396655082703,1.9100000000000015
4.13201904296875,1.8882579803466797,0.07738709449768066,1.9200000000000015
4.168639183044434,1.7237319946289062,-0.2993839979171753,1.9300000000000015
3.928171157836914,1.678375244140625,-0.36353981494903564,1.9400000000000015
3.6188740730285645,1.7808427810668945,-0.15707123279571533,1.9500000000000015
3.32920503616333,1.9306097030639648,0.3185546100139618,1.9600000000000015
3.116875648498535,2.1612186431884766,0.89609694480896,1.9700000000000015
2.841027021408081,2.52994441986084,1.5122007131576538,1.9800000000000015
2.557129144668579,3.000655174255371,2.099783420562744,1.9900000000000015
2.275067090988159,3.5467729568481445,2.627082347869873,2.0000000000000013
1.85866379737854,3.9576234817504883,2.957155704498291,2.010000000000001
1.568796992301941,4.209375381469727,2.9177279472351074,2.020000000000001
1.3214898109436035,4.139625549316406,2.4835586547851562,2.0300000000000007
1.0635120868682861,3.880324363708496,1.77413010597229,2.0400000000000005
0.882660984992981,3.5131454467773438,1.0320225954055786,2.0500000000000003
0.7947549819946289,3.210552215576172,0.4287232756614685,2.06
0.801224946975708,3.0252304077148438,0.10714022815227509,2.07
0.791243314743042,2.8041515350341797,0.21258296072483063,2.0799999999999996
0.6755197048187256,2.50439453125,0.6345051527023315,2.0899999999999994
-0.10236787796020508,2.089982032775879,1.2976208925247192,2.099999999999999
-0.9954953193664551,1.5202665328979492,2.013044834136963,2.109999999999999
-1.6956499814987183,1.0466804504394531,2.5064713954925537,2.1199999999999988
-2.317305564880371,0.8537187576293945,2.8424630165100098,2.1299999999999986
-2.833014965057373,0.8892126083374023,2.953913688659668,2.1399999999999983
-3.1623387336730957,1.215947151184082,2.851731538772583,2.149999999999998
-3.2706656455993652,1.6430463790893555,2.57719087600708,2.159999999999998
-3.307419776916504,1.9749317169189453,2.261413335800171,2.1699999999999977
-3.276045560836792,2.271805763244629,1.93873929977417,2.1799999999999975
-3.110691547393799,2.3924856185913086,1.5684720277786255,2.1899999999999973
-2.9081969261169434,2.216991424560547,1.072570562362671,2.199999999999997
-2.5307180881500244,1.9576940536499023,0.2857851982116699,2.209999999999997
-2.2165932655334473,1.7502164840698242,-0.712938666343689,2.2199999999999966
-2.0847396850585938,1.7062244415283203,-1.7744696140289307,2.2299999999999964
-1.8861889839172363,1.8322534561157227,-2.825319766998291,2.239999999999996
-1.8246257305145264,2.17801570892334,-3.728006601333618,2.249999999999996
-1.7951631546020508,2.480152130126953,-4.451047897338867,2.259999999999996
-1.7313644886016846,2.7053232192993164,-4.941628456115723,2.2699999999999956
-1.7800037860870361,2.865633964538574,-5.065252780914307,2.2799999999999954
-1.5973613262176514,3.1094627380371094,-4.7063398361206055,2.289999999999995
-1.4872093200683594,3.3170690536499023,-3.8733997344970703,2.299999999999995
-1.361771583557129,3.3833694458007812,-2.9317920207977295,2.3099999999999947
-0.7957215905189514,3.160658836364746,-2.041309356689453,2.3199999999999945
-0.06163141131401062,2.65201473236084,-1.1311463117599487,2.3299999999999943
0.6867092847824097,2.2524290084838867,-0.2631497383117676,2.339999999999994
1.3144046068191528,2.069451332092285,0.5156824588775635,2.349999999999994
1.819676399230957,1.9761543273925781,1.160745620727539,2.3599999999999937
2.242330312728882,1.8959770202636719,1.562567949295044,2.3699999999999934
2.5187246799468994,1.7522687911987305,1.7911920547485352,2.3799999999999932
2.585061550140381,1.7050504684448242,1.708571195602417,2.389999999999993
2.3947067260742188,1.5338506698608398,1.4733805656433105,2.399999999999993
1.9163994789123535,1.3414087295532227,1.0571832656860352,2.4099999999999926
1.158859372138977,0.9268550872802734,0.5315818786621094,2.4199999999999924
0.63176429271698,0.7996549606323242,-0.007779836654663086,2.429999999999992
0.2536911964416504,0.5861930847167969,-0.5271551609039307,2.439999999999992
-0.04945412278175354,0.34379100799560547,-1.0743415355682373,2.4499999999999917
-0.3230113387107849,0.0937490463256836,-1.5461993217468262,2.4599999999999915
-0.6193860769271851,-0.20008373260498047,-2.0213332176208496,2.4699999999999913
-0.9525406360626221,-0.4685239791870117,-2.4254555702209473,2.479999999999991
-1.375549554824829,-0.9843635559082031,-2.7416746616363525,2.489999999999991
-1.5481698513031006,-1.2165374755859375,-3.099440336227417,2.4999999999999907
-1.781510353088379,-1.5646228790283203,-3.513537645339966,2.5099999999999905
-2.0452232360839844,-1.9206223487854004,-3.881756067276001,2.5199999999999902
-2.3716933727264404,-2.4084224700927734,-4.193192005157471,2.52999999999999
-2.6400821208953857,-2.7834835052490234,-4.537456035614014,2.53999999999999
-3.0478127002716064,-3.126861572265625,-4.8339457511901855,2.5499999999999896
-3.4501800537109375,-3.4118785858154297,-5.109804153442383,2.5599999999999894
-4.00102424621582,-3.6599602699279785,-5.162051200866699,2.569999999999989
-4.490339279174805,-3.8063883781433105,-5.175428867340088,2.579999999999989
-4.85878849029541,-3.860691547393799,-5.1024322509765625,2.5899999999999888
-5.154411315917969,-3.763289451599121,-4.945279121398926,2.5999999999999885
-5.4324846267700195,-3.593411922454834,-4.749069690704346,2.6099999999999883
-5.6142425537109375,-3.3777151107788086,-4.4557318687438965,2.619999999999988
-5.556121826171875,-3.171794891357422,-4.049727916717529,2.629999999999988
-5.205129623413086,-3.066983222961426,-3.652132511138916,2.6399999999999877
-4.524165630340576,-3.078066349029541,-3.2643637657165527,2.6499999999999875
-3.858919143676758,-3.1649246215820312,-2.7943530082702637,2.6599999999999873
-3.280503988265991,-3.3520588874816895,-2.255178689956665,2.669999999999987
-2.7624258995056152,-3.5873866081237793,-1.6909751892089844,2.679999999999987
-2.345482110977173,-3.8665051460266113,-1.229912519454956,2.6899999999999866
-2.041813373565674,-4.180049419403076,-0.8592965602874756,2.6999999999999864
-1.7748490571975708,-4.518453121185303,-0.6243183612823486,2.709999999999986
-1.5897016525268555,-4.869609832763672,-0.45574474334716797,2.719999999999986
-1.3899528980255127,-5.144869327545166,-0.3084886074066162,2.7299999999999858
-1.2773749828338623,-5.3058881759643555,-0.2117321491241455,2.7399999999999856
-1.2316627502441406,-5.390933990478516,-0.12272977828979492,2.7499999999999853
-1.3068429231643677,-5.380817413330078,-0.05135297775268555,2.759999999999985
-1.4899778366088867,-5.347121238708496,-0.07941007614135742,2.769999999999985
-1.7802122831344604,-5.366114616394043,-0.18570709228515625,2.7799999999999847
-2.0935842990875244,-5.313008785247803,-0.3395993709564209,2.7899999999999845
-2.375284433364868,-5.337970733642578,-0.501274585723877,2.7999999999999843
-2.642282247543335,-5.344579696655273,-0.6839237213134766,2.809999999999984
-2.8800981044769287,-5.4349260330200195,-0.9130189418792725,2.819999999999984
-2.943270206451416,-5.237565994262695,-1.046539545059204,2.8299999999999836
-3.008251428604126,-5.1252241134643555,-1.2512165307998657,2.8399999999999834
-2.9482033252716064,-4.757627964019775,-1.3610972166061401,2.849999999999983
-2.5873332023620605,-4.036637783050537,-1.4345148801803589,2.859999999999983
-2.103073835372925,-2.9360928535461426,-1.371541142463684,2.869999999999983
-1.4986037015914917,-1.5327997207641602,-1.253981351852417,2.8799999999999826
-0.884047269821167,-0.006388664245605469,-1.0584173202514648,2.8899999999999824
-0.32121533155441284,1.5640583038330078,-0.7662026882171631,2.899999999999982
0.22365805506706238,3.2430858612060547,-0.37348103523254395,2.909999999999982
0.7284290790557861,4.958806037902832,0.25980257987976074,2.9199999999999817
1.1512038707733154,6.572466850280762,1.0174369812011719,2.9299999999999815
1.6237329244613647,8.416229248046875,1.9111454486846924,2.9399999999999813
2.135239601135254,10.0491304397583,3.052274227142334,2.949999999999981
2.7824158668518066,11.26711654663086,4.5681352615356445,2.959999999999981
3.62532377243042,11.662922859191895,6.398241996765137,2.9699999999999807
4.799665451049805,10.75580883026123,8.42227554321289,2.9799999999999804
5.65002965927124,7.867764472961426,9.769701957702637,2.9899999999999802
5.636637210845947,4.507846832275391,9.948507308959961,2.99999999999998
4.335531234741211,2.116640090942383,9.077686309814453,3.00999999999998
3.0049846172332764,0.7483310699462891,7.716475486755371,3.0199999999999796
2.3866350650787354,0.1719036102294922,6.330009460449219,3.0299999999999794
2.190542697906494,0.01741504669189453,4.966609477996826,3.039999999999979
2.2371253967285156,0.2597780227661133,3.665092945098877,3.049999999999979
2.315253734588623,0.6785287857055664,2.244558095932007,3.0599999999999787
2.1617531776428223,1.4057188034057617,0.7893462181091309,3.0699999999999785
1.6607648134231567,2.449270248413086,-0.6252152919769287,3.0799999999999783
0.7351253032684326,3.7573394775390625,-1.7762185335159302,3.089999999999978
-0.42158839106559753,5.227646827697754,-2.5599350929260254,3.099999999999978
-1.6602895259857178,6.413298606872559,-3.033973455429077,3.1099999999999777
-2.7294304370880127,7.18559455871582,-3.077479362487793,3.1199999999999775
-3.6309618949890137,7.654742240905762,-2.740291118621826,3.1299999999999772
-4.390854835510254,7.471515655517578,-2.166841983795166,3.139999999999977
-5.035353183746338,6.708049774169922,-1.5494669675827026,3.149999999999977
-5.454956531524658,5.1976470947265625,-1.1921486854553223,3.1599999999999766
-5.499724388122559,2.9919614791870117,-1.2197775840759277,3.1699999999999764
-5.1025071144104,0.7740707397460938,-1.4046506881713867,3.179999999999976
-4.551322937011719,-1.087336540222168,-1.5011391639709473,3.189999999999976
-3.807323932647705,-2.5645132064819336,-1.36607027053833,3.1999999999999758
-2.8733084201812744,-3.647322654724121,-0.9469457864761353,3.2099999999999755
-1.9158021211624146,-4.476263523101807,-0.4371757507324219,3.2199999999999753
-0.7922830581665039,-5.181507587432861,-0.24805927276611328,3.229999999999975
0.050722479820251465,-5.677191257476807,-0.5046091079711914,3.239999999999975
0.445618212223053,-6.0276923179626465,-1.1145929098129272,3.2499999999999747
0.43015581369400024,-6.041244983673096,-1.958466649055481,3.2599999999999745
0.16325315833091736,-5.94707727432251,-2.9439258575439453,3.2699999999999743
-0.1410389244556427,-5.778011798858643,-3.8813419342041016,3.279999999999974
-0.4317640960216522,-5.435464859008789,-4.5640974044799805,3.289999999999974
-0.7093925476074219,-4.954939365386963,-4.874469757080078,3.2999999999999736
-1.053772211074829,-4.388698101043701,-4.850261688232422,3.3099999999999734
-1.4758846759796143,-3.600210666656494,-4.576119422912598,3.319999999999973
-1.865158200263977,-2.7164344787597656,-4.088924884796143,3.329999999999973
-2.2879064083099365,-1.7043256759643555,-3.522878885269165,3.3399999999999728
-2.597459316253662,-0.7534875869750977,-3.069922924041748,3.3499999999999726
-2.9319210052490234,0.364990234375,-2.6914074420928955,3.3599999999999723
-3.252363443374634,1.6524715423583984,-2.264986038208008,3.369999999999972
-3.4000017642974854,2.8376598358154297,-1.8167611360549927,3.379999999999972
-3.5201663970947266,3.713857650756836,-0.7043790221214294,3.3899999999999717
-3.4087276458740234,4.340076446533203,0.5201363563537598,3.3999999999999715
-2.888148307800293,4.52475643157959,1.1487888097763062,3.4099999999999713
-1.9797823429107666,4.07723331451416,0.9818772077560425,3.419999999999971
-0.9916999340057373,3.0633583068847656,0.36245882511138916,3.429999999999971
-0.025189995765686035,1.9723320007324219,-0.45638978481292725,3.4399999999999706
0.5941792726516724,1.1253023147583008,-1.243322730064392,3.4499999999999704
1.0340214967727661,0.41719532012939453,-1.9479395151138306,3.45999999999997
1.399875283241272,-0.08733272552490234,-2.5832204818725586,3.46999999999997
1.7358546257019043,-0.3883323669433594,-2.9597363471984863,3.47999999999997
2.0751004219055176,-0.5264949798583984,-3.123401165008545,3.4899999999999696
2.389303207397461,-0.49704933166503906,-2.8745434284210205,3.4999999999999694
2.6988210678100586,-0.3477764129638672,-2.354698657989502,3.509999999999969
2.9860477447509766,-0.24355602264404297,-1.709481954574585,3.519999999999969
3.031705856323242,-0.2248096466064453,-1.1108241081237793,3.5299999999999687
2.195457696914673,-0.23654556274414062,-0.8151223063468933,3.5399999999999685
0.7418177127838135,-0.3339691162109375,-0.24069514870643616,3.5499999999999683
-0.09077537059783936,-0.34960269927978516,-0.24268749356269836,3.559999999999968
-0.5972611904144287,-0.4890604019165039,-0.36064180731773376,3.569999999999968
-1.0124493837356567,-0.6492795944213867,-0.5868477821350098,3.5799999999999677
-1.3486429452896118,-0.7752084732055664,-0.8177396059036255,3.5899999999999674
-1.4022958278656006,-0.9959506988525391,-0.9422158002853394,3.5999999999999672
-1.3668156862258911,-1.1678733825683594,-1.1047054529190063,3.609999999999967
-1.321274757385254,-1.4369583129882812,-1.0874005556106567,3.619999999999967
-1.2801536321640015,-1.6023130416870117,-0.9566503167152405,3.6299999999999666
-1.2269891500473022,-1.7024173736572266,-0.7327526807785034,3.6399999999999664
-1.212211012840271,-1.8258857727050781,-0.5699973702430725,3.649999999999966
-1.1953662633895874,-1.8603515625,-0.4602857828140259,3.659999999999966
-1.0665899515151978,-1.7844209671020508,-0.42679041624069214,3.6699999999999657
-0.9408917427062988,-1.6938800811767578,-0.3949754238128662,3.6799999999999655
-0.8136309385299683,-1.5217981338500977,-0.37902289628982544,3.6899999999999653
-0.6707214117050171,-1.29937744140625,-0.3333969712257385,3.699999999999965
-0.5171040296554565,-1.1271066665649414,-0.310835063457489,3.709999999999965
-0.31444084644317627,-0.9212017059326172,-0.27797505259513855,3.7199999999999647
-0.026577115058898926,-0.6027336120605469,-0.2852605879306793,3.7299999999999645
0.12368965148925781,-0.48510265350341797,-0.2203354835510254,3.7399999999999642
0.24104833602905273,-0.29078197479248047,-0.1767488270998001,3.749999999999964
0.33689236640930176,-0.1562490463256836,-0.16891206800937653,3.759999999999964
0.47548651695251465,-0.0647420883178711,-0.13958874344825745,3.7699999999999636
0.6210055351257324,0.14161014556884766,-0.18955178558826447,3.7799999999999634
0.8165328502655029,0.1948709487915039,-0.11286747455596924,3.789999999999963
0.9374465942382812,0.09759998321533203,-0.04063260555267334,3.799999999999963
1.1129167079925537,-0.0065402984619140625,0.041834086179733276,3.8099999999999627
1.2591826915740967,-0.1151437759399414,0.12264546751976013,3.8199999999999625
1.4219846725463867,-0.3333578109741211,0.2712253928184509,3.8299999999999623
1.6589070558547974,-0.6083822250366211,0.38241687417030334,3.839999999999962
1.855292797088623,-0.9329319000244141,0.49915313720703125,3.849999999999962
1.9322679042816162,-1.17303466796875,0.578299880027771,3.8599999999999617
2.009596586227417,-1.4124727249145508,0.6914008259773254,3.8699999999999615
2.029731035232544,-1.5891237258911133,0.7758727073669434,3.8799999999999613
2.061917781829834,-1.734196662902832,0.9438260793685913,3.889999999999961
1.9980970621109009,-1.7713422775268555,1.0750584602355957,3.899999999999961
1.8427942991256714,-1.5979995727539062,1.1859139204025269,3.9099999999999606
1.4640934467315674,-1.1548070907592773,1.2975218296051025,3.9199999999999604
1.1804735660552979,-0.4851837158203125,1.3447327613830566,3.92999999999996
0.9947041273117065,-6.551742553710938E-4,1.3103199005126953,3.93999999999996
0.852333664894104,0.2153759002685547,1.2272273302078247,3.9499999999999598
0.8208295106887817,0.3832588195800781,1.0565506219863892,3.9599999999999596
0.5460411310195923,0.4384164810180664,0.9607248306274414,3.9699999999999593
0.38666510581970215,0.43114566802978516,1.006871223449707,3.979999999999959
0.48387956619262695,0.46444225311279297,1.1260803937911987,3.989999999999959
0.7084506750106812,0.4857597351074219,1.32856285572052,3.9999999999999587
0.950283408164978,0.6314659118652344,1.590840220451355,4.009999999999959
1.2476105690002441,0.8823013305664062,1.8915313482284546,4.019999999999959
1.4590308666229248,1.206954002380371,2.129779815673828,4.0299999999999585
1.7254505157470703,1.4569263458251953,2.1014580726623535,4.039999999999958
1.9744679927825928,1.5962200164794922,1.9304349422454834,4.049999999999958
2.2317957878112793,1.7085113525390625,1.6766307353973389,4.059999999999958
2.592421531677246,1.817673683166504,1.374565601348877,4.069999999999958
2.93361759185791,1.8710689544677734,1.1213630437850952,4.079999999999957
3.2144875526428223,2.0504894256591797,0.8675907850265503,4.089999999999957
3.424849510192871,1.9850292205810547,0.7526800632476807,4.099999999999957
3.5525426864624023,1.8972883224487305,0.7407459616661072,4.109999999999957
3.5785305500030518,1.8183507919311523,0.8889469504356384,4.119999999999957
3.582061290740967,1.922677993774414,0.748542070388794,4.129999999999956
3.6522154808044434,1.8872919082641602,0.6080115437507629,4.139999999999956
3.595323085784912,2.0327816009521484,0.584173858165741,4.149999999999956
3.4879493713378906,2.3732852935791016,0.6126642227172852,4.159999999999956
3.3010544776916504,2.808072090148926,0.7343376874923706,4.1699999999999555
3.0844838619232178,3.4277801513671875,0.8006800413131714,4.179999999999955
2.8884096145629883,4.028894424438477,0.8062012195587158,4.189999999999955
2.6674060821533203,4.551608085632324,0.6991242170333862,4.199999999999955
2.469546318054199,4.874093055725098,0.5901253819465637,4.209999999999955
2.258863925933838,4.951196670532227,0.5113089084625244,4.2199999999999545
2.1886608600616455,4.821669578552246,0.5671402215957642,4.229999999999954
2.031877279281616,4.486049652099609,0.7338237762451172,4.239999999999954
1.8917012214660645,4.083584785461426,1.0359982252120972,4.249999999999954
1.5713331699371338,3.8463878631591797,1.6234015226364136,4.259999999999954
0.2936457395553589,3.647144317626953,2.370894432067871,4.269999999999953
-1.1224756240844727,3.356328010559082,3.006243944168091,4.279999999999953
-2.1776981353759766,3.0195913314819336,3.3153817653656006,4.289999999999953
-2.871328353881836,2.5180301666259766,3.3557870388031006,4.299999999999953
-3.214137077331543,2.2280654907226562,3.089385986328125,4.3099999999999525
-3.6090121269226074,2.0761756896972656,2.6445975303649902,4.319999999999952
-3.8827250003814697,2.201554298400879,2.18495512008667,4.329999999999952
-4.094167709350586,2.422689437866211,1.8609082698822021,4.339999999999952
-4.1915740966796875,2.598804473876953,1.694746494293213,4.349999999999952
-4.281038284301758,2.6870222091674805,1.6282438039779663,4.3599999999999515
-4.205320358276367,2.641871452331543,1.4763067960739136,4.369999999999951
-4.073162078857422,2.479837417602539,1.0893367528915405,4.379999999999951
-3.857052803039551,2.2436208724975586,0.3693147897720337,4.389999999999951
-3.499357223510742,1.9519338607788086,-0.5368962287902832,4.399999999999951
-3.158820629119873,1.841073989868164,-1.5911725759506226,4.40999999999995
-2.8459157943725586,1.8219661712646484,-2.5573883056640625,4.41999999999995
-2.314666748046875,1.7580385208129883,-3.529971122741699,4.42999999999995
-1.6780189275741577,1.661128044128418,-4.363691806793213,4.43999999999995
-1.3078582286834717,1.5573959350585938,-4.9878082275390625,4.4499999999999496
-0.9462896585464478,1.5355100631713867,-5.41654109954834,4.459999999999949
-0.48197853565216064,1.4211311340332031,-5.470716953277588,4.469999999999949
-0.21149641275405884,1.1931171417236328,-4.942621231079102,4.479999999999949
0.37063461542129517,0.9404726028442383,-3.8755786418914795,4.489999999999949
0.9919708967208862,0.6490116119384766,-2.4214415550231934,4.4999999999999485
1.495639443397522,0.419036865234375,-0.8259074687957764,4.509999999999948
2.1071393489837646,0.33144664764404297,0.4874560832977295,4.519999999999948
2.5060510635375977,0.24915504455566406,1.5074412822723389,4.529999999999948
2.707305908203125,0.36281871795654297,2.028883218765259,4.539999999999948
2.786177635192871,0.5999746322631836,2.111590623855591,4.549999999999947
2.698361873626709,0.8787708282470703,1.8960530757904053,4.559999999999947
2.4405517578125,1.1918220520019531,1.4093050956726074,4.569999999999947
2.1917665004730225,1.3740606307983398,0.8141872882843018,4.579999999999947
1.8143445253372192,1.3274908065795898,0.2495133876800537,4.589999999999947
1.2394884824752808,1.1361284255981445,-0.32358646392822266,4.599999999999946
0.7914340496063232,1.1424102783203125,-0.8657934665679932,4.609999999999946
0.3917781710624695,0.8945093154907227,-1.380937933921814,4.619999999999946
0.10045519471168518,0.5652599334716797,-1.8656436204910278,4.629999999999946
-0.10339060425758362,0.16706562042236328,-2.3380420207977295,4.6399999999999455
-0.21351055800914764,-0.0918722152709961,-2.7438907623291016,4.649999999999945
-0.3056056499481201,-0.43416404724121094,-3.0883865356445312,4.659999999999945
-0.3980026841163635,-0.8025407791137695,-3.273493766784668,4.669999999999945
-0.4446261525154114,-1.161367416381836,-3.3541910648345947,4.679999999999945
-0.5406976342201233,-1.5635027885437012,-3.4643421173095703,4.689999999999944
-0.6885976195335388,-1.9731626510620117,-3.544109344482422,4.699999999999944
-1.1453461647033691,-2.6866941452026367,-3.715907573699951,4.709999999999944
-1.3724133968353271,-2.933568000793457,-3.9445815086364746,4.719999999999944
-1.7411913871765137,-3.2570648193359375,-4.103607654571533,4.729999999999944
-2.218888282775879,-3.515841484069824,-4.298664569854736,4.739999999999943
-2.7443113327026367,-3.7216567993164062,-4.434618949890137,4.749999999999943
-3.2207021713256836,-3.9245171546936035,-4.511992931365967,4.759999999999943
-3.7595081329345703,-4.035697937011719,-4.478608131408691,4.769999999999943
-4.261273384094238,-4.009644508361816,-4.363657474517822,4.7799999999999425
-4.717824935913086,-3.9062395095825195,-4.169473648071289,4.789999999999942
-5.099175930023193,-3.7591662406921387,-3.847764253616333,4.799999999999942
-5.308136940002441,-3.638071060180664,-3.4050114154815674,4.809999999999942
-5.2927751541137695,-3.5097928047180176,-2.828401565551758,4.819999999999942
-4.995770454406738,-3.4274535179138184,-2.219661235809326,4.8299999999999415
-4.202698707580566,-3.3629159927368164,-1.702089548110962,4.839999999999941
-3.263319492340088,-3.31447696685791,-1.2050490379333496,4.849999999999941
-2.4943034648895264,-3.3282432556152344,-0.6674506664276123,4.859999999999941
-1.7656303644180298,-3.4095911979675293,-0.14532709121704102,4.869999999999941
-1.1439367532730103,-3.554192066192627,0.3673253059387207,4.87999999999994
-0.5790570974349976,-3.759888172149658,0.7637360095977783,4.88999999999994
-0.16204851865768433,-4.012450218200684,1.0351109504699707,4.89999999999994
0.11892491579055786,-4.3069891929626465,1.0836939811706543,4.90999999999994
0.25931698083877563,-4.580939292907715,0.9282810688018799,4.9199999999999395
0.10665279626846313,-4.809972286224365,0.6591026782989502,4.929999999999939
-0.29048871994018555,-4.969620704650879,0.33478331565856934,4.939999999999939
-0.7637099027633667,-5.0426530838012695,0.05450701713562012,4.949999999999939
-1.2475593090057373,-5.16731595993042,-0.257174015045166,4.959999999999939
-1.6794517040252686,-5.197216987609863,-0.4744877815246582,4.9699999999999385
-2.1046762466430664,-5.222846031188965,-0.6320767402648926,4.979999999999938
-2.523043632507324,-5.279584884643555,-0.7430670261383057,4.989999999999938
-2.791594982147217,-5.072924613952637,-0.7579407691955566,4.999999999999938
-2.845956802368164,-4.739073753356934,-0.696911096572876,5.009999999999938
-2.921355962753296,-4.507336139678955,-0.7287354469299316,5.019999999999937
-2.7565832138061523,-3.8919553756713867,-0.6600995063781738,5.029999999999937
-2.5531320571899414,-2.9936323165893555,-0.5367686748504639,5.039999999999937
-2.3313844203948975,-1.8412113189697266,-0.39717864990234375,5.049999999999937
-2.116903305053711,-0.5925369262695312,-0.225083589553833,5.0599999999999365
-1.8611907958984375,0.7215242385864258,-0.07402443885803223,5.069999999999936
-1.6426273584365845,2.1155433654785156,0.08843326568603516,5.079999999999936
-1.2846088409423828,3.4653968811035156,0.29425740242004395,5.089999999999936
-0.9505677223205566,4.874164581298828,0.6111812591552734,5.099999999999936
-0.6430214643478394,6.348957061767578,1.1048102378845215,5.1099999999999355
-0.45045050978660583,7.731689453125,1.8244891166687012,5.119999999999935
-0.07777601480484009,8.964635848999023,2.8086400032043457,5.129999999999935
0.21770745515823364,9.688567161560059,4.128028392791748,5.139999999999935
0.5910842418670654,9.293320655822754,5.627706050872803,5.149999999999935
1.071404218673706,7.716946601867676,7.012618064880371,5.159999999999934
1.3955283164978027,5.657955169677734,7.921114921569824,5.169999999999934
1.6702163219451904,3.6779470443725586,7.950290679931641,5.179999999999934
1.807462453842163,2.1158018112182617,7.050314903259277,5.189999999999934
2.007293462753296,0.9540691375732422,5.608194351196289,5.199999999999934
2.493710517883301,0.1542224884033203,4.141361713409424,5.209999999999933
3.1584153175354004,-0.3575162887573242,2.5721211433410645,5.219999999999933
3.8950066566467285,-0.6161479949951172,1.0460107326507568,5.229999999999933
4.563791275024414,-0.6303577423095703,-0.20855093002319336,5.239999999999933
4.964176177978516,-0.3063011169433594,-1.16408109664917,5.2499999999999325
5.04484224319458,0.5640268325805664,-1.779930591583252,5.259999999999932
4.3739542961120605,1.9726505279541016,-2.054422616958618,5.269999999999932
2.868623971939087,3.5764808654785156,-1.8695244789123535,5.279999999999932
1.205718994140625,4.989577293395996,-1.4335899353027344,5.289999999999932
-0.02069726586341858,6.070136070251465,-1.0967272520065308,5.299999999999931
-0.8552709817886353,6.525993347167969,-1.0746701955795288,5.309999999999931
-1.2809683084487915,6.204501152038574,-1.343015193939209,5.319999999999931
-1.833245038986206,5.994022369384766,-1.6696735620498657,5.329999999999931
-2.426598310470581,5.606085777282715,-2.0699353218078613,5.339999999999931
-3.212338924407959,4.858250617980957,-2.449399471282959,5.34999999999993
-4.056565761566162,3.7977638244628906,-2.5661396980285645,5.35999999999993
-4.903932571411133,2.145875930786133,-2.2810518741607666,5.36999999999993
-5.467772006988525,-0.059017181396484375,-1.810273289680481,5.37999999999993
-5.519905090332031,-1.9925880432128906,-1.2840685844421387,5.3899999999999295
-5.414958477020264,-3.3071675300598145,-1.0388230085372925,5.399999999999929
-5.269981384277344,-4.054197311401367,-1.2537304162979126,5.409999999999929
-4.9591064453125,-4.392052173614502,-1.9246561527252197,5.419999999999929
-4.532059669494629,-4.315873622894287,-2.9185595512390137,5.429999999999929
-3.7661118507385254,-3.9664673805236816,-3.936277389526367,5.4399999999999284
-2.3501780033111572,-3.6494617462158203,-4.664063453674316,5.449999999999928
-1.114305019378662,-3.366604804992676,-4.933436393737793,5.459999999999928
-0.3779926896095276,-3.236971378326416,-4.881887435913086,5.469999999999928
-0.13991647958755493,-3.1812028884887695,-4.5743560791015625,5.479999999999928
-0.3019323945045471,-3.20870304107666,-4.121788501739502,5.489999999999927
-0.8340006470680237,-2.965665817260742,-3.496318817138672,5.499999999999927
-1.51068115234375,-2.5197501182556152,-2.6876330375671387,5.509999999999927
-2.23815655708313,-1.9243416786193848,-1.9065980911254883,5.519999999999927
-2.862945079803467,-1.1683740615844727,-1.2985678911209106,5.5299999999999265
-3.393763542175293,-0.37503528594970703,-0.4040954113006592,5.539999999999926
-3.5277867317199707,0.43291759490966797,0.5286015272140503,5.549999999999926
-3.4671690464019775,1.2879619598388672,0.9481301307678223,5.559999999999926
-3.156198024749756,2.158367156982422,0.9150135517120361,5.569999999999926
-2.8819613456726074,2.8191261291503906,0.5800210237503052,5.5799999999999255
-2.4986400604248047,3.0697555541992188,0.045925021171569824,5.589999999999925
-1.7642662525177002,2.904020309448242,-0.6820089221000671,5.599999999999925
-0.9267845153808594,2.5047550201416016,-1.5472187995910645,5.609999999999925
-0.05869495868682861,2.0042924880981445,-2.273113965988159,5.619999999999925
0.8638327121734619,1.4510002136230469,-2.7525177001953125,5.629999999999924
1.412962794303894,0.9097414016723633,-3.0278196334838867,5.639999999999924
1.8580551147460938,0.5959053039550781,-3.1494054794311523,5.649999999999924
2.332226514816284,0.34673213958740234,-3.1321873664855957,5.659999999999924
2.6317121982574463,0.14073944091796875,-2.922494888305664,5.6699999999999235
2.979876756668091,-0.03138542175292969,-2.5783560276031494,5.679999999999923
3.3586981296539307,-0.15261363983154297,-2.164189338684082,5.689999999999923
3.58272647857666,-0.2442464828491211,-1.5546516180038452,5.699999999999923
3.705057144165039,-0.38024234771728516,-1.0387544631958008,5.709999999999923
2.9605236053466797,-0.6443386077880859,-0.6770167946815491,5.7199999999999225
1.5797723531723022,-0.8310451507568359,-0.529146134853363,5.729999999999922
0.5038613677024841,-1.108001708984375,-0.5555881261825562,5.739999999999922
-0.1893068552017212,-1.3507537841796875,-0.7294741272926331,5.749999999999922
-0.5019452571868896,-1.6452751159667969,-0.8543295860290527,5.759999999999922
-0.7016401290893555,-1.9890151023864746,-0.8672375082969666,5.769999999999921
-0.9963870048522949,-2.1547603607177734,-0.7764422297477722,5.779999999999921
-1.103603720664978,-2.2909908294677734,-0.5367007255554199,5.789999999999921
-1.2340433597564697,-2.3930211067199707,-0.22403110563755035,5.799999999999921
-1.301844596862793,-2.441831588745117,0.01862267404794693,5.809999999999921
-1.3095762729644775,-2.377744674682617,0.2065306305885315,5.81999999999992
-1.2765963077545166,-2.2081003189086914,0.31901103258132935,5.82999999999992
-1.164845585823059,-1.9593505859375,0.26368486881256104,5.83999999999992
-0.9602744579315186,-1.6913843154907227,0.17546549439430237,5.84999999999992
-0.7375392913818359,-1.4807815551757812,0.06933540105819702,5.8599999999999195
-0.48251986503601074,-1.2916069030761719,-0.030312225222587585,5.869999999999919
-0.20963633060455322,-0.9468746185302734,-0.1546708643436432,5.879999999999919
-0.07485067844390869,-0.7935447692871094,-0.14352183043956757,5.889999999999919
0.20132195949554443,-0.6592741012573242,-0.1838408261537552,5.899999999999919
0.3771500587463379,-0.5942573547363281,-0.16369765996932983,5.909999999999918
0.6896014213562012,-0.600773811340332,-0.10483869910240173,5.919999999999918
0.9258285760879517,-0.6619796752929688,-0.03391534090042114,5.929999999999918
1.2224907875061035,-0.5816888809204102,-0.09220728278160095,5.939999999999918
1.392960786819458,-0.6517820358276367,-0.011421769857406616,5.949999999999918
1.4944844245910645,-0.6042852401733398,0.06527191400527954,5.959999999999917
1.5916593074798584,-0.6545190811157227,0.20286870002746582,5.969999999999917
1.801812767982483,-0.7592630386352539,0.38960957527160645,5.979999999999917
1.9863377809524536,-0.8992547988891602,0.5728522539138794,5.989999999999917
2.1932668685913086,-1.0170202255249023,0.7380092144012451,5.9999999999999165
2.2262985706329346,-1.1484994888305664,0.9252246618270874,6.009999999999916
2.2098264694213867,-1.2531013488769531,1.0881472826004028,6.019999999999916
2.1532740592956543,-1.2592344284057617,1.2903348207473755,6.029999999999916
1.816744327545166,-0.9926719665527344,1.4955189228057861,6.039999999999916
1.2501230239868164,-0.36065196990966797,1.6941471099853516,6.0499999999999154
0.7739901542663574,0.37807750701904297,1.850364089012146,6.059999999999915
0.5538461208343506,1.0656471252441406,1.8802717924118042,6.069999999999915
0.38257551193237305,1.3197240829467773,1.9580036401748657,6.079999999999915
0.2944960594177246,1.3154964447021484,1.9248497486114502,6.089999999999915
0.32831883430480957,1.1345863342285156,1.7726836204528809,6.099999999999914
0.18721747398376465,0.7890586853027344,1.5751183032989502,6.109999999999914
0.5385720729827881,0.3747682571411133,1.313048243522644,6.119999999999914
1.0491102933883667,0.05438995361328125,1.1138497591018677,6.129999999999914
1.4237165451049805,-0.05273723602294922,1.0666972398757935,6.1399999999999135
1.7595547437667847,0.05292797088623047,1.195760726928711,6.149999999999913
2.2184553146362305,0.3829212188720703,1.5419468879699707,6.159999999999913
2.6728432178497314,0.8531389236450195,1.9595928192138672,6.169999999999913
3.1602671146392822,1.489593505859375,2.4494009017944336,6.179999999999913
3.6010584831237793,2.160433769226074,2.7537829875946045,6.1899999999999125
3.9060797691345215,2.5641050338745117,2.554797649383545,6.199999999999912
4.110877990722656,2.6816225051879883,2.0272817611694336,6.209999999999912
4.176423072814941,2.5896291732788086,1.4565205574035645,6.219999999999912
4.197981357574463,2.326517105102539,0.9601387977600098,6.229999999999912
4.187905788421631,2.040834426879883,0.6816950440406799,6.239999999999911
4.336104393005371,1.8260517120361328,0.43385910987854004,6.249999999999911
4.560149192810059,1.5867633819580078,0.4528156816959381,6.259999999999911
4.586369514465332,1.5768327713012695,0.6737344861030579,6.269999999999911
4.243170261383057,1.788966178894043,1.1259502172470093,6.2799999999999105
3.6934518814086914,2.2468271255493164,1.6472781896591187,6.28999999999991
3.193727493286133,2.8137969970703125,2.1095316410064697,6.29999999999991
2.7324674129486084,3.434629440307617,2.4549853801727295,6.30999999999991
2.3291192054748535,4.049274444580078,2.5222373008728027,6.31999999999991
1.9977400302886963,4.5833024978637695,2.2120895385742188,6.3299999999999095
1.6967949867248535,4.9002227783203125,1.5434759855270386,6.339999999999909
1.3727145195007324,4.811330795288086,0.7643448114395142,6.349999999999909
1.271204948425293,4.341287612915039,0.07922258973121643,6.359999999999909
1.245177984237671,3.782578468322754,-0.3080310523509979,6.369999999999909
1.2765756845474243,3.353104591369629,-0.252715140581131,6.379999999999908
1.3500151634216309,2.8974246978759766,0.24859896302223206,6.389999999999908
1.4363131523132324,2.492192268371582,0.8800548315048218,6.399999999999908
1.4326391220092773,2.0967960357666016,1.419632077217102,6.409999999999908
0.766789436340332,1.8593673706054688,1.8943556547164917,6.419999999999908
-0.4472386837005615,1.7317581176757812,2.321742296218872,6.429999999999907
-1.6311964988708496,1.8431854248046875,2.7309017181396484,6.439999999999907
-2.8769941329956055,2.0981712341308594,3.0072901248931885,6.449999999999907
-3.7089219093322754,2.5760908126831055,3.032886505126953,6.459999999999907
-4.094724178314209,3.067070960998535,2.8308939933776855,6.4699999999999065
-4.043889999389648,3.392533302307129,2.4464948177337646,6.479999999999906
-3.960261821746826,3.550769805908203,1.9315180778503418,6.489999999999906
-3.7000832557678223,3.408184051513672,1.2750390768051147,6.499999999999906
-3.435929298400879,3.077254295349121,0.40146028995513916,6.509999999999906
-3.130300521850586,2.7778568267822266,-0.661350667476654,6.519999999999905
-3.1410608291625977,2.5861282348632812,-1.7769103050231934,6.529999999999905
-3.2834787368774414,2.611617088317871,-2.718684673309326,6.539999999999905
-3.1939456462860107,2.6672706604003906,-3.559340476989746,6.549999999999905
-3.1264266967773438,2.874619483947754,-4.1579132080078125,6.559999999999905
-3.1358940601348877,3.022547721862793,-4.379964828491211,6.569999999999904
-3.0283684730529785,3.0628442764282227,-4.414125919342041,6.579999999999904
-2.851365804672241,3.009777069091797,-4.150966167449951,6.589999999999904
-2.573763847351074,2.8205299377441406,-3.5781497955322266,6.599999999999904
-2.2492148876190186,2.643815040588379,-2.889802932739258,6.6099999999999035
-1.6526703834533691,2.223984718322754,-2.2985405921936035,6.619999999999903
-0.8516043424606323,1.5519027709960938,-1.7984691858291626,6.629999999999903
-0.061853647232055664,0.8860340118408203,-1.2797669172286987,6.639999999999903
0.5182854533195496,0.3602142333984375,-0.9098484516143799,6.649999999999903
0.9325085878372192,-0.018636703491210938,-0.7360244989395142,6.659999999999902
1.1176984310150146,-0.22446441650390625,-0.6139724254608154,6.669999999999902
1.3831684589385986,-0.3028402328491211,-0.5527548789978027,6.679999999999902
1.7046384811401367,-0.2873077392578125,-0.45854616165161133,6.689999999999902
1.9919319152832031,-0.0727701187133789,-0.3643209934234619,6.699999999999902
2.1855053901672363,0.06766796112060547,-0.19257855415344238,6.709999999999901
2.3789608478546143,0.4231300354003906,-0.0838315486907959,6.719999999999901
2.438248872756958,0.564997673034668,-0.03274822235107422,6.729999999999901
2.2594218254089355,0.7347660064697266,-0.15153264999389648,6.739999999999901
1.8191509246826172,0.7696428298950195,-0.32305026054382324,6.7499999999999005
1.2819874286651611,0.6123790740966797,-0.6002833843231201,6.7599999999999
0.9571720361709595,0.5883121490478516,-0.976269006729126,6.7699999999999
0.69754958152771,0.5200891494750977,-1.2978641986846924,6.7799999999999
0.5107936263084412,0.2640829086303711,-1.6416394710540771,6.7899999999999
0.27990108728408813,0.02590179443359375,-1.9523354768753052,6.7999999999998995
-0.006936192512512207,-0.28061580657958984,-2.1919779777526855,6.809999999999899
-0.29451730847358704,-0.6217441558837891,-2.5240318775177,6.819999999999899
-0.6595810651779175,-0.9732341766357422,-2.8680622577667236,6.829999999999899
-1.0620203018188477,-1.3275527954101562,-3.1628401279449463,6.839999999999899
-1.4101650714874268,-1.6460375785827637,-3.4188082218170166,6.849999999999898
-1.8300917148590088,-2.0527453422546387,-3.5983190536499023,6.859999999999898
-2.203681230545044,-2.2125630378723145,-3.830946445465088,6.869999999999898
-2.662116050720215,-2.3791418075561523,-4.030445098876953,6.879999999999898
-3.1353304386138916,-2.5596165657043457,-4.120087623596191,6.8899999999998975
-3.6249825954437256,-2.7611684799194336,-4.097247123718262,6.899999999999897
-4.046173095703125,-2.978935718536377,-4.098304271697998,6.909999999999897
-4.3973236083984375,-3.1268906593322754,-4.029660701751709,6.919999999999897
-4.690682888031006,-3.2889442443847656,-3.9149205684661865,6.929999999999897
-4.823209285736084,-3.441370964050293,-3.739299774169922,6.9399999999998965
-5.0074992179870605,-3.6752700805664062,-3.5453743934631348,6.949999999999896
-5.118765830993652,-3.966891288757324,-3.260789394378662,6.959999999999896
-5.029786109924316,-4.273537635803223,-2.829655885696411,6.969999999999896
-4.490029335021973,-4.552631855010986,-2.4784393310546875,6.979999999999896
-3.542335271835327,-4.819031715393066,-2.182511568069458,6.989999999999895
-2.765866279602051,-5.108975887298584,-1.8624823093414307,6.999999999999895
-2.1233646869659424,-5.377171516418457,-1.573205590248108,7.009999999999895
-1.5519499778747559,-5.630828857421875,-1.286020278930664,7.019999999999895
-1.1998037099838257,-5.822052001953125,-1.0465233325958252,7.0299999999998946
-0.8991832733154297,-5.92685604095459,-0.8788721561431885,7.039999999999894
-0.6950957179069519,-5.911773681640625,-0.7257535457611084,7.049999999999894
-0.665975034236908,-5.836633205413818,-0.5872514247894287,7.059999999999894
-0.8166459202766418,-5.754019737243652,-0.38194870948791504,7.069999999999894
-1.0776572227478027,-5.735595703125,-0.1527857780456543,7.0799999999998935
-1.3628073930740356,-5.709428787231445,0.038164377212524414,7.089999999999893
-1.6644811630249023,-5.74458646774292,0.16667461395263672,7.099999999999893
-1.9415282011032104,-5.757006645202637,0.23008155822753906,7.109999999999893
-2.2081387042999268,-5.693700790405273,0.31397080421447754,7.119999999999893
-2.5312044620513916,-5.5231428146362305,0.3336949348449707,7.129999999999892
-2.757768154144287,-5.182765007019043,0.27168703079223633,7.139999999999892
-2.897948980331421,-4.614733695983887,0.17688918113708496,7.149999999999892
-2.895101547241211,-3.892798900604248,0.004785299301147461,7.159999999999892
-2.75506329536438,-2.8994178771972656,-0.17661118507385254,7.169999999999892
-2.510787010192871,-1.6823267936706543,-0.3134770393371582,7.179999999999891
-2.1955924034118652,-0.33228015899658203,-0.44797706604003906,7.189999999999891
-1.905247449874878,1.1341667175292969,-0.5054100751876831,7.199999999999891
-1.551522970199585,2.7267894744873047,-0.4333146810531616,7.209999999999891
-1.137587308883667,4.328676223754883,-0.2638111114501953,7.2199999999998905
-0.8144832849502563,6.210262298583984,0.21039772033691406,7.22999999999989
-0.5678717494010925,8.321039199829102,1.1683995723724365,7.23999999999989
-0.41060149669647217,10.492965698242188,2.635324239730835,7.24999999999989
-0.16216707229614258,12.44269847869873,4.649025917053223,7.25999999999989
0.44540849328041077,13.563589096069336,7.194070339202881,7.269999999999889
1.4340276718139648,12.771261215209961,9.797968864440918,7.279999999999889
2.468907356262207,10.369935989379883,11.440178871154785,7.289999999999889
3.288172721862793,7.644497871398926,11.833012580871582,7.299999999999889
3.7130117416381836,5.446191787719727,10.975470542907715,7.309999999999889
4.002546787261963,3.7673816680908203,9.263864517211914,7.319999999999888
4.287099838256836,2.3857269287109375,7.226480484008789,7.329999999999888
4.467291831970215,1.2373847961425781,5.021204471588135,7.339999999999888
4.237582206726074,0.3616065979003906,2.78312349319458,7.349999999999888
3.762726068496704,0.024721145629882812,0.5439164638519287,7.3599999999998875
3.0347564220428467,0.2556133270263672,-1.4987691640853882,7.369999999999887
1.9548923969268799,0.998809814453125,-3.0425496101379395,7.379999999999887
0.6632571220397949,2.0835533142089844,-3.9626078605651855,7.389999999999887
-0.5446657538414001,2.9851865768432617,-4.451299667358398,7.399999999999887
-1.4592764377593994,3.366151809692383,-4.671511650085449,7.4099999999998865
-1.9663262367248535,3.370192527770996,-4.722105026245117,7.419999999999886
-2.496699571609497,3.4331493377685547,-4.708661079406738,7.429999999999886
-2.9936439990997314,3.405170440673828,-4.813562870025635,7.439999999999886
-3.629707098007202,3.1730918884277344,-4.904181480407715,7.449999999999886
-4.513009548187256,2.853806495666504,-4.664295196533203,7.459999999999885
-5.353085994720459,1.9941892623901367,-4.093740463256836,7.469999999999885
-5.756490230560303,0.29942893981933594,-3.025613307952881,7.479999999999885
-5.544832229614258,-1.5579185485839844,-1.6132255792617798,7.489999999999885
-5.0018439292907715,-2.9653124809265137,-0.3708280324935913,7.4999999999998845
-4.029344081878662,-3.9794068336486816,0.5058889389038086,7.509999999999884
-2.821385145187378,-4.567196369171143,0.8024468421936035,7.519999999999884
-1.597609519958496,-4.680413722991943,0.24816346168518066,7.529999999999884
-0.19013965129852295,-4.566854000091553,-0.9656131863594055,7.539999999999884
0.6409549713134766,-4.098513126373291,-2.362173318862915,7.5499999999998835
1.081950068473816,-3.4276223182678223,-3.4771780967712402,7.559999999999883
1.1884055137634277,-2.7974720001220703,-4.175746440887451,7.569999999999883
0.90865159034729,-2.3367724418640137,-4.543196678161621,7.579999999999883
0.5536524057388306,-1.9664411544799805,-4.592493534088135,7.589999999999883
0.10392630100250244,-1.6412229537963867,-4.393743515014648,7.599999999999882
-0.3932722210884094,-1.3639421463012695,-4.003018856048584,7.609999999999882
-1.0776124000549316,-0.9437990188598633,-3.3778233528137207,7.619999999999882
-1.8505051136016846,-0.6063938140869141,-2.6479744911193848,7.629999999999882
-2.6637284755706787,-0.1157674789428711,-1.5861696004867554,7.6399999999998816
-3.555462121963501,0.4119873046875,-0.39749419689178467,7.649999999999881
-4.238617420196533,0.8511762619018555,0.9359050989151001,7.659999999999881
-4.542984485626221,1.2223968505859375,1.927975058555603,7.669999999999881
-4.1639556884765625,1.3867673873901367,2.04864764213562,7.679999999999881
-3.5431339740753174,1.3185348510742188,1.4183437824249268,7.6899999999998805
-2.8489294052124023,1.0997533798217773,0.519997239112854,7.69999999999988
-1.9787014722824097,0.8172016143798828,-0.3048597574234009,7.70999999999988
-1.1212985515594482,0.5169458389282227,-1.085778832435608,7.71999999999988
-0.3404024839401245,0.4267597198486328,-1.9096686840057373,7.72999999999988
0.26158034801483154,0.25982189178466797,-2.546975612640381,7.739999999999879
0.7641786336898804,0.24602794647216797,-3.1072216033935547,7.749999999999879
1.0986411571502686,0.23943233489990234,-3.4787707328796387,7.759999999999879
1.1914323568344116,0.25672340393066406,-3.6709885597229004,7.769999999999879
1.3187752962112427,0.4317474365234375,-3.709303379058838,7.779999999999879
1.5179468393325806,0.5012950897216797,-3.6903486251831055,7.789999999999878
1.6299734115600586,0.45598602294921875,-3.6512258052825928,7.799999999999878
1.7109915018081665,0.35343360900878906,-3.531524181365967,7.809999999999878
1.9413729906082153,0.09101104736328125,-3.3071208000183105,7.819999999999878
2.1855430603027344,-0.32138538360595703,-2.9135453701019287,7.8299999999998775
2.465773582458496,-0.7543125152587891,-2.372750759124756,7.839999999999877
2.6776437759399414,-1.171743392944336,-1.7903878688812256,7.849999999999877
2.912796974182129,-1.4564008712768555,-1.2961058616638184,7.859999999999877
2.875028371810913,-1.7972702980041504,-0.7802010774612427,7.869999999999877
2.60740065574646,-1.9814672470092773,-0.44653934240341187,7.879999999999876
2.0876035690307617,-2.2005701065063477,-0.2762761414051056,7.889999999999876
1.1997119188308716,-2.2586307525634766,-0.16431275010108948,7.899999999999876
0.39046603441238403,-2.0507469177246094,-0.06523722410202026,7.909999999999876
-0.19457507133483887,-1.7374811172485352,-0.007897883653640747,7.919999999999876
-0.6249542236328125,-1.4217958450317383,0.08467322587966919,7.929999999999875
-0.8669217824935913,-1.151474952697754,0.256045937538147,7.939999999999875
-0.8911901712417603,-0.8833141326904297,0.3654429018497467,7.949999999999875
-1.0014315843582153,-0.865936279296875,0.41324394941329956,7.959999999999875
-1.1306095123291016,-0.8646697998046875,0.35413143038749695,7.9699999999998745
-1.3124451637268066,-0.9058017730712891,0.17616510391235352,7.979999999999874
-1.3487712144851685,-0.951045036315918,-0.0011191274970769882,7.989999999999874
-1.400160789489746,-0.8043212890625,-0.21398350596427917,7.999999999999874
