AccX,AccY,AccZ,SampleRate
1.2349870204925537,1.8453435897827148,2.1197092533111572,0
1.1722595691680908,1.6449918746948242,1.720862627029419,0.01
1.0025031566619873,1.0766525268554688,1.301677942276001,0.02
0.8072355389595032,0.4754924774169922,0.8522593975067139,0.03
0.5692789554595947,0.018415451049804688,0.5305016040802002,0.04
0.3025009036064148,-0.31871700286865234,0.4037688672542572,0.05
0.3201587200164795,-0.5073442459106445,0.5010436177253723,0.060000000000000005
0.5503607988357544,-0.2104511260986328,0.8323119878768921,0.07
0.880390465259552,0.10988903045654297,1.333219289779663,0.08
1.3003796339035034,0.4679422378540039,1.6949026584625244,0.09
1.7616431713104248,0.7750310897827148,1.9384045600891113,0.09999999999999999
2.2127163410186768,1.3944778442382812,1.980004906654358,0.10999999999999999
2.7023141384124756,2.053140640258789,2.042973756790161,0.11999999999999998
3.113645315170288,2.7363080978393555,1.4598413705825806,0.12999999999999998
3.4502506256103516,3.0253639221191406,0.8681546449661255,0.13999999999999999
3.701735019683838,3.1861581802368164,0.28805744647979736,0.15
3.9303219318389893,3.0156641006469727,-0.17458319664001465,0.16
4.0836029052734375,2.9686737060546875,-0.577086329460144,0.17
4.130831718444824,2.918360710144043,-0.7285787463188171,0.18000000000000002
4.336218357086182,2.862490653991699,-0.7519338726997375,0.19000000000000003
4.599987030029297,3.066577911376953,-0.8708094358444214,0.20000000000000004
4.834291458129883,3.3080148696899414,-0.961694061756134,0.21000000000000005
4.965571403503418,3.5246925354003906,-0.896072268486023,0.22000000000000006
5.0567097663879395,3.8052501678466797,-0.832176148891449,0.23000000000000007
5.259038925170898,4.11870002746582,-0.5353990793228149,0.24000000000000007
5.4248046875,4.477138519287109,-0.027058303356170654,0.25000000000000006
5.742104530334473,4.754005432128906,0.7358652353286743,0.26000000000000006
6.134276866912842,4.944829940795898,1.6233820915222168,0.2700000000000001
6.228664398193359,5.133544921875,2.3756418228149414,0.2800000000000001
5.754474639892578,5.341662406921387,2.8377602100372314,0.2900000000000001
2.8907651901245117,5.535353660583496,3.1250388622283936,0.3000000000000001
-0.06502330303192139,5.212281227111816,3.2862627506256104,0.3100000000000001
-1.8228721618652344,4.313509941101074,3.150362014770508,0.3200000000000001
-2.820284366607666,3.117574691772461,2.996748447418213,0.3300000000000001
-3.3087384700775146,1.9936237335205078,2.9115071296691895,0.34000000000000014
-3.5842549800872803,1.2457799911499023,2.7418899536132812,0.35000000000000014
-3.703742504119873,0.9577445983886719,2.5100741386413574,0.36000000000000015
-3.75643253326416,1.0982551574707031,2.214744806289673,0.37000000000000016
-3.667304515838623,1.4495162963867188,1.888488531112671,0.38000000000000017
-3.5794811248779297,1.755620002746582,1.5886528491973877,0.3900000000000002
-3.3611907958984375,1.865983009338379,1.2349755764007568,0.4000000000000002
-3.129627227783203,1.718388557434082,0.7314107418060303,0.4100000000000002
-2.789151906967163,1.2886743545532227,0.0993267297744751,0.4200000000000002
-2.4526686668395996,0.8011798858642578,-0.5591039061546326,0.4300000000000002
-2.164397954940796,0.34121036529541016,-1.2695136070251465,0.4400000000000002
-2.040388822555542,0.06103515625,-1.822350025177002,0.45000000000000023
-1.9768775701522827,0.014973640441894531,-2.26593017578125,0.46000000000000024
-1.9684821367263794,0.01610279083251953,-2.7169241905212402,0.47000000000000025
-2.1966123580932617,0.15048885345458984,-3.089015483856201,0.48000000000000026
-2.47660493850708,0.32987213134765625,-3.5793662071228027,0.49000000000000027
-2.8269758224487305,0.3947019577026367,-4.173062801361084,0.5000000000000002
-3.1396431922912598,0.35311126708984375,-4.783343315124512,0.5100000000000002
-3.5002448558807373,0.3805837631225586,-5.296500205993652,0.5200000000000002
-3.577831268310547,0.5184869766235352,-5.646093368530273,0.5300000000000002
-3.251681327819824,0.7361326217651367,-5.4985504150390625,0.5400000000000003
-2.556226968765259,1.1172866821289062,-4.67902135848999,0.5500000000000003
-1.690505862236023,1.3986835479736328,-3.3992795944213867,0.5600000000000003
-0.9102168679237366,1.7331571578979492,-1.8627598285675049,0.5700000000000003
-0.18472059071063995,2.2107973098754883,-0.051726579666137695,0.5800000000000003
0.6577988862991333,2.834718704223633,2.0819177627563477,0.5900000000000003
1.4699029922485352,3.404111862182617,4.264159202575684,0.6000000000000003
1.735225796699524,3.893143653869629,5.545162200927734,0.6100000000000003
1.5471837520599365,3.9928579330444336,5.490627765655518,0.6200000000000003
0.8841860890388489,3.563150405883789,4.379049777984619,0.6300000000000003
-0.028019636869430542,2.9043960571289062,2.8923802375793457,0.6400000000000003
-0.6196162104606628,2.323615074157715,1.5117452144622803,0.6500000000000004
-0.8395659327507019,1.6800098419189453,0.38869667053222656,0.6600000000000004
-1.0478448867797852,0.9641475677490234,-0.534855842590332,0.6700000000000004
-1.2976505756378174,0.31244468688964844,-1.326404094696045,0.6800000000000004
-1.4721193313598633,-0.2728424072265625,-1.9813849925994873,0.6900000000000004
-1.6432456970214844,-0.8586626052856445,-2.5577244758605957,0.7000000000000004
-1.8614461421966553,-1.3731679916381836,-3.1396172046661377,0.7100000000000004
-2.0577213764190674,-1.8879203796386719,-3.761216163635254,0.7200000000000004
-2.2757484912872314,-2.414459228515625,-4.330202579498291,0.7300000000000004
-2.4777650833129883,-2.842383861541748,-4.866661548614502,0.7400000000000004
-2.7237913608551025,-3.2335686683654785,-5.366780757904053,0.7500000000000004
-2.9732110500335693,-3.6569418907165527,-5.788568496704102,0.7600000000000005
-3.2140870094299316,-3.9925594329833984,-6.039586544036865,0.7700000000000005
-3.345964193344116,-4.247496604919434,-6.12042236328125,0.7800000000000005
-3.373459815979004,-4.4313836097717285,-6.045652389526367,0.7900000000000005
-3.1016151905059814,-4.405930995941162,-5.757516860961914,0.8000000000000005
-2.806413412094116,-4.234119892120361,-5.377241611480713,0.8100000000000005
-2.5056471824645996,-3.995605945587158,-4.987640380859375,0.8200000000000005
-2.2894790172576904,-3.6479673385620117,-4.58777379989624,0.8300000000000005
-2.072113275527954,-3.287473201751709,-4.121681213378906,0.8400000000000005
-1.997887372970581,-2.9768176078796387,-3.617072582244873,0.8500000000000005
-1.9191848039627075,-2.747436046600342,-3.171196937561035,0.8600000000000005
-1.8749374151229858,-2.6116561889648438,-2.728065252304077,0.8700000000000006
-1.8228211402893066,-2.5649876594543457,-2.2438266277313232,0.8800000000000006
-1.7655785083770752,-2.612419605255127,-1.813614845275879,0.8900000000000006
-1.6600267887115479,-2.7468461990356445,-1.4586269855499268,0.9000000000000006
-1.525086760520935,-2.8965587615966797,-1.1068768501281738,0.9100000000000006
-1.334287166595459,-3.078404426574707,-0.7701153755187988,0.9200000000000006
-1.1566640138626099,-3.263700008392334,-0.4817507266998291,0.9300000000000006
-1.020474910736084,-3.464268207550049,-0.2348041534423828,0.9400000000000006
-0.8221567869186401,-3.5412473678588867,-0.055853843688964844,0.9500000000000006
-0.6949388980865479,-3.595008373260498,0.1265115737915039,0.9600000000000006
-0.7410728931427002,-3.610957145690918,0.30465269088745117,0.9700000000000006
-0.8911399841308594,-3.653413772583008,0.5116744041442871,0.9800000000000006
-1.2336935997009277,-3.753420352935791,0.8194952011108398,0.9900000000000007
-1.649099588394165,-3.77957820892334,1.331474781036377,1.0000000000000007
-2.032114028930664,-4.028591632843018,1.875762939453125,1.0100000000000007
-2.263197422027588,-4.270976543426514,2.4390978813171387,1.0200000000000007
-2.4382033348083496,-4.710162162780762,2.9386610984802246,1.0300000000000007
-2.426398754119873,-5.180783748626709,3.1788740158081055,1.0400000000000007
-2.463289976119995,-5.761221408843994,3.0210607051849365,1.0500000000000007
-2.236196517944336,-6.204422473907471,2.6491315364837646,1.0600000000000007
-1.9609675407409668,-6.521952152252197,2.100996971130371,1.0700000000000007
-1.525068998336792,-6.603388786315918,1.4430534839630127,1.0800000000000007
-0.9370888471603394,-6.388321876525879,0.6042685508728027,1.0900000000000007
-0.21955238282680511,-5.677285671234131,-0.38019847869873047,1.1000000000000008
0.6392654180526733,-4.256700038909912,-1.269997239112854,1.1100000000000008
1.2850197553634644,-2.3150739669799805,-1.846772313117981,1.1200000000000008
1.7097907066345215,0.03317546844482422,-2.064544677734375,1.1300000000000008
1.915687084197998,2.7356977462768555,-1.8605945110321045,1.1400000000000008
2.127298355102539,5.682544708251953,-1.1000865697860718,1.1500000000000008
2.347175359725952,8.811273574829102,0.3602328300476074,1.1600000000000008
2.691962480545044,12.118467330932617,2.692923069000244,1.1700000000000008
3.337165355682373,14.884860038757324,5.760941505432129,1.1800000000000008
4.260496139526367,16.60209846496582,8.929679870605469,1.1900000000000008
4.93424654006958,16.258575439453125,11.0182466506958,1.2000000000000008
4.223588466644287,12.986759185791016,10.891530990600586,1.2100000000000009
3.1290104389190674,8.878730773925781,9.476805686950684,1.2200000000000009
2.442554235458374,5.774848937988281,7.964673042297363,1.2300000000000009
1.8930848836898804,4.286221504211426,6.485881805419922,1.2400000000000009
1.2931715250015259,3.9086122512817383,4.935263633728027,1.2500000000000009
0.5111420154571533,4.109132766723633,3.4680731296539307,1.260000000000001
-0.4541128873825073,4.486279487609863,2.266029119491577,1.270000000000001
-1.2091245651245117,4.428074836730957,1.2613873481750488,1.280000000000001
-1.6231608390808105,3.9378137588500977,0.08029937744140625,1.290000000000001
-2.0984995365142822,3.368302345275879,-1.1807712316513062,1.300000000000001
-2.645448684692383,2.6664791107177734,-2.732173204421997,1.310000000000001
-3.1055262088775635,1.6993083953857422,-4.574783802032471,1.320000000000001
-3.61576771736145,0.5381660461425781,-6.260646820068359,1.330000000000001
-3.9977266788482666,-0.6829776763916016,-7.337379455566406,1.340000000000001
-4.446545124053955,-1.756044864654541,-7.672739028930664,1.350000000000001
-5.0099992752075195,-2.7052664756774902,-7.231308937072754,1.360000000000001
-5.607852458953857,-3.584670066833496,-6.163121223449707,1.370000000000001
-5.854527950286865,-4.244513988494873,-4.686356067657471,1.380000000000001
-5.787298202514648,-4.461879730224609,-3.275653839111328,1.390000000000001
-5.50747537612915,-4.1475725173950195,-2.2967753410339355,1.400000000000001
-4.588577747344971,-3.730639934539795,-2.00604248046875,1.410000000000001
-3.151358127593994,-3.419060707092285,-2.468388795852661,1.420000000000001
-1.2943859100341797,-3.174050807952881,-3.33119535446167,1.430000000000001
0.24529874324798584,-3.1074109077453613,-4.2739667892456055,1.440000000000001
1.213034749031067,-3.1443233489990234,-5.1344895362854,1.450000000000001
1.587105631828308,-3.1815242767333984,-5.78826904296875,1.460000000000001
1.6407980918884277,-2.9868812561035156,-6.179631233215332,1.470000000000001
1.4619543552398682,-2.754270076751709,-6.345593452453613,1.480000000000001
1.175809621810913,-2.323596954345703,-6.238409519195557,1.490000000000001
0.7347946763038635,-1.8291821479797363,-5.993858337402344,1.500000000000001
0.3399699330329895,-1.1637725830078125,-5.586862564086914,1.5100000000000011
-0.0640990138053894,-0.4499635696411133,-4.93664026260376,1.5200000000000011
-0.6114765405654907,0.37842464447021484,-3.8845810890197754,1.5300000000000011
-1.225041389465332,1.2151565551757812,-2.529653787612915,1.5400000000000011
-1.9968324899673462,2.090212821960449,-0.7542919516563416,1.5500000000000012
-2.8433451652526855,2.8228931427001953,1.261533498764038,1.5600000000000012
-3.273313045501709,3.189647674560547,3.566340684890747,1.5700000000000012
-3.020237445831299,2.9775848388671875,4.741388320922852,1.5800000000000012
-2.1794023513793945,2.2599544525146484,3.938721179962158,1.5900000000000012
-1.303445816040039,1.289851188659668,2.1320888996124268,1.6000000000000012
-0.41156184673309326,0.5399684906005859,0.29125237464904785,1.6100000000000012
0.3383190333843231,-0.022396087646484375,-1.1525648832321167,1.6200000000000012
1.0636541843414307,-0.3513307571411133,-2.2625722885131836,1.6300000000000012
1.5804483890533447,-0.4586353302001953,-3.2326769828796387,1.6400000000000012
1.7410105466842651,-0.4041757583618164,-4.07828426361084,1.6500000000000012
1.8285951614379883,-0.3914070129394531,-4.676820278167725,1.6600000000000013
1.8011239767074585,-0.41802310943603516,-4.978344440460205,1.6700000000000013
1.7292883396148682,-0.4507150650024414,-4.950503826141357,1.6800000000000013
1.583329200744629,-0.563812255859375,-4.541204929351807,1.6900000000000013
1.3881690502166748,-0.7119874954223633,-3.844123601913452,1.7000000000000013
1.1594483852386475,-0.8762760162353516,-2.916252374649048,1.7100000000000013
1.0779597759246826,-1.0736808776855469,-1.3395779132843018,1.7200000000000013
0.8910046219825745,-1.1729145050048828,0.07650703191757202,1.7300000000000013
0.6469760537147522,-1.1981124877929688,0.9376208782196045,1.7400000000000013
0.427226185798645,-1.2329864501953125,1.148884892463684,1.7500000000000013
0.058605849742889404,-1.2582368850708008,1.0344147682189941,1.7600000000000013
-0.2973814606666565,-1.1804304122924805,0.6034239530563354,1.7700000000000014
-0.5271270275115967,-1.0425806045532227,0.07539209723472595,1.7800000000000014
-0.5331148505210876,-1.1076745986938477,-0.36111515760421753,1.7900000000000014
-0.46634531021118164,-1.2367372512817383,-0.696223258972168,1.8000000000000014
-0.34103870391845703,-1.3914508819580078,-0.830390453338623,1.8100000000000014
-0.17134058475494385,-1.473806381225586,-0.7752188444137573,1.8200000000000014
-0.028825044631958008,-1.419412612915039,-0.5770691633224487,1.8300000000000014
0.0890243649482727,-1.3193683624267578,-0.35124868154525757,1.8400000000000014
0.16551458835601807,-1.0852899551391602,-0.2133219689130783,1.8500000000000014
0.1934189796447754,-0.8990755081176758,-0.11656968295574188,1.8600000000000014
0.22772860527038574,-0.8132495880126953,-0.09134885668754578,1.8700000000000014
0.27090245485305786,-0.7965574264526367,-0.11583319306373596,1.8800000000000014
0.14513027667999268,-0.6624212265014648,-0.09954643249511719,1.8900000000000015
-0.15307140350341797,-0.2675962448120117,-0.03179456293582916,1.9000000000000015
-0.17176580429077148,0.06478500366210938,0.026316560804843903,1.9100000000000015
-0.04239010810852051,0.40654754638671875,0.07354511320590973,1.9200000000000015
0.07995492219924927,0.6309700012207031,0.14277280867099762,1.9300000000000015
0.15002143383026123,0.7979745864868164,0.2269444763660431,1.9400000000000015
0.24699807167053223,0.7163553237915039,0.3074359595775604,1.9500000000000015
0.3375391364097595,0.48926734924316406,0.33943578600883484,1.9600000000000015
0.39040201902389526,0.33448028564453125,0.3593803644180298,1.9700000000000015
0.3983086347579956,0.146697998046875,0.3915698230266571,1.9800000000000015
0.5958442687988281,-0.2318124771118164,0.4313618540763855,1.9900000000000015
0.7941080331802368,-0.38233089447021484,0.4908520579338074,2.0000000000000013
0.9093730449676514,-0.5585689544677734,0.6252976655960083,2.010000000000001
1.0302636623382568,-0.8011102676391602,0.7798771262168884,2.020000000000001
1.2217891216278076,-1.0380611419677734,0.9138509035110474,2.0300000000000007
1.4795749187469482,-1.1713409423828125,0.9932498931884766,2.0400000000000005
1.6842461824417114,-1.1771411895751953,1.132394790649414,2.0500000000000003
1.8215103149414062,-1.1656389236450195,1.3473460674285889,2.06
1.884096384048462,-0.9671440124511719,1.601446509361267,2.07
1.8045251369476318,-0.48879337310791016,1.8434650897979736,2.0799999999999996
1.611267328262329,0.12065601348876953,2.0579328536987305,2.0899999999999994
1.2775133848190308,0.4399747848510742,2.303412437438965,2.099999999999999
0.9005887508392334,0.6007728576660156,2.459268569946289,2.109999999999999
0.4391587972640991,0.6006269454956055,2.572683095932007,2.1199999999999988
0.26620614528656006,0.5090045928955078,2.607822895050049,2.1299999999999986
0.2259831428527832,0.39060401916503906,2.5725998878479004,2.1399999999999983
0.2703925371170044,0.5324296951293945,2.475203275680542,2.149999999999998
0.5045644044876099,0.5110282897949219,2.4531664848327637,2.159999999999998
0.8014479279518127,0.6375102996826172,2.466775894165039,2.1699999999999977
1.2918572425842285,0.8326606750488281,2.2648746967315674,2.1799999999999975
1.74008309841156,1.0412330627441406,2.199786424636841,2.1899999999999973
2.307371139526367,1.502049446105957,2.0872485637664795,2.199999999999997
2.9178221225738525,1.9323244094848633,1.9320619106292725,2.209999999999997
3.3594703674316406,2.3748550415039062,1.5550153255462646,2.2199999999999966
3.7154979705810547,2.4206418991088867,1.152789831161499,2.2299999999999964
3.8967018127441406,2.5100059509277344,0.445529967546463,2.239999999999996
3.9749951362609863,2.28668212890625,-0.018601179122924805,2.249999999999996
4.027099132537842,2.203075408935547,-0.5650382041931152,2.259999999999996
4.087042808532715,2.118122100830078,-0.9737926721572876,2.2699999999999956
4.268136978149414,2.1086015701293945,-1.254860281944275,2.2799999999999954
4.310100078582764,2.2391786575317383,-1.4253290891647339,2.289999999999995
4.354851722717285,2.414273262023926,-1.4639739990234375,2.299999999999995
4.501510143280029,2.6030378341674805,-1.4740421772003174,2.3099999999999947
4.822885513305664,2.887040138244629,-1.3147296905517578,2.3199999999999945
5.0423479080200195,3.232942581176758,-0.830817461013794,2.3299999999999943
5.333372116088867,3.7317934036254883,-0.19943946599960327,2.339999999999994
5.6972246170043945,4.280805587768555,0.5573911070823669,2.349999999999994
6.100268840789795,4.817996978759766,1.3381578922271729,2.3599999999999937
6.408798694610596,5.5061845779418945,2.069654703140259,2.3699999999999934
6.239997386932373,6.182682991027832,2.616182327270508,2.3799999999999932
3.951639413833618,6.335575103759766,2.957085609436035,2.389999999999993
0.9977985620498657,5.769200325012207,3.165501117706299,2.399999999999993
-0.9028492569923401,4.738067626953125,3.1712028980255127,2.4099999999999926
-2.1112420558929443,3.6735801696777344,2.9425060749053955,2.4199999999999924
-2.737700939178467,2.908672332763672,2.555544376373291,2.429999999999992
-3.098083257675171,2.577394485473633,2.1324446201324463,2.439999999999992
-3.3008008003234863,2.517026901245117,1.6960200071334839,2.4499999999999917
-3.229780435562134,2.4812393188476562,1.3394808769226074,2.4599999999999915
-3.097127676010132,2.352954864501953,1.0178508758544922,2.4699999999999913
-2.9238104820251465,2.0269670486450195,0.7371605038642883,2.479999999999991
-2.7814276218414307,1.5102548599243164,0.3778228759765625,2.489999999999991
-2.513841152191162,0.9362592697143555,0.01163339614868164,2.4999999999999907
-2.317620277404785,0.5626459121704102,-0.48097485303878784,2.5099999999999905
-2.0645103454589844,0.3910179138183594,-1.0774106979370117,2.5199999999999902
-1.8852488994598389,0.27245616912841797,-1.6244515180587769,2.52999999999999
-1.9182634353637695,0.2496051788330078,-2.081895112991333,2.53999999999999
-2.074944257736206,0.27434253692626953,-2.4509170055389404,2.5499999999999896
-2.2884159088134766,0.2820625305175781,-2.814828872680664,2.5599999999999894
-2.5466887950897217,0.2730369567871094,-3.2075119018554688,2.569999999999989
-2.851970911026001,0.1856365203857422,-3.623047351837158,2.579999999999989
-3.258787155151367,0.14271259307861328,-4.070611953735352,2.5899999999999888
-3.6161956787109375,0.11151695251464844,-4.398453235626221,2.5999999999999885
-3.821171283721924,0.12115287780761719,-4.502926826477051,2.6099999999999883
-3.787415027618408,0.3247661590576172,-4.240718841552734,2.619999999999988
-3.5807747840881348,0.6935148239135742,-3.606600284576416,2.629999999999988
-2.9682674407958984,1.0549955368041992,-2.7330124378204346,2.6399999999999877
-2.076101064682007,1.4473381042480469,-1.7302184104919434,2.6499999999999875
-1.3289051055908203,1.9204673767089844,-0.6797394752502441,2.6599999999999873
-0.6845283508300781,2.5119123458862305,0.5336410999298096,2.669999999999987
-0.18746325373649597,3.210930824279785,1.74564790725708,2.679999999999987
0.09123200178146362,3.690824508666992,2.72786545753479,2.6899999999999866
0.18621276319026947,3.852832794189453,3.2742655277252197,2.6999999999999864
-0.013030894100666046,3.4648361206054688,3.1753060817718506,2.709999999999986
-0.28547078371047974,2.7567262649536133,2.5845842361450195,2.719999999999986
-0.5615448951721191,1.9844236373901367,1.9449689388275146,2.7299999999999858
-0.70717453956604,1.2482337951660156,1.275414228439331,2.7399999999999856
-0.8507030010223389,0.5121431350708008,0.5947854518890381,2.7499999999999853
-1.0262138843536377,-0.19985389709472656,-0.09990859031677246,2.759999999999985
-1.2260795831680298,-0.8467817306518555,-0.7643527984619141,2.769999999999985
-1.4348305463790894,-1.4019136428833008,-1.4645812511444092,2.7799999999999847
-1.5504612922668457,-1.9222393035888672,-2.1732659339904785,2.7899999999999845
-1.643338918685913,-2.3857421875,-2.860785484313965,2.7999999999999843
-1.7699602842330933,-2.8423027992248535,-3.4948134422302246,2.809999999999984
-1.8676183223724365,-3.2963600158691406,-4.0811662673950195,2.819999999999984
-1.9243879318237305,-3.678323268890381,-4.591886043548584,2.8299999999999836
-2.0221033096313477,-4.035765171051025,-5.082864761352539,2.8399999999999834
-2.185194492340088,-4.310837268829346,-5.586305618286133,2.849999999999983
-2.2441399097442627,-4.53660249710083,-6.050716400146484,2.859999999999983
-2.0599679946899414,-4.727027893066406,-6.395869255065918,2.869999999999983
-1.8019468784332275,-4.805369853973389,-6.579545974731445,2.8799999999999826
-1.5076711177825928,-4.716872215270996,-6.489406585693359,2.8899999999999824
-1.3247729539871216,-4.454966068267822,-6.179976463317871,2.899999999999982
-1.2410681247711182,-4.130463123321533,-5.700441837310791,2.909999999999982
-1.2615385055541992,-3.7584280967712402,-5.106997489929199,2.9199999999999817
-1.3242037296295166,-3.377885341644287,-4.489145755767822,2.9299999999999815
-1.3981224298477173,-3.09713077545166,-3.907705068588257,2.9399999999999813
-1.4547398090362549,-2.892770290374756,-3.3374760150909424,2.949999999999981
-1.530158519744873,-2.748525619506836,-2.820437431335449,2.959999999999981
-1.634228229522705,-2.8107447624206543,-2.295666217803955,2.9699999999999807
-1.6764659881591797,-2.936227321624756,-1.7812888622283936,2.9799999999999804
-1.7269043922424316,-3.206603527069092,-1.2884094715118408,2.9899999999999802
-1.800201654434204,-3.5501766204833984,-0.8595952987670898,2.99999999999998
-1.8346086740493774,-3.957314968109131,-0.5328950881958008,3.00999999999998
-1.849503755569458,-4.38254451751709,-0.25301647186279297,3.0199999999999796
-1.7800946235656738,-4.773200511932373,-0.048580169677734375,3.0299999999999794
-1.6568427085876465,-5.146018028259277,0.12831735610961914,3.039999999999979
-1.5337598323822021,-5.419609546661377,0.29909372329711914,3.049999999999979
-1.4000632762908936,-5.639366149902344,0.4468111991882324,3.0599999999999787
-1.3000032901763916,-5.802863121032715,0.6599745750427246,3.0699999999999785
-1.2329928874969482,-5.742480278015137,0.8114948272705078,3.0799999999999783
-1.3342876434326172,-5.881248474121094,0.9749274253845215,3.089999999999978
-1.418809413909912,-6.158492565155029,1.089512586593628,3.099999999999978
-1.5277220010757446,-6.152612686157227,1.209632158279419,3.1099999999999777
-1.5330169200897217,-5.798862934112549,1.392160177230835,3.1199999999999775
-1.6976975202560425,-5.603973865509033,1.4782874584197998,3.1299999999999772
-1.6673948764801025,-5.117687702178955,1.5582220554351807,3.139999999999977
-1.3319745063781738,-4.335148334503174,1.6218185424804688,3.149999999999977
-0.9595307111740112,-3.3877711296081543,1.6612529754638672,3.1599999999999766
-0.2765231728553772,-2.148440361022949,1.6850917339324951,3.1699999999999764
0.4090576767921448,-0.427886962890625,1.6772923469543457,3.179999999999976
0.9773002862930298,1.6522111892700195,1.7283592224121094,3.189999999999976
1.388370394706726,4.13284969329834,1.7821896076202393,3.1999999999999758
1.823216438293457,6.791913032531738,1.877790927886963,3.2099999999999755
2.289017915725708,9.887970924377441,2.157172679901123,3.2199999999999753
2.518428087234497,13.054780006408691,2.847160816192627,3.229999999999975
2.931933879852295,15.50279712677002,3.8610188961029053,3.239999999999975
3.4588205814361572,16.650941848754883,5.160243988037109,3.2499999999999747
3.5592048168182373,16.38477325439453,6.808876037597656,3.2599999999999745
3.2207393646240234,13.727083206176758,8.107486724853516,3.2699999999999743
2.3504323959350586,9.313961029052734,8.439526557922363,3.279999999999974
1.6382681131362915,5.705495834350586,8.30829906463623,3.289999999999974
1.3075684309005737,3.2730045318603516,7.71232795715332,3.2999999999999736
1.2858492136001587,1.7586050033569336,6.709371089935303,3.3099999999999734
1.3122774362564087,0.9099264144897461,5.37941837310791,3.319999999999973
1.2194015979766846,0.5350131988525391,3.848891019821167,3.329999999999973
0.875041127204895,0.5164346694946289,2.1357808113098145,3.3399999999999728
0.22772955894470215,0.8130893707275391,0.4457271099090576,3.3499999999999726
-0.5681089162826538,1.3618898391723633,-1.1407498121261597,3.3599999999999723
-1.5253703594207764,2.0828285217285156,-2.6354970932006836,3.369999999999972
-2.3197824954986572,2.5612030029296875,-3.923262596130371,3.379999999999972
-2.826359987258911,2.409395217895508,-5.049722194671631,3.3899999999999717
-3.0589005947113037,1.8743524551391602,-5.997198581695557,3.3999999999999715
-3.1720290184020996,1.3180007934570312,-6.632490634918213,3.4099999999999713
-3.368596076965332,0.8059015274047852,-7.111603736877441,3.419999999999971
-3.6319596767425537,0.3681774139404297,-7.384593963623047,3.429999999999971
-4.006381988525391,-0.0650634765625,-7.332564353942871,3.4399999999999706
-4.506613254547119,-0.7378683090209961,-6.748732089996338,3.4499999999999704
-4.852468967437744,-1.6082258224487305,-5.501352787017822,3.45999999999997
-4.883759498596191,-2.4501357078552246,-3.56656813621521,3.46999999999997
-4.666031837463379,-2.9046669006347656,-1.5548995733261108,3.47999999999997
-4.036746501922607,-3.026454448699951,0.13437879085540771,3.4899999999999696
-2.9969701766967773,-2.8932042121887207,1.1395230293273926,3.4999999999999694
-1.7129095792770386,-2.8088512420654297,1.023610234260559,3.509999999999969
-0.3177294135093689,-2.7464499473571777,0.0675574541091919,3.519999999999969
0.517143189907074,-2.7625937461853027,-1.3081283569335938,3.5299999999999687
0.9380040168762207,-2.937771797180176,-2.7050342559814453,3.5399999999999685
1.114196538925171,-3.034480571746826,-3.899440288543701,3.5499999999999683
1.1737347841262817,-3.186300277709961,-4.741220474243164,3.559999999999968
0.9443142414093018,-2.9745492935180664,-5.236972332000732,3.569999999999968
0.6329731941223145,-2.6149730682373047,-5.444383144378662,3.5799999999999677
0.2380812168121338,-2.115205764770508,-5.534676551818848,3.5899999999999674
-0.1919780969619751,-1.399306297302246,-5.541860580444336,3.5999999999999672
-0.692531943321228,-0.5900745391845703,-5.247781753540039,3.609999999999967
-1.18416428565979,0.2566394805908203,-4.618006706237793,3.619999999999967
-1.7691584825515747,1.125650405883789,-3.6133170127868652,3.6299999999999666
-2.2886626720428467,2.0280256271362305,-2.20609450340271,3.6399999999999664
-2.7340164184570312,2.9819345474243164,-0.411096453666687,3.649999999999966
-2.643371343612671,3.567972183227539,1.980348825454712,3.659999999999966
-2.0715491771698,3.556696891784668,3.7108397483825684,3.6699999999999657
-1.2603938579559326,2.9063796997070312,3.8727269172668457,3.6799999999999655
-0.37278270721435547,1.9871902465820312,2.803626775741577,3.6899999999999653
0.36646878719329834,1.0707988739013672,1.4019347429275513,3.699999999999965
1.0244885683059692,0.39477062225341797,0.046802520751953125,3.709999999999965
1.518000841140747,-0.12435340881347656,-0.8504382967948914,3.7199999999999647
1.797328233718872,-0.4792909622192383,-1.6121140718460083,3.7299999999999645
1.9231044054031372,-0.6844596862792969,-2.4346141815185547,3.7399999999999642
1.8319344520568848,-0.7185554504394531,-3.0864310264587402,3.749999999999964
1.5942649841308594,-0.754094123840332,-3.46394681930542,3.759999999999964
1.2449644804000854,-0.717106819152832,-3.656229019165039,3.7699999999999636
0.8856881260871887,-0.7704458236694336,-3.5557053089141846,3.7799999999999634
0.5272622108459473,-0.8161401748657227,-3.24556827545166,3.789999999999963
0.3148590922355652,-0.8735456466674805,-2.422762632369995,3.799999999999963
0.15175974369049072,-0.954777717590332,-1.6005525588989258,3.8099999999999627
0.07519346475601196,-0.9785566329956055,-0.9870513677597046,3.8199999999999625
-0.0030514001846313477,-1.1410322189331055,-0.5498135685920715,3.8299999999999623
-0.12383449077606201,-1.2410612106323242,-0.37324079871177673,3.839999999999962
-0.13478320837020874,-1.3789949417114258,-0.40173569321632385,3.849999999999962
-0.22090977430343628,-1.4828882217407227,-0.4465642273426056,3.8599999999999617
-0.20094019174575806,-1.7558937072753906,-0.4507945775985718,3.8699999999999615
-0.17341434955596924,-2.0781702995300293,-0.4051218330860138,3.8799999999999613
-0.12457555532455444,-2.339676856994629,-0.31394490599632263,3.889999999999961
-0.06684595346450806,-2.4496946334838867,-0.14950105547904968,3.899999999999961
-0.012488842010498047,-2.4156832695007324,0.05494984984397888,3.9099999999999606
-0.002324342727661133,-2.2379136085510254,0.2503858804702759,3.9199999999999604
0.10469192266464233,-1.8688278198242188,0.42207208275794983,3.92999999999996
0.08865118026733398,-1.5239009857177734,0.5745569467544556,3.93999999999996
0.16021138429641724,-1.183985710144043,0.5901675224304199,3.9499999999999598
0.19496232271194458,-0.9351444244384766,0.5110779404640198,3.9599999999999596
0.16150206327438354,-0.6576957702636719,0.33745869994163513,3.9699999999999593
-0.024667859077453613,-0.18193531036376953,0.13044430315494537,3.979999999999959
0.021245837211608887,0.23842811584472656,-0.08254081010818481,3.989999999999959
0.1461418867111206,0.4313325881958008,-0.16603100299835205,3.9999999999999587
0.30468595027923584,0.5859794616699219,-0.1874246448278427,4.009999999999959
0.5377460718154907,0.5757150650024414,-0.1610032618045807,4.019999999999959
0.7763001918792725,0.27645301818847656,-0.14172148704528809,4.0299999999999585
0.9920711517333984,0.001842498779296875,-0.15810464322566986,4.039999999999958
1.0845556259155273,-0.2696514129638672,-0.0709119588136673,4.049999999999958
1.2691290378570557,-0.640812873840332,0.08204548060894012,4.059999999999958
1.4310693740844727,-0.8651838302612305,0.2840817868709564,4.069999999999958
1.6159989833831787,-1.0265817642211914,0.3965440094470978,4.079999999999957
1.6420698165893555,-1.108316421508789,0.5464661121368408,4.089999999999957
1.7223695516586304,-1.1391429901123047,0.6570354700088501,4.099999999999957
1.8403733968734741,-1.1047391891479492,0.7181143164634705,4.109999999999957
1.8646790981292725,-1.0219087600708008,0.8176069855690002,4.119999999999957
1.6997418403625488,-0.7424755096435547,0.9835941791534424,4.129999999999956
1.34781014919281,-0.2978553771972656,1.2128159999847412,4.139999999999956
0.937693178653717,0.27097225189208984,1.4661972522735596,4.149999999999956
0.5359126925468445,0.74847412109375,1.6803280115127563,4.159999999999956
0.2210148572921753,1.0939092636108398,1.8704805374145508,4.1699999999999555
0.0044574737548828125,1.2569704055786133,2.0014472007751465,4.179999999999955
-0.18128681182861328,1.230447769165039,2.0287928581237793,4.189999999999955
-0.23639321327209473,1.0908784866333008,2.0284781455993652,4.199999999999955
-0.19531655311584473,0.9577999114990234,1.964991807937622,4.209999999999955
0.022562623023986816,0.8647003173828125,1.974045753479004,4.2199999999999545
0.41705048084259033,0.7829990386962891,2.0696091651916504,4.229999999999954
0.8469504117965698,0.7703132629394531,2.412205934524536,4.239999999999954
1.3626961708068848,0.9080009460449219,2.634661912918091,4.249999999999954
1.8231329917907715,0.9663600921630859,2.814183473587036,4.259999999999954
2.2687058448791504,0.9860239028930664,2.8714067935943604,4.269999999999953
2.777653694152832,1.1341304779052734,2.6374402046203613,4.279999999999953
3.1624279022216797,1.2596235275268555,2.4849472045898438,4.289999999999953
3.572737693786621,1.3909368515014648,2.2121119499206543,4.299999999999953
3.818223476409912,1.5109786987304688,1.5599133968353271,4.3099999999999525
4.15403938293457,1.4857349395751953,1.002575159072876,4.319999999999952
4.381185531616211,1.351308822631836,0.5699286460876465,4.329999999999952
4.509420394897461,1.2538471221923828,0.3587139844894409,4.339999999999952
4.639759063720703,1.1074485778808594,0.23100197315216064,4.349999999999952
4.712976455688477,1.2638425827026367,0.005170762538909912,4.3599999999999515
4.811289310455322,1.3522424697875977,-0.005619227886199951,4.369999999999951
4.9116621017456055,1.6072626113891602,0.12376236915588379,4.379999999999951
5.017454624176025,2.067143440246582,0.2943633496761322,4.389999999999951
5.0865159034729,2.6528701782226562,0.45707982778549194,4.399999999999951
5.203492641448975,3.2759361267089844,0.3446732759475708,4.40999999999995
5.091836452484131,3.7642269134521484,0.09128355979919434,4.41999999999995
4.855175971984863,4.070164680480957,-0.3007485270500183,4.42999999999995
4.67362642288208,4.19654655456543,-0.7160760164260864,4.43999999999995
4.530970573425293,4.11519718170166,-0.8297848701477051,4.4499999999999496
4.37934684753418,3.8577651977539062,-0.5951859951019287,4.459999999999949
4.171004772186279,3.5873708724975586,-0.033762261271476746,4.469999999999949
3.903379440307617,3.1990127563476562,0.7633095383644104,4.479999999999949
1.9404654502868652,2.9724550247192383,1.6601972579956055,4.489999999999949
-0.00847315788269043,2.869232177734375,2.406416177749634,4.4999999999999485
-1.4196314811706543,2.91831111907959,2.8242149353027344,4.509999999999948
-2.434685468673706,3.194427490234375,2.948923110961914,4.519999999999948
-3.0553035736083984,3.5906009674072266,2.908879518508911,4.529999999999948
-3.613497734069824,3.9208803176879883,2.8180878162384033,4.539999999999948
-3.9629855155944824,4.130759239196777,2.66068959236145,4.549999999999947
-4.115659713745117,4.210894584655762,2.4574413299560547,4.559999999999947
-4.107892990112305,4.087042808532715,2.2102432250976562,4.569999999999947
-4.070673942565918,3.7326908111572266,1.707058072090149,4.579999999999947
-4.241879463195801,3.5179662704467773,1.2145237922668457,4.589999999999947
-4.336732864379883,3.334444046020508,0.4039376974105835,4.599999999999946
-4.533724784851074,3.0570764541625977,-0.4605597257614136,4.609999999999946
-4.661846160888672,2.905306816101074,-1.306635856628418,4.619999999999946
-4.7143073081970215,2.679891586303711,-2.1051135063171387,4.629999999999946
-4.817600250244141,2.471071243286133,-2.6279971599578857,4.6399999999999455
-4.973501682281494,2.220738410949707,-2.905914545059204,4.649999999999945
-5.097281455993652,1.8111696243286133,-3.0940637588500977,4.659999999999945
-5.141986846923828,1.4381399154663086,-3.189854145050049,4.669999999999945
-5.153138160705566,1.1683988571166992,-3.201122283935547,4.679999999999945
-5.113176345825195,1.1287717819213867,-3.026576042175293,4.689999999999944
-4.345887184143066,1.188206672668457,-2.872352361679077,4.699999999999944
-3.1758041381835938,1.3213653564453125,-2.8017160892486572,4.709999999999944
-2.287247896194458,1.4167184829711914,-2.6334354877471924,4.719999999999944
-1.5752248764038086,1.4916563034057617,-2.3669867515563965,4.729999999999944
-1.0807647705078125,1.5992431640625,-1.9102745056152344,4.739999999999943
-0.4665249288082123,1.6587896347045898,-1.4299776554107666,4.749999999999943
-0.10066917538642883,1.8310670852661133,-1.053680181503296,4.759999999999943
0.20413097739219666,1.8555221557617188,-0.6711788177490234,4.769999999999943
0.5466718077659607,1.8446884155273438,-0.3558468818664551,4.7799999999999425
0.796729564666748,1.762176513671875,-0.10317468643188477,4.789999999999942
1.0635120868682861,1.5687999725341797,0.08737015724182129,4.799999999999942
1.2648320198059082,1.3711490631103516,0.11818337440490723,4.809999999999942
1.4184632301330566,1.0508975982666016,0.05641436576843262,4.819999999999942
1.450925350189209,0.7506809234619141,-0.14631247520446777,4.8299999999999415
1.3605002164840698,0.3310079574584961,-0.4456820487976074,4.839999999999941
1.1568201780319214,-0.18223285675048828,-0.7644619941711426,4.849999999999941
0.7868390083312988,-0.6958608627319336,-1.069303274154663,4.859999999999941
0.4587939381599426,-1.264674186706543,-1.4161372184753418,4.869999999999941
0.1609819233417511,-1.8619451522827148,-1.8562977313995361,4.87999999999994
-0.06783974170684814,-2.4011387825012207,-2.314394950866699,4.88999999999994
-0.32568496465682983,-2.9703879356384277,-2.7962870597839355,4.89999999999994
-0.550144612789154,-3.4304518699645996,-3.3582112789154053,4.90999999999994
-0.7484644651412964,-3.881505012512207,-3.907743215560913,4.9199999999999395
-0.9857022166252136,-4.234804630279541,-4.333124160766602,4.929999999999939
-1.1261487007141113,-4.564401626586914,-4.694682598114014,4.939999999999939
-1.2282671928405762,-4.817569255828857,-4.992733001708984,4.949999999999939
-1.3000895977020264,-4.869768142700195,-5.287658214569092,4.959999999999939
-1.371267318725586,-4.998308181762695,-5.524983882904053,4.9699999999999385
-1.3802769184112549,-4.987680912017822,-5.6979594230651855,4.979999999999938
-1.3418585062026978,-4.893097877502441,-5.777838706970215,4.989999999999938
-1.3399052619934082,-4.686094760894775,-5.714262962341309,4.999999999999938
-1.240204095840454,-4.419628620147705,-5.511809825897217,5.009999999999938
-1.1212658882141113,-4.1610541343688965,-5.244203090667725,5.019999999999937
-1.027653694152832,-3.9752964973449707,-4.927668571472168,5.029999999999937
-0.9515281319618225,-3.7096714973449707,-4.5089311599731445,5.039999999999937
-0.9714047312736511,-3.4699792861938477,-4.063775062561035,5.049999999999937
-0.969732403755188,-3.3092894554138184,-3.6033124923706055,5.0599999999999365
-1.0181888341903687,-3.2040534019470215,-3.1291236877441406,5.069999999999936
-1.090140461921692,-3.2334461212158203,-2.676497459411621,5.079999999999936
-1.1568766832351685,-3.371239185333252,-2.2305877208709717,5.089999999999936
-1.2689107656478882,-3.6102523803710938,-1.8101894855499268,5.099999999999936
-1.3740379810333252,-3.933772563934326,-1.407684326171875,5.1099999999999355
-1.5299696922302246,-4.337026596069336,-0.9963822364807129,5.119999999999935
-1.5789093971252441,-4.762714385986328,-0.5183749198913574,5.129999999999935
-1.6834073066711426,-5.1464033126831055,-0.0784602165222168,5.139999999999935
-1.8119043111801147,-5.521744251251221,0.33107471466064453,5.149999999999935
-1.9373729228973389,-5.829220294952393,0.8354125022888184,5.159999999999934
-2.2122244834899902,-5.90662956237793,1.41398286819458,5.169999999999934
-2.5069315433502197,-5.995857238769531,1.9240708351135254,5.179999999999934
-2.964794158935547,-6.046656131744385,2.3952269554138184,5.189999999999934
-3.3732831478118896,-6.015801429748535,2.8878326416015625,5.199999999999934
-3.864743947982788,-5.893169403076172,3.1648828983306885,5.209999999999933
-4.277189254760742,-5.642091751098633,3.259303092956543,5.219999999999933
-4.452784538269043,-5.278354644775391,3.1866683959960938,5.229999999999933
-4.409842491149902,-4.702659606933594,2.90659236907959,5.239999999999933
-4.178191184997559,-3.8206677436828613,2.4670181274414062,5.2499999999999325
-3.6607577800750732,-2.523838520050049,1.8414099216461182,5.259999999999932
-2.8456273078918457,-0.7971668243408203,1.2853472232818604,5.269999999999932
-1.8075350522994995,1.30975341796875,0.7448840141296387,5.279999999999932
-0.6020135879516602,3.5538692474365234,0.11407351493835449,5.289999999999932
0.49868088960647583,6.1825056076049805,-0.4630312919616699,5.299999999999931
1.4002352952957153,8.940420150756836,-0.7358601093292236,5.309999999999931
2.1369516849517822,11.988290786743164,-0.5538678169250488,5.319999999999931
2.8403213024139404,14.775432586669922,0.4094245433807373,5.329999999999931
3.4597232341766357,16.49974250793457,2.1866085529327393,5.339999999999931
4.150005340576172,16.832923889160156,4.537703990936279,5.34999999999993
5.291360378265381,15.109734535217285,6.905869007110596,5.35999999999993
6.171112537384033,11.428967475891113,8.418550491333008,5.36999999999993
6.413387775421143,7.915129661560059,9.088412284851074,5.37999999999993
6.275716781616211,5.434942245483398,9.13633918762207,5.3899999999999295
5.808390140533447,4.017473220825195,8.771041870117188,5.399999999999929
5.3933563232421875,3.2903947830200195,7.928837776184082,5.409999999999929
4.824820041656494,2.9779348373413086,6.75473690032959,5.419999999999929
3.947765588760376,2.907773017883301,5.239784240722656,5.429999999999929
2.7652032375335693,2.862468719482422,3.6597402095794678,5.4399999999999284
1.1765694618225098,2.720425605773926,2.128329277038574,5.449999999999928
-0.5307522416114807,2.457836151123047,0.7274432182312012,5.459999999999928
-2.1993892192840576,2.184330940246582,-0.5310046672821045,5.469999999999928
-3.669754981994629,1.8537721633911133,-1.655945062637329,5.479999999999928
-4.77632999420166,1.3485279083251953,-2.759817123413086,5.489999999999927
-5.5646071434021,0.6208791732788086,-3.8582916259765625,5.499999999999927
-6.09017276763916,-0.10601997375488281,-4.969139575958252,5.509999999999927
-6.575718402862549,-0.7305841445922852,-6.08879280090332,5.519999999999927
-6.877670764923096,-1.1340389251708984,-7.087522983551025,5.5299999999999265
-7.189840316772461,-1.3716793060302734,-7.727371692657471,5.539999999999926
-7.488257884979248,-1.5440855026245117,-7.789525032043457,5.549999999999926
-7.511446475982666,-1.709111213684082,-6.7564802169799805,5.559999999999926
-7.186875820159912,-1.8842668533325195,-4.671173095703125,5.569999999999926
-6.279026031494141,-2.0005064010620117,-2.557715892791748,5.5799999999999255
-4.355147361755371,-2.2910637855529785,-1.0385462045669556,5.589999999999925
-1.9678558111190796,-2.6768064498901367,-0.30750930309295654,5.599999999999925
-0.027652978897094727,-3.0276670455932617,-0.5717368125915527,5.609999999999925
0.9090758562088013,-3.397467613220215,-1.48832106590271,5.619999999999925
1.2639305591583252,-3.739619731903076,-2.602905750274658,5.629999999999924
1.3036754131317139,-4.022164344787598,-3.545271635055542,5.639999999999924
1.3036530017852783,-4.273119926452637,-4.158529758453369,5.649999999999924
1.2056310176849365,-4.434563636779785,-4.584609508514404,5.659999999999924
1.1669169664382935,-4.484783172607422,-4.810378074645996,5.6699999999999235
1.0105009078979492,-4.498175144195557,-4.8070387840271,5.679999999999923
0.8662852048873901,-4.336635589599609,-4.482263565063477,5.689999999999923
0.6367673873901367,-4.022595405578613,-4.007723331451416,5.699999999999923
0.3050343990325928,-3.308319568634033,-3.3349103927612305,5.709999999999923
-0.23772698640823364,-2.438998222351074,-2.5785117149353027,5.7199999999999225
-0.7846943736076355,-1.468195915222168,-1.880184531211853,5.729999999999922
-1.2633473873138428,-0.30350399017333984,-1.2937521934509277,5.739999999999922
-1.785482406616211,0.9345684051513672,-0.7227594256401062,5.749999999999922
-2.350377082824707,2.338545799255371,-0.0953136682510376,5.759999999999922
-2.8207287788391113,3.6519670486450195,0.47278714179992676,5.769999999999921
-3.023186206817627,4.638104438781738,0.9914499521255493,5.779999999999921
-2.908998966217041,5.230559349060059,1.2397195100784302,5.789999999999921
-2.3458259105682373,5.093107223510742,1.1243581771850586,5.799999999999921
-1.4140650033950806,4.3444318771362305,0.7400175333023071,5.809999999999921
-0.3703498840332031,3.1987552642822266,0.20717477798461914,5.81999999999992
0.3977806568145752,2.132992744445801,-0.40161436796188354,5.82999999999992
1.0318738222122192,1.3005380630493164,-0.8868228197097778,5.83999999999992
1.4753334522247314,0.6392688751220703,-1.485893726348877,5.84999999999992
1.7460575103759766,0.10374927520751953,-2.13839054107666,5.8599999999999195
1.902721643447876,-0.2152729034423828,-2.7320847511291504,5.869999999999919
1.9425349235534668,-0.3610877990722656,-3.282776355743408,5.879999999999919
1.8845221996307373,-0.4869394302368164,-3.7480955123901367,5.889999999999919
1.6495072841644287,-0.5474424362182617,-4.066442489624023,5.899999999999919
1.4279009103775024,-0.7053451538085938,-4.111878395080566,5.909999999999918
1.2375704050064087,-0.9438486099243164,-4.000349521636963,5.919999999999918
1.0195105075836182,-1.117070198059082,-3.6541500091552734,5.929999999999918
0.8483393788337708,-1.3399457931518555,-3.165584087371826,5.939999999999918
0.7389566898345947,-1.6339921951293945,-2.4355108737945557,5.949999999999918
0.737732470035553,-1.8485350608825684,-1.3259638547897339,5.959999999999917
0.8023145794868469,-2.0601725578308105,-0.3360818326473236,5.969999999999917
0.8227694630622864,-2.189934730529785,0.4624643921852112,5.979999999999917
0.8586654663085938,-2.197162628173828,0.9420270919799805,5.989999999999917
0.803936243057251,-2.0914711952209473,1.1082005500793457,5.9999999999999165
0.6070595383644104,-1.8227415084838867,1.0640391111373901,6.009999999999916
0.2664646506309509,-1.565765380859375,0.9485267996788025,6.019999999999916
-0.07784080505371094,-1.2966814041137695,0.7095690965652466,6.029999999999916
-0.2685372829437256,-1.0992660522460938,0.4253433048725128,6.039999999999916
-0.38458251953125,-0.96392822265625,0.16573046147823334,6.0499999999999154
-0.46405452489852905,-0.763916015625,-9.197741746902466E-4,6.059999999999915
-0.5930646061897278,-0.5328474044799805,-0.0632067322731018,6.069999999999915
-0.6252634525299072,-0.4333477020263672,-0.06713712960481644,6.079999999999915
-0.7279087901115417,-0.24285221099853516,-0.10250290483236313,6.089999999999915
-0.7143169641494751,-0.04273796081542969,-0.08974798768758774,6.099999999999914
-0.732801079750061,0.12160396575927734,-0.12211717665195465,6.109999999999914
-0.6874887943267822,0.18332672119140625,-0.1377941220998764,6.119999999999914
-0.5712623596191406,0.23346328735351562,-0.06322430819272995,6.129999999999914
-0.45116347074508667,0.25292301177978516,0.021975278854370117,6.1399999999999135
-0.3538393974304199,0.10543632507324219,0.1674674153327942,6.149999999999913
-0.22199547290802002,-0.2470569610595703,0.33668145537376404,6.159999999999913
-0.07246840000152588,-0.5771713256835938,0.45458370447158813,6.169999999999913
0.12345689535140991,-0.7964868545532227,0.6042455434799194,6.179999999999913
0.31562066078186035,-0.967341423034668,0.7083888053894043,6.1899999999999125
0.44434183835983276,-1.0826425552368164,0.8672395944595337,6.199999999999912
0.7014307975769043,-1.247629165649414,1.0330517292022705,6.209999999999912
0.9627286195755005,-1.3139457702636719,1.1893630027770996,6.219999999999912
1.1781975030899048,-1.1788358688354492,1.3345506191253662,6.229999999999912
1.367058277130127,-1.095931053161621,1.510290265083313,6.239999999999911
1.5484280586242676,-0.9503116607666016,1.6888165473937988,6.249999999999911
1.6886318922042847,-0.787445068359375,1.837222695350647,6.259999999999911
1.7418031692504883,-0.4615192413330078,2.017760992050171,6.269999999999911
1.7241766452789307,0.017597198486328125,2.1245903968811035,6.2799999999999105
1.5968413352966309,0.2908468246459961,2.1660430431365967,6.28999999999991
1.457215666770935,0.43232154846191406,2.1163058280944824,6.29999999999991
1.3166688680648804,0.48729419708251953,1.9063355922698975,6.30999999999991
1.2657173871994019,0.49384498596191406,1.6325056552886963,6.31999999999991
1.1100506782531738,0.4494590759277344,1.4691568613052368,6.3299999999999095
0.8972481489181519,0.46174144744873047,1.6273695230484009,6.339999999999909
1.0507557392120361,0.3824577331542969,1.8902981281280518,6.349999999999909
1.1612951755523682,0.4820060729980469,2.342763900756836,6.359999999999909
1.5159096717834473,0.6932649612426758,2.5739545822143555,6.369999999999909
1.7312668561935425,1.030411720275879,2.90785551071167,6.379999999999908
2.1796486377716064,1.4739131927490234,2.777097702026367,6.389999999999908
2.606065273284912,1.915736198425293,2.4114413261413574,6.399999999999908
2.8895962238311768,2.384249687194824,1.753522515296936,6.409999999999908
3.191951274871826,2.5636444091796875,1.17520272731781,6.419999999999908
3.4646692276000977,2.3849048614501953,0.8089909553527832,6.429999999999907
3.7143712043762207,2.3051185607910156,0.3156280219554901,6.439999999999907
3.985008478164673,1.6716527938842773,0.05705159902572632,6.449999999999907
4.339556694030762,1.3652992248535156,-0.3117374777793884,6.459999999999907
4.445858955383301,1.1776905059814453,-0.4995006322860718,6.4699999999999065
4.625048637390137,1.2355022430419922,-0.4784430265426636,6.479999999999906
4.8396148681640625,1.330601692199707,-0.13454025983810425,6.489999999999906
5.171555042266846,1.6926488876342773,0.3779827058315277,6.499999999999906
5.528515815734863,2.3095703125,0.98396897315979,6.509999999999906
5.722517490386963,3.1262216567993164,1.4596092700958252,6.519999999999905
5.802763938903809,3.86993408203125,1.5351972579956055,6.529999999999905
5.758774280548096,4.368829727172852,1.122602939605713,6.539999999999905
5.531844139099121,4.582766532897949,0.4524696171283722,6.549999999999905
5.144003391265869,4.574522972106934,0.010532140731811523,6.559999999999905
4.717320919036865,4.409212112426758,-9.594857692718506E-4,6.569999999999904
4.35239839553833,4.14951229095459,0.3725167214870453,6.579999999999904
4.126068592071533,3.850797653198242,1.1168359518051147,6.589999999999904
2.387910842895508,3.5128822326660156,2.0345964431762695,6.599999999999904
0.02270829677581787,3.281301498413086,2.81816029548645,6.6099999999999035
-1.6786937713623047,3.043696403503418,3.3040339946746826,6.619999999999903
-2.8280444145202637,2.9226598739624023,3.4434783458709717,6.629999999999903
-3.4925310611724854,2.957204818725586,3.270261287689209,6.639999999999903
-3.87296199798584,3.1265335083007812,2.8535304069519043,6.649999999999903
-4.065479278564453,3.292459487915039,2.398721933364868,6.659999999999902
-4.212105751037598,3.333319664001465,2.173007011413574,6.669999999999902
-4.1873931884765625,3.18939208984375,2.008591651916504,6.679999999999902
-4.17276668548584,2.9178695678710938,1.7900890111923218,6.689999999999902
-4.096920967102051,2.5851974487304688,1.4158108234405518,6.699999999999902
-4.121688365936279,2.3819875717163086,0.8570902347564697,6.709999999999901
-4.229976654052734,2.410167694091797,0.13209807872772217,6.719999999999901
-4.398869514465332,2.417501449584961,-0.6596086025238037,6.729999999999901
-4.559669017791748,2.4749603271484375,-1.5410244464874268,6.739999999999901
-4.692237854003906,2.6058759689331055,-2.2823212146759033,6.7499999999999005
-4.694368362426758,2.632871627807617,-2.838390350341797,6.7599999999999
-4.5559163093566895,2.689706802368164,-3.1472549438476562,6.7699999999999
-4.194064617156982,2.5443735122680664,-3.322134017944336,6.7799999999999
-3.337667465209961,2.3623876571655273,-3.4505615234375,6.7899999999999
-2.543177604675293,2.232532501220703,-3.5194642543792725,6.7999999999998995
-1.801164150238037,2.2578344345092773,-3.4083945751190186,6.809999999999899
-1.2455315589904785,2.1684322357177734,-3.1965017318725586,6.819999999999899
-0.6028987169265747,2.101533889770508,-2.956315755844116,6.829999999999899
-0.0946507453918457,1.7733144760131836,-2.752742052078247,6.839999999999899
0.16764922440052032,1.3661365509033203,-2.4552102088928223,6.849999999999898
0.4777141213417053,1.1194162368774414,-2.0760951042175293,6.859999999999898
0.6568679213523865,0.9875516891479492,-1.557602882385254,6.869999999999898
0.8798497319221497,0.8364219665527344,-0.9969725608825684,6.879999999999898
1.2343642711639404,0.6825103759765625,-0.443004846572876,6.8899999999998975
1.447985053062439,0.4893989562988281,0.06801462173461914,6.899999999999897
1.600587010383606,0.3496885299682617,0.44955015182495117,6.909999999999897
1.7125293016433716,0.26018238067626953,0.696113109588623,6.919999999999897
1.6435096263885498,0.23449134826660156,0.6868844032287598,6.929999999999897
1.438818335533142,0.13588237762451172,0.42701244354248047,6.9399999999998965
0.9970577955245972,0.02884674072265625,0.0431208610534668,6.949999999999896
0.5601820945739746,-0.1679248809814453,-0.44370484352111816,6.959999999999896
0.18023380637168884,-0.4998617172241211,-0.8780956268310547,6.969999999999896
-0.03349611163139343,-0.7566423416137695,-1.2168171405792236,6.979999999999896
-0.20670592784881592,-1.0487451553344727,-1.4904217720031738,6.989999999999895
-0.4150172472000122,-1.35968017578125,-1.74629807472229,6.999999999999895
-0.5904229283332825,-1.6824426651000977,-2.0463244915008545,7.009999999999895
-0.9376124143600464,-2.0481133460998535,-2.414374351501465,7.019999999999895
-1.1657823324203491,-2.214902400970459,-2.8819727897644043,7.0299999999998946
-1.3909465074539185,-2.5175046920776367,-3.3850791454315186,7.039999999999894
-1.6447769403457642,-2.8669662475585938,-3.8119359016418457,7.049999999999894
-1.8246419429779053,-3.0883312225341797,-4.232726573944092,7.059999999999894
-2.156094551086426,-3.303100109100342,-4.7060418128967285,7.069999999999894
-2.493969202041626,-3.5154643058776855,-5.192294120788574,7.0799999999998935
-2.690490961074829,-3.6555042266845703,-5.618467807769775,7.089999999999893
-2.9400534629821777,-3.8136520385742188,-5.98799467086792,7.099999999999893
-3.1232500076293945,-3.9345479011535645,-6.311135768890381,7.109999999999893
-3.2446792125701904,-3.9989938735961914,-6.444692611694336,7.119999999999893
-3.289572238922119,-3.9307432174682617,-6.350254058837891,7.129999999999892
-3.127934455871582,-3.8236193656921387,-6.072809219360352,7.139999999999892
-2.876023054122925,-3.6973414421081543,-5.60446310043335,7.149999999999892
-2.6308412551879883,-3.5549769401550293,-5.078235626220703,7.159999999999892
-2.3293232917785645,-3.4521775245666504,-4.514636039733887,7.169999999999892
-2.1172409057617188,-3.4301323890686035,-3.910262107849121,7.179999999999891
-2.0401132106781006,-3.4798383712768555,-3.278280735015869,7.189999999999891
-1.9691362380981445,-3.5325050354003906,-2.6151046752929688,7.199999999999891
-1.8231496810913086,-3.69386625289917,-2.0034773349761963,7.209999999999891
-1.839115858078003,-3.9187846183776855,-1.43772554397583,7.2199999999998905
-1.7872626781463623,-4.183617115020752,-0.9123187065124512,7.22999999999989
-1.777221918106079,-4.50520658493042,-0.5081875324249268,7.23999999999989
-1.7844114303588867,-4.8476128578186035,-0.1366591453552246,7.24999999999989
-1.7843232154846191,-5.177247524261475,0.10900115966796875,7.25999999999989
-1.8075649738311768,-5.477285385131836,0.398712158203125,7.269999999999889
-1.8773200511932373,-5.73338508605957,0.7254061698913574,7.279999999999889
-1.9499714374542236,-5.993276119232178,1.0316882133483887,7.289999999999889
-2.044048547744751,-6.204290390014648,1.3633060455322266,7.299999999999889
-2.1015944480895996,-6.254029273986816,1.6966753005981445,7.309999999999889
-2.2223072052001953,-6.403062343597412,2.0461935997009277,7.319999999999888
-2.5369973182678223,-6.674761772155762,2.277784585952759,7.329999999999888
-2.8945412635803223,-6.709784984588623,2.429591417312622,7.339999999999888
-3.223456621170044,-6.326027870178223,2.5203561782836914,7.349999999999888
-3.535900831222534,-5.807609558105469,2.539411783218384,7.3599999999998875
-3.6905152797698975,-5.053250312805176,2.451796054840088,7.369999999999887
-3.5312752723693848,-4.019351482391357,2.2658491134643555,7.379999999999887
-3.010099411010742,-2.4472174644470215,1.982745885848999,7.389999999999887
-2.2816340923309326,-0.5110101699829102,1.6864871978759766,7.399999999999887
-1.4931178092956543,1.871556282043457,1.1507782936096191,7.4099999999998865
-0.6639471054077148,4.627370834350586,0.592628002166748,7.419999999999886
0.18164417147636414,7.704860687255859,0.0527501106262207,7.429999999999886
0.8856872916221619,11.229048728942871,-0.36618804931640625,7.439999999999886
1.4505655765533447,14.752667427062988,-0.4740161895751953,7.449999999999886
2.073822021484375,17.763595581054688,0.03025031089782715,7.459999999999885
3.0279643535614014,19.380884170532227,1.809711217880249,7.469999999999885
4.108322620391846,19.073223114013672,4.196880340576172,7.479999999999885
5.033184051513672,16.343887329101562,6.379361152648926,7.489999999999885
5.319578647613525,11.558085441589355,7.84545373916626,7.4999999999998845
5.120105266571045,7.168094635009766,8.788097381591797,7.509999999999884
4.663515090942383,4.042621612548828,8.954090118408203,7.519999999999884
4.216830253601074,2.1240758895874023,8.213653564453125,7.529999999999884
3.8760414123535156,1.0731077194213867,6.909136772155762,7.539999999999884
3.4421966075897217,0.7400226593017578,5.283223628997803,7.5499999999998835
2.778109073638916,0.7746791839599609,3.4055335521698,7.559999999999883
1.851871371269226,0.9445695877075195,1.48443603515625,7.569999999999883
0.538564145565033,1.2255363464355469,-0.4511599540710449,7.579999999999883
-1.046068787574768,1.6558513641357422,-2.3176751136779785,7.589999999999883
-2.5481345653533936,1.8772106170654297,-4.013491153717041,7.599999999999882
-3.456599473953247,1.5702810287475586,-5.387669086456299,7.609999999999882
-4.025562286376953,1.160013198852539,-6.429226398468018,7.619999999999882
-4.613073348999023,1.0185575485229492,-7.0405378341674805,7.629999999999882
-5.174985885620117,1.039900779724121,-7.227443218231201,7.6399999999998816
-5.908601760864258,1.185755729675293,-6.918396949768066,7.649999999999881
-6.756387233734131,1.039963722229004,-6.0013298988342285,7.659999999999881
-7.55165433883667,0.39954566955566406,-4.203322887420654,7.669999999999881
-8.09771728515625,-0.6589546203613281,-1.5224041938781738,7.679999999999881
-8.321149826049805,-1.5933961868286133,1.3321694135665894,7.6899999999998805
-8.189273834228516,-2.3590192794799805,3.5439112186431885,7.69999999999988
-7.28627872467041,-2.9984521865844727,4.599041938781738,7.70999999999988
-5.4512128829956055,-3.497936248779297,4.112804889678955,7.71999999999988
-2.7033371925354004,-4.038672924041748,2.3130533695220947,7.72999999999988
-0.25189435482025146,-4.538199424743652,0.011031389236450195,7.739999999999879
1.134466290473938,-4.902169704437256,-2.432443618774414,7.749999999999879
1.642573595046997,-5.096291542053223,-4.65216064453125,7.759999999999879
1.6114046573638916,-5.074592590332031,-6.397453784942627,7.769999999999879
1.5055134296417236,-4.779390811920166,-7.584968566894531,7.779999999999879
1.3956273794174194,-4.423343181610107,-8.31849193572998,7.789999999999878
1.4136786460876465,-3.9130048751831055,-8.543313980102539,7.799999999999878
1.444562315940857,-3.2509193420410156,-8.41427993774414,7.809999999999878
1.3461146354675293,-2.506847381591797,-8.103809356689453,7.819999999999878
1.038003921508789,-1.616750717163086,-7.48645544052124,7.8299999999998775
0.6524777412414551,-0.48801708221435547,-6.757051944732666,7.839999999999877
0.20946550369262695,0.8093490600585938,-5.979118347167969,7.849999999999877
-0.057558417320251465,2.047787666320801,-5.137936115264893,7.859999999999877
-0.17639607191085815,3.050351142883301,-3.9379091262817383,7.869999999999877
0.1108931303024292,4.11604118347168,-1.5484097003936768,7.879999999999876
0.7947274446487427,4.909701347351074,1.7095431089401245,7.889999999999876
1.841500997543335,4.991326332092285,4.714895725250244,7.899999999999876
2.7656285762786865,4.249163627624512,6.186716079711914,7.909999999999876
3.4015769958496094,3.095503807067871,6.300998687744141,7.919999999999876
3.7894206047058105,2.090669631958008,5.161262035369873,7.929999999999875
3.7644362449645996,1.3138618469238281,3.245608329772949,7.939999999999875
3.4331157207489014,0.6863594055175781,1.1735048294067383,7.949999999999875
2.471580743789673,0.16759395599365234,-0.5729122757911682,7.959999999999875
1.1510015726089478,-0.24245071411132812,-1.9589070081710815,7.9699999999998745
0.10400539636611938,-0.515131950378418,-3.085721492767334,7.979999999999874
-0.6410399675369263,-0.7605190277099609,-3.9318013191223145,7.989999999999874
