AccX,AccY,AccZ,SampleRate
1.9258503913879395,-1.4474153518676758,-4.153228759765625,0
1.8789491653442383,-1.8440299034118652,-3.854801654815674,0.01
1.9261746406555176,-2.0700016021728516,-3.140923261642456,0.02
1.9068312644958496,-2.331310749053955,-2.20058274269104,0.03
1.936999797821045,-2.625643253326416,-1.239647626876831,0.04
1.8663725852966309,-2.8143396377563477,-0.5053154230117798,0.05
1.7975358963012695,-2.8018856048583984,0.1659163236618042,0.060000000000000005
1.5094181299209595,-2.566905975341797,0.7274090051651001,0.07
0.8611137270927429,-2.181314468383789,0.7150980830192566,0.08
0.40328484773635864,-1.685861587524414,0.5354530811309814,0.09
0.21121004223823547,-1.3221349716186523,0.17890405654907227,0.09999999999999999
0.13373920321464539,-1.0732393264770508,-0.08782929182052612,0.10999999999999999
0.10177275538444519,-0.8410158157348633,-0.21512454748153687,0.11999999999999998
0.04201224446296692,-0.6111221313476562,-0.3006877303123474,0.12999999999999998
-0.23878759145736694,-0.4792518615722656,-0.25472939014434814,0.13999999999999999
-0.43645304441452026,-0.40467071533203125,-0.17175164818763733,0.15
-0.493049681186676,-0.38251209259033203,-0.0528470054268837,0.16
-0.4296589493751526,-0.4126729965209961,0.019101865589618683,0.17
-0.38013947010040283,-0.43288421630859375,0.03488493338227272,0.18000000000000002
-0.4525313973426819,-0.38098716735839844,-0.084623783826828,0.19000000000000003
-0.477486252784729,-0.3933725357055664,-0.2633439600467682,0.20000000000000004
-0.47472673654556274,-0.30260467529296875,-0.34866631031036377,0.21000000000000005
-0.3513532280921936,-0.10165977478027344,-0.35797393321990967,0.22000000000000006
-0.1171002984046936,0.06107521057128906,-0.2676463723182678,0.23000000000000007
0.18724042177200317,0.32433128356933594,-0.08464626967906952,0.24000000000000007
0.47348666191101074,0.47043418884277344,0.021363437175750732,0.25000000000000006
0.7679908275604248,0.43498802185058594,0.13694679737091064,0.26000000000000006
0.8960092067718506,0.32820892333984375,0.1545225828886032,0.2700000000000001
0.9551286697387695,0.44185447692871094,0.1577816903591156,0.2800000000000001
1.1129446029663086,0.15157032012939453,0.08654344081878662,0.2900000000000001
1.2329787015914917,0.04366779327392578,0.11996471881866455,0.3000000000000001
1.3057844638824463,-0.1761789321899414,0.3057996332645416,0.3100000000000001
1.5613789558410645,-0.5866794586181641,0.5556520819664001,0.3200000000000001
1.7011305093765259,-0.8479995727539062,0.735551655292511,0.3300000000000001
1.8283315896987915,-1.0415468215942383,1.0062336921691895,0.34000000000000014
1.7946393489837646,-1.0788917541503906,1.198368787765503,0.35000000000000014
1.7196922302246094,-1.2399425506591797,1.4009331464767456,0.36000000000000015
1.6609143018722534,-1.3212575912475586,1.477748990058899,0.37000000000000016
1.3786052465438843,-1.1604061126708984,1.4668316841125488,0.38000000000000017
1.042198657989502,-0.9467010498046875,1.4822524785995483,0.3900000000000002
0.7180845141410828,-0.582341194152832,1.4702624082565308,0.4000000000000002
0.4946233034133911,-0.19920730590820312,1.4266960620880127,0.4100000000000002
0.4748747944831848,-0.0676279067993164,1.5199027061462402,0.4200000000000002
0.32835662364959717,0.032469749450683594,1.5736398696899414,0.4300000000000002
0.19551587104797363,0.3017101287841797,1.6203763484954834,0.4400000000000002
0.14538657665252686,0.18738460540771484,1.6045811176300049,0.45000000000000023
0.23008811473846436,0.08926868438720703,1.6874258518218994,0.46000000000000024
0.4586622714996338,0.11023712158203125,1.877715826034546,0.47000000000000025
0.7733786106109619,0.2310924530029297,1.9973599910736084,0.48000000000000026
1.1618802547454834,0.4181957244873047,1.869924783706665,0.49000000000000027
1.6233313083648682,0.6522197723388672,1.8045387268066406,0.5000000000000002
2.123073101043701,1.1840057373046875,1.792227029800415,0.5100000000000002
2.6261682510375977,1.936446189880371,1.6112829446792603,0.5200000000000002
3.033191680908203,2.4809799194335938,1.2931591272354126,0.5300000000000002
3.2809505462646484,2.7052431106567383,0.9623331427574158,0.5400000000000003
3.536642551422119,2.63826847076416,0.6715922951698303,0.5500000000000003
3.810182571411133,2.3761301040649414,0.4470473527908325,0.5600000000000003
4.004032135009766,2.1414718627929688,-0.08331692218780518,0.5700000000000003
4.154908180236816,1.8339614868164062,-0.4058334231376648,0.5800000000000003
4.421770095825195,1.592656135559082,-0.5613160133361816,0.5900000000000003
4.777228355407715,1.4083232879638672,-0.32170480489730835,0.6000000000000003
5.129140853881836,1.4940338134765625,0.024036169052124023,0.6100000000000003
5.378015041351318,1.6727323532104492,0.3708760142326355,0.6200000000000003
5.52498197555542,2.063976287841797,0.5024299025535583,0.6300000000000003
5.585038661956787,2.715282440185547,0.35668015480041504,0.6400000000000003
5.376665115356445,3.442124366760254,-0.040077269077301025,0.6500000000000004
5.129504203796387,4.100905418395996,-0.3021395206451416,0.6600000000000004
4.850512504577637,4.483790397644043,-0.3606794774532318,0.6700000000000004
4.580043792724609,4.536327362060547,-0.0545467734336853,0.6800000000000004
4.423012733459473,4.405027389526367,0.5608307123184204,0.6900000000000004
4.221269607543945,4.193146705627441,1.5165879726409912,0.7000000000000004
3.547880172729492,3.9318599700927734,2.4842543601989746,0.7100000000000004
1.114647626876831,3.7881832122802734,3.2985522747039795,0.7200000000000004
-0.8913702964782715,3.472543716430664,3.7347636222839355,0.7300000000000004
-2.252933979034424,2.9951162338256836,3.82283616065979,0.7400000000000004
-2.9158706665039062,2.552947998046875,3.635988712310791,0.7500000000000004
-3.5240392684936523,2.350092887878418,3.26369571685791,0.7600000000000005
-3.840580463409424,2.4922399520874023,2.7976620197296143,0.7700000000000005
-4.002049446105957,2.850421905517578,2.2786500453948975,0.7800000000000005
-4.058375835418701,3.1497230529785156,1.791282296180725,0.7900000000000005
-3.9564247131347656,3.3304595947265625,1.3032981157302856,0.8000000000000005
-3.7006161212921143,3.2418079376220703,0.7659637928009033,0.8100000000000005
-3.3800430297851562,3.0077667236328125,0.15455734729766846,0.8200000000000005
-3.0442421436309814,2.6754865646362305,-0.5395644903182983,0.8300000000000005
-2.6883559226989746,2.509634017944336,-1.2782366275787354,0.8400000000000005
-2.4470224380493164,2.337092399597168,-1.955075979232788,0.8500000000000005
-2.395890235900879,2.322275161743164,-2.6009585857391357,0.8600000000000005
-2.508326768875122,2.416797637939453,-3.1518349647521973,0.8700000000000006
-2.5880489349365234,2.414809226989746,-3.6451499462127686,0.8800000000000006
-2.8047406673431396,2.362126350402832,-4.047675132751465,0.8900000000000006
-3.0837602615356445,2.266598701477051,-4.384629249572754,0.9000000000000006
-3.2621374130249023,2.1196508407592773,-4.610279083251953,0.9100000000000006
-3.406463623046875,1.864975929260254,-4.570952415466309,0.9200000000000006
-3.3706254959106445,1.6949052810668945,-4.214785575866699,0.9300000000000006
-3.075356960296631,1.473703384399414,-3.5624637603759766,0.9400000000000006
-2.4879517555236816,1.1993579864501953,-2.6544556617736816,0.9500000000000006
-1.5548161268234253,1.0488100051879883,-1.5321993827819824,0.9600000000000006
-0.7048923969268799,1.066873550415039,-0.24805450439453125,0.9700000000000006
0.16718018054962158,1.238144874572754,1.0984508991241455,0.9800000000000006
0.8986486792564392,1.4892807006835938,2.490215301513672,0.9900000000000007
1.2814643383026123,1.7658004760742188,3.644836187362671,1.0000000000000007
1.3319165706634521,1.9228515625,4.182640075683594,1.0100000000000007
1.0217666625976562,1.8474206924438477,3.875732183456421,1.0200000000000007
0.38626790046691895,1.666325569152832,2.9781463146209717,1.0300000000000007
-0.1855451464653015,1.3846473693847656,1.8720166683197021,1.0400000000000007
-0.5959384441375732,1.0960168838500977,0.8025286197662354,1.0500000000000007
-0.7271130084991455,0.7361335754394531,-0.20546555519104004,1.0600000000000007
-0.8705064654350281,0.2815256118774414,-1.0100607872009277,1.0700000000000007
-0.9865579605102539,-0.17650508880615234,-1.7564830780029297,1.0800000000000007
-0.9351300597190857,-0.5422115325927734,-2.352540969848633,1.0900000000000007
-0.9739904999732971,-0.9781961441040039,-2.8302721977233887,1.1000000000000008
-1.0742511749267578,-1.4028091430664062,-3.3126957416534424,1.1100000000000008
-1.346602201461792,-1.9281368255615234,-3.7766082286834717,1.1200000000000008
-1.4494714736938477,-2.2859768867492676,-4.272855281829834,1.1300000000000008
-1.70456862449646,-2.7010202407836914,-4.780294895172119,1.1400000000000008
-2.026777505874634,-3.070141315460205,-5.2011213302612305,1.1500000000000008
-2.297215461730957,-3.4983057975769043,-5.559821128845215,1.1600000000000008
-2.5906882286071777,-3.8631300926208496,-5.91208553314209,1.1700000000000008
-2.8455257415771484,-4.107113361358643,-6.1577301025390625,1.1800000000000008
-3.0669054985046387,-4.29722785949707,-6.306580066680908,1.1900000000000008
-3.302727699279785,-4.354602813720703,-6.3372416496276855,1.2000000000000008
-3.5167109966278076,-4.267793655395508,-6.086593151092529,1.2100000000000009
-3.634629726409912,-4.1233439445495605,-5.817419052124023,1.2200000000000009
-3.6535911560058594,-3.916909694671631,-5.478952884674072,1.2300000000000009
-3.6157939434051514,-3.7113118171691895,-5.032158374786377,1.2400000000000009
-3.5128297805786133,-3.5047659873962402,-4.509891986846924,1.2500000000000009
-3.3771591186523438,-3.3457164764404297,-4.011857509613037,1.260000000000001
-3.2870874404907227,-3.2801766395568848,-3.439012050628662,1.270000000000001
-3.0990114212036133,-3.315882682800293,-2.799781084060669,1.280000000000001
-2.9950835704803467,-3.453261375427246,-2.1672704219818115,1.290000000000001
-2.7843475341796875,-3.7023134231567383,-1.487677812576294,1.300000000000001
-2.580294132232666,-3.955598831176758,-0.946707010269165,1.310000000000001
-2.4271240234375,-4.3112006187438965,-0.536529541015625,1.320000000000001
-2.189262866973877,-4.627856254577637,-0.2448439598083496,1.330000000000001
-1.9577670097351074,-4.941422462463379,-0.09061002731323242,1.340000000000001
-1.6003127098083496,-5.139496803283691,0.024250507354736328,1.350000000000001
-1.235245704650879,-5.4301676750183105,0.18313074111938477,1.360000000000001
-0.9637035131454468,-5.7295308113098145,0.3688383102416992,1.370000000000001
-0.7864793539047241,-5.829416275024414,0.6168913841247559,1.380000000000001
-0.7766521573066711,-5.858937740325928,0.9269018173217773,1.390000000000001
-0.9502618312835693,-5.698246955871582,1.3462543487548828,1.400000000000001
-1.2204495668411255,-5.9185075759887695,1.7952361106872559,1.410000000000001
-1.4704887866973877,-5.832322120666504,2.163209915161133,1.420000000000001
-1.6799508333206177,-5.515830039978027,2.4352340698242188,1.430000000000001
-1.8593206405639648,-5.26755428314209,2.5749566555023193,1.440000000000001
-1.8733479976654053,-4.869318962097168,2.6348588466644287,1.450000000000001
-1.8909293413162231,-4.452376842498779,2.5861551761627197,1.460000000000001
-1.7934157848358154,-3.9158692359924316,2.4548463821411133,1.470000000000001
-1.5001767873764038,-3.1448235511779785,2.3195788860321045,1.480000000000001
-0.7951270341873169,-2.0793371200561523,2.112846851348877,1.490000000000001
0.21337103843688965,-0.5325708389282227,1.838050127029419,1.500000000000001
1.073752760887146,1.584442138671875,1.5495729446411133,1.5100000000000011
1.6096091270446777,4.1168928146362305,1.1925098896026611,1.5200000000000011
2.000835418701172,6.98906135559082,1.0266821384429932,1.5300000000000011
2.4373483657836914,10.033807754516602,1.066711187362671,1.5400000000000011
2.652824878692627,13.391636848449707,1.6845273971557617,1.5500000000000012
2.86356782913208,16.309917449951172,3.1150128841400146,1.5600000000000012
3.4440741539001465,17.811538696289062,4.93372106552124,1.5700000000000012
4.482355117797852,17.34881591796875,6.781301498413086,1.5800000000000012
5.432315826416016,13.95302677154541,7.592921257019043,1.5900000000000012
5.875155925750732,9.665913581848145,7.385641098022461,1.6000000000000012
5.301155090332031,6.52490234375,6.267122268676758,1.6100000000000012
4.449808120727539,4.893239974975586,4.419800281524658,1.6200000000000012
3.8363261222839355,4.068633079528809,2.615229606628418,1.6300000000000012
3.018805742263794,3.5710573196411133,1.4961156845092773,1.6400000000000012
1.9444751739501953,3.1139001846313477,1.2463326454162598,1.6500000000000012
0.5513173937797546,2.651759147644043,1.6602044105529785,1.6600000000000013
-0.8981990814208984,2.19168758392334,2.1290249824523926,1.6700000000000013
-2.349181652069092,2.2575931549072266,2.0312891006469727,1.6800000000000013
-3.324117422103882,2.012857437133789,1.073725938796997,1.6900000000000013
-3.8091602325439453,1.2640199661254883,-0.7250876426696777,1.7000000000000013
-4.276246070861816,0.29740428924560547,-2.9249300956726074,1.7100000000000013
-4.762457370758057,-0.5470085144042969,-5.086172103881836,1.7200000000000013
-5.222131252288818,-1.1539554595947266,-6.645236015319824,1.7300000000000013
-5.987418174743652,-1.6617584228515625,-7.320423126220703,1.7400000000000013
-7.134766101837158,-2.2804689407348633,-6.854825019836426,1.7500000000000013
-8.195680618286133,-3.040285110473633,-5.615693092346191,1.7600000000000013
-8.612634658813477,-3.6373472213745117,-4.043815612792969,1.7700000000000014
-8.449063301086426,-3.8692269325256348,-2.895524501800537,1.7800000000000014
-7.891236305236816,-3.78155517578125,-2.242595672607422,1.7900000000000014
-6.97467041015625,-3.5645346641540527,-2.306361436843872,1.8000000000000014
-5.511691093444824,-3.3663406372070312,-3.1384782791137695,1.8100000000000014
-3.9764180183410645,-3.142915725708008,-4.556943893432617,1.8200000000000014
-2.1976284980773926,-2.905245780944824,-6.113914489746094,1.8300000000000014
-0.9026908874511719,-2.765007972717285,-7.245580196380615,1.8400000000000014
-0.11996519565582275,-2.6690073013305664,-7.82774543762207,1.8500000000000014
0.13585594296455383,-2.5690388679504395,-8.085306167602539,1.8600000000000014
0.12356889247894287,-2.280698299407959,-8.154648780822754,1.8700000000000014
0.12481480836868286,-1.9642596244812012,-8.092602729797363,1.8800000000000014
0.1163407564163208,-1.5504074096679688,-7.728157997131348,1.8900000000000015
0.08145695924758911,-1.1135320663452148,-6.887446880340576,1.9000000000000015
0.13206440210342407,-0.4674062728881836,-5.616432189941406,1.9100000000000015
0.26497337222099304,0.1528482437133789,-3.665266752243042,1.9200000000000015
0.6283133625984192,0.9615201950073242,-1.123525619506836,1.9300000000000015
0.8425503969192505,1.8350744247436523,1.515740990638733,1.9400000000000015
1.2098896503448486,2.613933563232422,4.272391319274902,1.9500000000000015
1.5774742364883423,3.0554141998291016,6.196654319763184,1.9600000000000015
1.8357648849487305,2.8298444747924805,6.04904842376709,1.9700000000000015
1.5839128494262695,2.046717643737793,3.8466262817382812,1.9800000000000015
1.0943350791931152,1.2245922088623047,1.212869644165039,1.9900000000000015
0.7351073622703552,0.5010108947753906,-1.0072872638702393,2.0000000000000013
0.6038026809692383,-0.02999401092529297,-2.669715166091919,2.010000000000001
0.5570400953292847,-0.31307220458984375,-3.7798240184783936,2.020000000000001
0.6100152730941772,-0.4342823028564453,-4.437194347381592,2.0300000000000007
0.7015448212623596,-0.3937540054321289,-4.612905502319336,2.0400000000000005
0.6749182343482971,-0.31133270263671875,-4.374608039855957,2.0500000000000003
0.7705880403518677,-0.28052425384521484,-3.5851664543151855,2.06
0.6644799709320068,-0.33259105682373047,-2.6398568153381348,2.07
0.6211851835250854,-0.5274124145507812,-1.7300212383270264,2.0799999999999996
0.3330484926700592,-0.726292610168457,-1.0638242959976196,2.0899999999999994
0.051685333251953125,-0.8145971298217773,-0.694158136844635,2.099999999999999
-0.17742878198623657,-0.7853364944458008,-0.5769123435020447,2.109999999999999
-0.280508816242218,-0.8227777481079102,-0.611423909664154,2.1199999999999988
-0.43304944038391113,-0.8766326904296875,-0.68546062707901,2.1299999999999986
-0.4754241704940796,-0.932525634765625,-0.7780018448829651,2.1399999999999983
-0.3840855360031128,-1.1099748611450195,-0.8491673469543457,2.149999999999998
-0.168643057346344,-1.3394432067871094,-0.83754962682724,2.159999999999998
0.005942642688751221,-1.6041135787963867,-0.7290775179862976,2.1699999999999977
0.1398981213569641,-1.86090087890625,-0.6194019913673401,2.1799999999999975
0.2715523838996887,-2.1026511192321777,-0.46999257802963257,2.1899999999999973
0.41036444902420044,-2.243321418762207,-0.32108715176582336,2.199999999999997
0.5013656616210938,-2.349982261657715,-0.18433648347854614,2.209999999999997
0.6425566673278809,-2.3126869201660156,-0.08325892686843872,2.2199999999999966
0.7260120511054993,-2.1722679138183594,0.006448328495025635,2.2299999999999964
0.7612248659133911,-1.9742794036865234,0.0756729245185852,2.239999999999996
0.8366506695747375,-1.7211647033691406,0.09632558375597,2.249999999999996
0.7365953922271729,-1.477555274963379,0.13590937852859497,2.259999999999996
0.5562220811843872,-1.0210847854614258,0.1658671349287033,2.2699999999999956
0.3715224266052246,-0.3711671829223633,0.1953614354133606,2.2799999999999954
0.36907827854156494,0.2185344696044922,0.22611233592033386,2.289999999999995
0.4004219174385071,0.5831260681152344,0.26715052127838135,2.299999999999995
0.5325080156326294,0.7707223892211914,0.2989656925201416,2.3099999999999947
0.5380209684371948,0.7982864379882812,0.3598366379737854,2.3199999999999945
0.6298760175704956,0.7592763900756836,0.4090316593647003,2.3299999999999943
0.7408257722854614,0.7470054626464844,0.3768842816352844,2.339999999999994
0.8181845545768738,0.5318641662597656,0.3250817060470581,2.349999999999994
0.8737926483154297,0.4344644546508789,0.3319418430328369,2.3599999999999937
0.976902186870575,0.28484439849853516,0.3971271514892578,2.3699999999999934
1.0128018856048584,0.2623929977416992,0.48704296350479126,2.3799999999999932
1.142201542854309,0.1374492645263672,0.6186549067497253,2.389999999999993
1.3082220554351807,0.005873680114746094,0.7706049680709839,2.399999999999993
1.3894410133361816,-0.14897727966308594,0.8378309011459351,2.4099999999999926
1.4124228954315186,-0.23855209350585938,0.9977397918701172,2.4199999999999924
1.2501835823059082,-0.16487598419189453,1.2796974182128906,2.429999999999992
1.3169405460357666,-0.24370956420898438,1.4898083209991455,2.439999999999992
1.4144619703292847,-0.32419586181640625,1.6248514652252197,2.4499999999999917
1.3607555627822876,-0.2677593231201172,1.8679039478302002,2.4599999999999915
1.1863735914230347,-0.13219642639160156,2.1600215435028076,2.4699999999999913
0.8114962577819824,0.08445167541503906,2.514071464538574,2.479999999999991
0.3740410804748535,0.3219795227050781,2.8929355144500732,2.489999999999991
0.09099984169006348,0.6159677505493164,3.212043046951294,2.4999999999999907
-0.11246240139007568,0.8777151107788086,3.380605936050415,2.5099999999999905
-0.20754897594451904,1.0713939666748047,3.362981081008911,2.5199999999999902
0.11483359336853027,0.9987678527832031,3.0377068519592285,2.52999999999999
0.5123354196548462,1.1719856262207031,2.6501924991607666,2.53999999999999
0.8812806606292725,1.5117769241333008,2.1322379112243652,2.5499999999999896
1.2681336402893066,1.9651575088500977,1.6192177534103394,2.5599999999999894
1.9152421951293945,2.144500732421875,1.6563221216201782,2.569999999999989
2.617304801940918,2.322298049926758,1.0087183713912964,2.579999999999989
3.169113874435425,2.3880538940429688,0.2504000663757324,2.5899999999999888
3.571685791015625,2.188570022583008,-0.2329099178314209,2.5999999999999885
3.891653537750244,1.6644296646118164,-0.3968862295150757,2.6099999999999883
3.9464364051818848,1.5045204162597656,-0.8012382984161377,2.619999999999988
3.929497241973877,1.1846923828125,-1.1133060455322266,2.629999999999988
4.005921363830566,0.8152122497558594,-1.338606595993042,2.6399999999999877
4.056434631347656,0.5158567428588867,-1.4711229801177979,2.6499999999999875
4.198192596435547,0.6213464736938477,-1.656404733657837,2.6599999999999873
4.220475196838379,0.9829950332641602,-1.83673894405365,2.669999999999987
4.271949768066406,1.5600700378417969,-1.992527723312378,2.679999999999987
4.367772579193115,2.2260265350341797,-2.117655038833618,2.6899999999999866
4.574163436889648,2.907329559326172,-1.9511144161224365,2.6999999999999864
4.989068984985352,3.4780521392822266,-1.4056119918823242,2.709999999999986
5.651640892028809,3.9918317794799805,-0.3114815354347229,2.719999999999986
6.41262674331665,4.552290916442871,1.02248215675354,2.7299999999999858
7.039034366607666,5.207596778869629,2.3321692943573,2.7399999999999856
7.503495693206787,5.9839982986450195,3.1790623664855957,2.7499999999999853
7.32963752746582,6.730438232421875,3.4623236656188965,2.759999999999985
4.115193843841553,6.7337493896484375,3.4608070850372314,2.769999999999985
0.5165392160415649,5.968111991882324,3.5065014362335205,2.7799999999999847
-1.496881127357483,5.039575576782227,3.3127055168151855,2.7899999999999845
-2.7366042137145996,4.374356269836426,2.8782906532287598,2.7999999999999843
-3.3619534969329834,3.903268814086914,2.2820510864257812,2.809999999999984
-3.6418039798736572,3.6480627059936523,1.687415361404419,2.819999999999984
-3.6273117065429688,3.43670654296875,1.169994831085205,2.8299999999999836
-3.484679937362671,3.1139612197875977,0.954693615436554,2.8399999999999834
-3.28909969329834,2.720651626586914,0.8796033263206482,2.849999999999983
-3.1038568019866943,2.25656795501709,0.9013844728469849,2.859999999999983
-2.8221144676208496,1.702000617980957,0.8364886045455933,2.869999999999983
-2.5455210208892822,1.2163496017456055,0.6036981344223022,2.8799999999999826
-2.244778871536255,0.8584461212158203,0.1221456527709961,2.8899999999999824
-1.8507565259933472,0.6729736328125,-0.535804808139801,2.899999999999982
-1.5890522003173828,0.5062646865844727,-1.1573554277420044,2.909999999999982
-1.4134371280670166,0.36998558044433594,-1.7430654764175415,2.9199999999999817
-1.4102380275726318,0.3429231643676758,-2.2509360313415527,2.9299999999999815
-1.5415394306182861,0.3414020538330078,-2.6351141929626465,2.9399999999999813
-1.776532530784607,0.3489665985107422,-2.9173038005828857,2.949999999999981
-2.082285165786743,0.3948545455932617,-3.1416006088256836,2.959999999999981
-2.5605125427246094,0.5277605056762695,-3.504157066345215,2.9699999999999807
-3.1098177433013916,0.7270231246948242,-3.8322999477386475,2.9799999999999804
-3.513500452041626,0.9288339614868164,-3.954676628112793,2.9899999999999802
-3.7213191986083984,1.2439804077148438,-3.8139734268188477,2.99999999999998
-3.6865651607513428,1.5198907852172852,-3.437356472015381,3.00999999999998
-3.432281255722046,1.816575050354004,-2.734943389892578,3.0199999999999796
-2.8838844299316406,2.2127342224121094,-1.8571921586990356,3.0299999999999794
-2.0703628063201904,2.628843307495117,-0.8033103942871094,3.039999999999979
-1.2906970977783203,2.970709800720215,0.17684483528137207,3.049999999999979
-0.8522443771362305,3.150933265686035,1.3221344947814941,3.0599999999999787
-0.618076741695404,3.122709274291992,2.2178494930267334,3.0699999999999785
-0.6013205051422119,2.7436676025390625,2.745617151260376,3.0799999999999783
-0.7260943651199341,2.1350650787353516,2.766714096069336,3.089999999999978
-0.8939591646194458,1.4328346252441406,2.354217052459717,3.099999999999978
-1.1071367263793945,0.7801933288574219,1.7431738376617432,3.1099999999999777
-1.3047521114349365,0.19143009185791016,1.023993968963623,3.1199999999999775
-1.5663232803344727,-0.42883968353271484,0.2312488555908203,3.1299999999999772
-1.7838146686553955,-1.1015167236328125,-0.5724325180053711,3.139999999999977
-1.877021074295044,-1.6465940475463867,-1.2552781105041504,3.149999999999977
-2.0385518074035645,-2.1281867027282715,-1.922293782234192,3.1599999999999766
-2.176420211791992,-2.5553808212280273,-2.558610200881958,3.1699999999999764
-2.234483003616333,-2.939702033996582,-3.1444764137268066,3.179999999999976
-2.329214096069336,-3.2833681106567383,-3.7335197925567627,3.189999999999976
-2.4628758430480957,-3.5815067291259766,-4.194762706756592,3.1999999999999758
-2.5995514392852783,-3.800502300262451,-4.591159343719482,3.2099999999999755
-2.741981029510498,-4.0047831535339355,-5.028573989868164,3.2199999999999753
-2.919522285461426,-4.151000499725342,-5.454998016357422,3.229999999999975
-3.015632152557373,-4.286677360534668,-5.792253494262695,3.239999999999975
-3.1481924057006836,-4.411494731903076,-6.000387191772461,3.2499999999999747
-3.162024974822998,-4.358012676239014,-6.036574363708496,3.2599999999999745
-2.9369254112243652,-4.176814556121826,-5.953531265258789,3.2699999999999743
-2.732311725616455,-3.9044666290283203,-5.456562042236328,3.279999999999974
-2.5500128269195557,-3.577446937561035,-4.9613037109375,3.289999999999974
-2.3757855892181396,-3.263185501098633,-4.335297584533691,3.2999999999999736
-2.255129337310791,-2.993314743041992,-3.6802761554718018,3.3099999999999734
-2.1810197830200195,-2.8400282859802246,-3.0572915077209473,3.319999999999973
-2.1608593463897705,-2.7726807594299316,-2.429133176803589,3.329999999999973
-2.0846264362335205,-2.8516178131103516,-1.6796467304229736,3.3399999999999728
-1.9431430101394653,-3.06536865234375,-0.9844651222229004,3.3499999999999726
-1.8832179307937622,-3.3975563049316406,-0.37803053855895996,3.3599999999999723
-1.7478609085083008,-3.817359447479248,0.11940145492553711,3.369999999999972
-1.563934564590454,-4.231667995452881,0.43215036392211914,3.379999999999972
-1.3385733366012573,-4.6381516456604,0.5940899848937988,3.3899999999999717
-1.027840256690979,-5.077475070953369,0.6698112487792969,3.3999999999999715
-0.6809200644493103,-5.422760009765625,0.6471030712127686,3.4099999999999713
-0.3443797826766968,-5.747979164123535,0.5684106349945068,3.419999999999971
-0.10580754280090332,-6.0001654624938965,0.4474027156829834,3.429999999999971
-0.05068230628967285,-6.233973503112793,0.30975794792175293,3.4399999999999706
-0.04963338375091553,-6.422665596008301,0.20516514778137207,3.4499999999999704
-0.2613655924797058,-6.388857841491699,0.12371945381164551,3.45999999999997
-0.5953401923179626,-6.33554744720459,0.10554838180541992,3.46999999999997
-0.7135581970214844,-6.683005332946777,-0.02510237693786621,3.47999999999997
-0.8960419297218323,-6.6411590576171875,-0.10383892059326172,3.4899999999999696
-1.063783884048462,-6.298535346984863,-0.06436777114868164,3.4999999999999694
-1.2255072593688965,-6.049532890319824,-0.03227806091308594,3.509999999999969
-1.2964411973953247,-5.61619234085083,0.005667924880981445,3.519999999999969
-1.300478219985962,-4.864444732666016,0.1349039077758789,3.5299999999999687
-1.146962285041809,-3.7249069213867188,0.2613060474395752,3.5399999999999685
-0.7676618695259094,-2.3242101669311523,0.33115124702453613,3.5499999999999683
-0.29333722591400146,-0.6763525009155273,0.381145715713501,3.559999999999968
0.05373179912567139,1.3553800582885742,0.4355309009552002,3.569999999999968
0.45862069725990295,3.723536491394043,0.5344574451446533,3.5799999999999677
0.8822735548019409,6.395223617553711,0.7310359477996826,3.5899999999999674
1.1135578155517578,9.430668830871582,1.2189695835113525,3.5999999999999672
1.2735406160354614,12.662392616271973,2.0925214290618896,3.609999999999967
1.3447265625,15.66623592376709,3.679474353790283,3.619999999999967
1.8268355131149292,17.703784942626953,6.347321510314941,3.6299999999999666
2.563605308532715,17.907814025878906,8.979135513305664,3.6399999999999664
3.316781997680664,15.941598892211914,10.788442611694336,3.649999999999966
3.80287766456604,12.383637428283691,11.135122299194336,3.659999999999966
3.832012891769409,9.268773078918457,10.54077434539795,3.6699999999999657
3.4668517112731934,7.283541679382324,9.211467742919922,3.6799999999999655
3.070176124572754,6.2553300857543945,7.4648847579956055,3.6899999999999653
2.550557851791382,5.901567459106445,5.664147853851318,3.699999999999965
1.6587918996810913,6.1023359298706055,3.9816172122955322,3.709999999999965
0.40629521012306213,6.502814292907715,2.5036728382110596,3.7199999999999647
-0.8824721574783325,6.408356666564941,1.1089622974395752,3.7299999999999645
-2.0173988342285156,6.026030540466309,-0.03928685188293457,3.7399999999999642
-3.1431379318237305,5.278043746948242,-1.093441128730774,3.749999999999964
-4.337367057800293,4.2523651123046875,-2.222409248352051,3.759999999999964
-5.439307689666748,2.6071853637695312,-3.556525707244873,3.7699999999999636
-6.367654800415039,0.4512014389038086,-5.0435614585876465,3.7799999999999634
-7.070682048797607,-1.7430205345153809,-6.346238136291504,3.789999999999963
-7.535571575164795,-3.5893759727478027,-7.10936164855957,3.799999999999963
-7.694406509399414,-5.271470069885254,-7.212234020233154,3.8099999999999627
-7.510974884033203,-6.595284938812256,-6.896195411682129,3.8199999999999625
-7.3094072341918945,-7.403227806091309,-6.317005634307861,3.8299999999999623
-6.880059719085693,-7.779482841491699,-5.713785171508789,3.839999999999962
-6.294511795043945,-7.968199729919434,-5.190202236175537,3.849999999999962
-5.17540979385376,-7.906952857971191,-4.605355739593506,3.8599999999999617
-3.0186767578125,-7.306208610534668,-3.901129722595215,3.8699999999999615
-0.6511556506156921,-6.223572731018066,-3.1730122566223145,3.8799999999999613
1.2105659246444702,-4.982080459594727,-2.604620933532715,3.889999999999961
2.3803610801696777,-3.887765407562256,-2.4188930988311768,3.899999999999961
2.7880616188049316,-3.201017379760742,-2.6047191619873047,3.9099999999999606
2.7519237995147705,-2.758786201477051,-3.032132387161255,3.9199999999999604
2.519641876220703,-2.4772214889526367,-3.4599714279174805,3.92999999999996
2.1325974464416504,-2.107668876647949,-3.8545050621032715,3.93999999999996
1.6438161134719849,-1.6458120346069336,-4.035312652587891,3.9499999999999598
1.1135962009429932,-1.0683507919311523,-3.991459369659424,3.9599999999999596
0.578169584274292,-0.39275074005126953,-3.7503395080566406,3.9699999999999593
0.03066912293434143,0.39452552795410156,-3.3346288204193115,3.979999999999959
-0.576541543006897,1.2040691375732422,-2.778892993927002,3.989999999999959
-1.1258697509765625,2.0972042083740234,-2.118039846420288,3.9999999999999587
-1.6449118852615356,2.896113395690918,-1.3058719635009766,4.009999999999959
-2.100397825241089,3.497526168823242,-0.3399348258972168,4.019999999999959
-2.5474984645843506,3.8032264709472656,0.9230829477310181,4.0299999999999585
-2.8761065006256104,3.9736242294311523,2.2741012573242188,4.039999999999958
-2.6692891120910645,3.6771669387817383,2.8475606441497803,4.049999999999958
-1.8781249523162842,2.8272104263305664,2.4377284049987793,4.059999999999958
-1.0425890684127808,1.7891883850097656,1.4879599809646606,4.069999999999958
-0.26011621952056885,0.9205913543701172,0.45349323749542236,4.079999999999957
0.49607565999031067,0.3222379684448242,-0.6090729236602783,4.089999999999957
1.064025640487671,-0.11831188201904297,-1.4646027088165283,4.099999999999957
1.4494155645370483,-0.4705696105957031,-2.0700831413269043,4.109999999999957
1.5693118572235107,-0.7372016906738281,-2.6053805351257324,4.119999999999957
1.357793927192688,-0.875544548034668,-2.99953031539917,4.129999999999956
0.9235563278198242,-0.8765897750854492,-3.0982706546783447,4.139999999999956
0.32718002796173096,-0.7792139053344727,-3.0788016319274902,4.149999999999956
-0.26590102910995483,-0.7489795684814453,-2.771085023880005,4.159999999999956
-0.8384624719619751,-0.8889684677124023,-2.4555625915527344,4.1699999999999555
-1.1911625862121582,-1.0891456604003906,-2.157897710800171,4.179999999999955
-1.1915111541748047,-1.354135513305664,-2.164299488067627,4.189999999999955
-1.0874414443969727,-1.6190423965454102,-2.370448589324951,4.199999999999955
-1.110473394393921,-1.6922969818115234,-2.5749359130859375,4.209999999999955
-1.1553981304168701,-1.8608369827270508,-2.595942735671997,4.2199999999999545
-1.212876319885254,-2.0693774223327637,-2.445310115814209,4.229999999999954
-1.1349574327468872,-2.241245746612549,-2.1487877368927,4.239999999999954
-1.0371527671813965,-2.381241798400879,-1.6286847591400146,4.249999999999954
-0.9103121161460876,-2.510920524597168,-0.7856485247612,4.259999999999954
-0.7522802352905273,-2.4987921714782715,0.0923779308795929,4.269999999999953
-0.431609570980072,-2.1920299530029297,0.9407775402069092,4.279999999999953
-0.2955886125564575,-1.638869285583496,1.55877685546875,4.289999999999953
-0.04790329933166504,-1.0022687911987305,1.8873509168624878,4.299999999999953
0.17953944206237793,-0.5071315765380859,1.9275295734405518,4.3099999999999525
0.3435133397579193,-0.23221206665039062,1.695030689239502,4.319999999999952
0.5350553393363953,-0.03853607177734375,1.2149953842163086,4.329999999999952
0.6898723244667053,0.023838043212890625,0.584074854850769,4.339999999999952
0.7459734082221985,0.12489891052246094,9.851492941379547E-4,4.349999999999952
0.5618795156478882,0.3578500747680664,-0.5179360508918762,4.3599999999999515
0.5082676410675049,0.6340665817260742,-0.8942440748214722,4.369999999999951
0.5513991117477417,0.8315668106079102,-1.0086150169372559,4.379999999999951
0.554867148399353,0.8930988311767578,-0.9303976893424988,4.389999999999951
0.7411799430847168,0.7328214645385742,-0.7236149311065674,4.399999999999951
0.8757102489471436,0.4060678482055664,-0.3687252104282379,4.40999999999995
0.9654924869537354,0.06849861145019531,-0.0022028088569641113,4.41999999999995
1.1180616617202759,-0.28226184844970703,0.32245489954948425,4.42999999999995
1.2352298498153687,-0.6271276473999023,0.6564526557922363,4.43999999999995
1.2594406604766846,-0.8992824554443359,0.8784364461898804,4.4499999999999496
1.382352590560913,-1.1228094100952148,1.0948247909545898,4.459999999999949
1.4916949272155762,-1.2619876861572266,1.2903577089309692,4.469999999999949
1.6932917833328247,-1.2977676391601562,1.4696978330612183,4.479999999999949
1.79372239112854,-1.2302045822143555,1.6550949811935425,4.489999999999949
1.864850640296936,-1.0999631881713867,1.800140619277954,4.4999999999999485
1.7819839715957642,-0.8400745391845703,1.870671033859253,4.509999999999948
1.798256278038025,-0.45307445526123047,1.781437873840332,4.519999999999948
1.7458547353744507,-0.09221935272216797,1.5848660469055176,4.529999999999948
1.7030606269836426,0.19924449920654297,1.315704345703125,4.539999999999948
1.4417970180511475,0.5262050628662109,1.0772227048873901,4.549999999999947
1.2845040559768677,0.6275653839111328,1.0249786376953125,4.559999999999947
1.2833421230316162,0.5941181182861328,1.1569745540618896,4.569999999999947
1.3568869829177856,0.5119295120239258,1.5104176998138428,4.579999999999947
1.5770325660705566,0.32131099700927734,2.0352847576141357,4.589999999999947
1.8908090591430664,0.3692188262939453,2.546478271484375,4.599999999999946
2.28109073638916,0.5168237686157227,2.957578182220459,4.609999999999946
2.7496776580810547,0.9266071319580078,3.18145751953125,4.619999999999946
3.3819663524627686,1.1198644638061523,2.9792871475219727,4.629999999999946
3.736668348312378,1.5269851684570312,2.662444829940796,4.6399999999999455
4.016117095947266,1.8197507858276367,2.151780605316162,4.649999999999945
4.51315450668335,2.270519256591797,1.5501172542572021,4.659999999999945
4.7432026863098145,2.6397933959960938,1.183907151222229,4.669999999999945
4.746831893920898,2.616931915283203,0.9709765911102295,4.679999999999945
4.803895950317383,2.4343481063842773,0.5072957873344421,4.689999999999944
4.828800201416016,1.8484878540039062,0.1206974983215332,4.699999999999944
4.932633399963379,1.2139835357666016,-0.0385737419128418,4.709999999999944
5.154904365539551,0.7797946929931641,-0.10102653503417969,4.719999999999944
5.408072471618652,0.7824640274047852,-0.2003568410873413,4.729999999999944
5.511044979095459,1.1856040954589844,-0.24982929229736328,4.739999999999943
5.591921806335449,1.8814210891723633,0.010881185531616211,4.749999999999943
5.577908039093018,2.659531593322754,0.3523596525192261,4.759999999999943
5.429598808288574,3.3049535751342773,0.6073698997497559,4.769999999999943
5.135878562927246,3.8203229904174805,0.47351789474487305,4.7799999999999425
4.546380043029785,4.1244096755981445,-0.012784361839294434,4.789999999999942
3.9839601516723633,4.272407531738281,-0.5611762404441833,4.799999999999942
3.469609260559082,4.305257797241211,-0.7843433618545532,4.809999999999942
3.0172817707061768,4.185112953186035,-0.49473875761032104,4.819999999999942
2.535411834716797,3.996121406555176,0.2572128474712372,4.8299999999999415
1.3924685716629028,3.707186698913574,1.4169247150421143,4.839999999999941
-0.6975657939910889,3.590500831604004,2.6104817390441895,4.849999999999941
-2.67971134185791,3.404054641723633,3.526505947113037,4.859999999999941
-3.9446496963500977,3.3896284103393555,4.057359218597412,4.869999999999941
-4.823472023010254,3.428116798400879,4.200005531311035,4.87999999999994
-5.161256313323975,3.6445999145507812,3.911447286605835,4.88999999999994
-5.185998916625977,3.9033966064453125,3.363259792327881,4.89999999999994
-5.118264198303223,4.186103820800781,2.6400861740112305,4.90999999999994
-4.939398765563965,4.409601211547852,1.9403719902038574,4.9199999999999395
-4.721675872802734,4.437978744506836,1.4158552885055542,4.929999999999939
-4.45389461517334,4.362290382385254,0.9199516773223877,4.939999999999939
-4.096566200256348,4.096229553222656,0.3632439970970154,4.949999999999939
-3.811765432357788,3.880899429321289,-0.2242523431777954,4.959999999999939
-3.584998369216919,3.689150810241699,-0.8085073232650757,4.9699999999999385
-3.286987781524658,3.4748544692993164,-1.4672490358352661,4.979999999999938
-2.9370410442352295,3.297307014465332,-1.9875991344451904,4.989999999999938
-2.6762635707855225,3.17282772064209,-2.418123245239258,4.999999999999938
-2.40183687210083,3.0795888900756836,-2.8053646087646484,5.009999999999938
-2.128563165664673,2.979278564453125,-3.0436103343963623,5.019999999999937
-1.9076117277145386,2.754985809326172,-3.1931710243225098,5.029999999999937
-1.5970458984375,2.5339555740356445,-3.2209506034851074,5.039999999999937
-1.2200249433517456,2.362081527709961,-3.2109715938568115,5.049999999999937
-0.7353405356407166,1.9960126876831055,-3.1252617835998535,5.0599999999999365
-0.134447380900383,1.4747724533081055,-2.9345483779907227,5.069999999999936
0.4416210651397705,1.035536766052246,-2.574723720550537,5.079999999999936
0.9841359853744507,0.5993270874023438,-2.057274341583252,5.089999999999936
1.3960018157958984,0.45794010162353516,-1.477765679359436,5.099999999999936
1.6593726873397827,0.4699716567993164,-0.9029284715652466,5.1099999999999355
1.6538803577423096,0.41489410400390625,-0.3575015068054199,5.119999999999935
1.5104010105133057,0.5671558380126953,0.2012474536895752,5.129999999999935
1.1824246644973755,0.6747636795043945,0.6890869140625,5.139999999999935
0.7839194536209106,0.8710556030273438,0.9447686672210693,5.149999999999935
0.3660659193992615,0.9520225524902344,1.0128355026245117,5.159999999999934
0.003186464309692383,0.9386425018310547,0.904409646987915,5.169999999999934
-0.30069035291671753,0.8376989364624023,0.625429630279541,5.179999999999934
-0.6232126951217651,0.648991584777832,0.16460132598876953,5.189999999999934
-0.8313158750534058,0.35814952850341797,-0.36789989471435547,5.199999999999934
-1.148992657661438,0.020249366760253906,-0.8954758644104004,5.209999999999933
-1.3756910562515259,-0.26897525787353516,-1.4185643196105957,5.219999999999933
-1.5258162021636963,-0.5310888290405273,-1.83720862865448,5.229999999999933
-1.7142140865325928,-0.8616447448730469,-2.2000184059143066,5.239999999999933
-1.8431328535079956,-1.2842254638671875,-2.529386520385742,5.2499999999999325
-1.9793375730514526,-1.4923787117004395,-2.8861119747161865,5.259999999999932
-2.1828818321228027,-1.7945008277893066,-3.2997376918792725,5.269999999999932
-2.5023717880249023,-2.1613988876342773,-3.727940082550049,5.279999999999932
-2.7708096504211426,-2.3964948654174805,-4.200349807739258,5.289999999999932
-3.068006992340088,-2.7004213333129883,-4.662625789642334,5.299999999999931
-3.265265464782715,-3.025022506713867,-5.026756286621094,5.309999999999931
-3.477689743041992,-3.3582611083984375,-5.254657745361328,5.319999999999931
-3.7535181045532227,-3.6784520149230957,-5.425601959228516,5.329999999999931
-4.0503668785095215,-3.842010974884033,-5.549267292022705,5.339999999999931
-4.3183488845825195,-3.9232192039489746,-5.632800102233887,5.34999999999993
-4.564743995666504,-3.9486050605773926,-5.453512668609619,5.35999999999993
-4.370246887207031,-3.8299202919006348,-5.506567478179932,5.36999999999993
-3.996401309967041,-3.7160720825195312,-5.32733678817749,5.37999999999993
-3.640385150909424,-3.5526914596557617,-4.891299724578857,5.3899999999999295
-3.31805157661438,-3.426647663116455,-4.338591575622559,5.399999999999929
-3.090956687927246,-3.321897029876709,-3.694338083267212,5.409999999999929
-2.915498733520508,-3.3418264389038086,-3.0748090744018555,5.419999999999929
-2.7460498809814453,-3.453300952911377,-2.522127628326416,5.429999999999929
-2.572877883911133,-3.675743579864502,-1.994863748550415,5.4399999999999284
-2.3241899013519287,-4.035886764526367,-1.3149380683898926,5.449999999999928
-2.144348621368408,-4.457305908203125,-0.775867223739624,5.459999999999928
-1.9410053491592407,-4.916176795959473,-0.305051326751709,5.469999999999928
-1.7122271060943604,-5.326513290405273,0.1029062271118164,5.479999999999928
-1.4696061611175537,-5.666939735412598,0.41243457794189453,5.489999999999927
-1.1905840635299683,-5.920823097229004,0.6714253425598145,5.499999999999927
-1.0700232982635498,-6.059501647949219,0.8510169982910156,5.509999999999927
-1.0684398412704468,-6.164100170135498,1.003312349319458,5.519999999999927
-1.187554955482483,-6.181689739227295,1.1589665412902832,5.5299999999999265
-1.386553406715393,-5.844133377075195,1.3558218479156494,5.539999999999926
-1.666149377822876,-6.306187629699707,1.53759765625,5.549999999999926
-1.94119393825531,-6.6481428146362305,1.7153003215789795,5.559999999999926
-2.0950655937194824,-6.487061023712158,1.9173533916473389,5.569999999999926
-2.4150009155273438,-6.545078277587891,2.083308219909668,5.5799999999999255
-2.6477746963500977,-6.331011772155762,2.0401289463043213,5.589999999999925
-2.8425369262695312,-5.875672817230225,1.940633773803711,5.599999999999925
-2.919093132019043,-5.205183982849121,1.7822296619415283,5.609999999999925
-2.911658763885498,-4.19039249420166,1.5674066543579102,5.619999999999925
-2.5142922401428223,-2.893280029296875,1.1540181636810303,5.629999999999924
-2.0913004875183105,-1.1817703247070312,0.595038652420044,5.639999999999924
-1.4131196737289429,0.9617156982421875,0.030141115188598633,5.649999999999924
-0.6785971522331238,3.454753875732422,-0.4610111713409424,5.659999999999924
0.125308558344841,6.3227434158325195,-0.6001279354095459,5.6699999999999235
0.7081208229064941,9.875197410583496,-0.3509066104888916,5.679999999999923
1.1715645790100098,13.700161933898926,0.39944005012512207,5.689999999999923
1.6028122901916504,17.195541381835938,2.0415689945220947,5.699999999999923
2.2586722373962402,19.11520767211914,4.578707695007324,5.709999999999923
3.2353687286376953,18.94599151611328,7.537939071655273,5.7199999999999225
4.122925281524658,15.841862678527832,9.579391479492188,5.729999999999922
4.646223068237305,11.041862487792969,10.181949615478516,5.739999999999922
4.830565452575684,7.108757019042969,9.819395065307617,5.749999999999922
4.643253326416016,4.670574188232422,8.546749114990234,5.759999999999922
3.747044086456299,3.53256893157959,6.5723676681518555,5.769999999999921
2.741955041885376,3.2755308151245117,4.551187038421631,5.779999999999921
1.5675737857818604,3.642862319946289,2.7276761531829834,5.789999999999921
0.32861506938934326,4.147931098937988,1.2101576328277588,5.799999999999921
-1.0013195276260376,4.5288496017456055,-0.09905767440795898,5.809999999999921
-2.182870388031006,4.428466796875,-1.4914453029632568,5.81999999999992
-3.448998212814331,3.820699691772461,-3.1190497875213623,5.82999999999992
-4.4542436599731445,2.438685417175293,-4.8634443283081055,5.83999999999992
-5.176456928253174,1.180720329284668,-6.277688980102539,5.84999999999992
-5.506866455078125,-0.07694339752197266,-7.190916061401367,5.8599999999999195
-5.591100692749023,-0.9579401016235352,-7.411728858947754,5.869999999999919
-5.670037746429443,-1.7554612159729004,-6.8698883056640625,5.879999999999919
-5.89616584777832,-2.4039134979248047,-5.468920707702637,5.889999999999919
-5.764483451843262,-2.851158618927002,-3.282475471496582,5.899999999999919
-4.576869964599609,-2.9170498847961426,-0.9922897219657898,5.909999999999918
-2.845381736755371,-2.93057918548584,0.6415423154830933,5.919999999999918
-0.984899640083313,-2.8991622924804688,1.0755105018615723,5.929999999999918
1.2551473379135132,-3.0545358657836914,0.2178788185119629,5.939999999999918
2.85756778717041,-3.410531520843506,-1.4401987791061401,5.949999999999918
3.5486907958984375,-3.7849254608154297,-3.2141408920288086,5.959999999999917
3.519136667251587,-4.189425468444824,-4.809446811676025,5.969999999999917
3.074448347091675,-4.396672248840332,-6.024441719055176,5.979999999999917
2.617241859436035,-4.700747966766357,-6.84470272064209,5.989999999999917
2.211857557296753,-4.828673362731934,-7.301151752471924,5.9999999999999165
1.7569986581802368,-4.732612133026123,-7.412336349487305,6.009999999999916
1.32558274269104,-4.419835567474365,-7.098237991333008,6.019999999999916
0.9282099604606628,-3.8642263412475586,-6.364284038543701,6.029999999999916
0.3749563694000244,-2.970484733581543,-5.286745548248291,6.039999999999916
-0.3917907774448395,-2.176724433898926,-4.027250289916992,6.0499999999999154
-1.2793864011764526,-1.2224626541137695,-2.559568405151367,6.059999999999915
-2.1701810359954834,-0.1609334945678711,-1.1722724437713623,6.069999999999915
-2.9615886211395264,1.0046348571777344,0.17764055728912354,6.079999999999915
-3.70697021484375,2.2253952026367188,1.2777551412582397,6.089999999999915
-4.2582831382751465,3.3591575622558594,2.220078945159912,6.099999999999914
-4.574975490570068,4.180305480957031,3.026646375656128,6.109999999999914
-4.1995673179626465,4.679415702819824,2.907318353652954,6.119999999999914
-2.9655673503875732,4.123444557189941,1.7185087203979492,6.129999999999914
-1.5735048055648804,3.0001516342163086,0.146484375,6.1399999999999135
-0.4500579535961151,1.6005048751831055,-1.2902493476867676,6.149999999999913
0.06473827362060547,0.4970359802246094,-2.4555516242980957,6.159999999999913
0.5592361092567444,-0.2527780532836914,-3.293517589569092,6.169999999999913
1.011547327041626,-0.7136869430541992,-3.90255069732666,6.179999999999913
1.261035680770874,-1.0127019882202148,-4.202868461608887,6.1899999999999125
1.3379641771316528,-1.1070747375488281,-4.201914310455322,6.199999999999912
1.3364856243133545,-1.0737648010253906,-3.865443468093872,6.209999999999912
1.2523541450500488,-1.0566158294677734,-3.3643064498901367,6.219999999999912
1.0765652656555176,-1.1681346893310547,-2.7213668823242188,6.229999999999912
0.7190406918525696,-1.3102245330810547,-2.0601043701171875,6.239999999999911
0.13020451366901398,-1.4064931869506836,-1.1633563041687012,6.249999999999911
-0.48131290078163147,-1.3304061889648438,-0.45509225130081177,6.259999999999911
-1.01236891746521,-1.1133146286010742,-0.022452831268310547,6.269999999999911
-1.302520751953125,-0.8892898559570312,0.14975345134735107,6.2799999999999105
-1.3518588542938232,-0.6558675765991211,0.06365793943405151,6.28999999999991
-1.328309178352356,-0.5133943557739258,-0.19544854760169983,6.29999999999991
-1.2418692111968994,-0.4521217346191406,-0.4131379723548889,6.30999999999991
-1.0787670612335205,-0.42169952392578125,-0.48972001671791077,6.31999999999991
-0.8993208408355713,-0.4531669616699219,-0.5022071003913879,6.3299999999999095
-0.644066572189331,-0.5273189544677734,-0.39341384172439575,6.339999999999909
-0.406404584646225,-0.6632318496704102,-0.32362687587738037,6.349999999999909
-0.2583252191543579,-0.7484626770019531,-0.09409835934638977,6.359999999999909
-0.25745218992233276,-0.8930854797363281,0.18534472584724426,6.369999999999909
-0.13871842622756958,-0.8794622421264648,0.15149013698101044,6.379999999999908
0.05467188358306885,-0.8440847396850586,0.07062341272830963,6.389999999999908
0.30381980538368225,-0.8443393707275391,-0.10453107208013535,6.399999999999908
0.448630690574646,-0.935145378112793,-0.2324117124080658,6.409999999999908
0.4388146996498108,-0.848567008972168,-0.23655062913894653,6.419999999999908
0.3698914051055908,-0.5776405334472656,-0.25382229685783386,6.429999999999907
0.4573707580566406,-0.36167144775390625,-0.19856475293636322,6.439999999999907
0.5987140536308289,-0.33443260192871094,-0.044323377311229706,6.449999999999907
0.7704787254333496,-0.3856191635131836,0.17356498539447784,6.459999999999907
0.848854124546051,-0.737401008605957,0.41267314553260803,6.4699999999999065
0.9131466150283813,-1.1262836456298828,0.5417011976242065,6.479999999999906
0.8988175988197327,-1.3226070404052734,0.4695820212364197,6.489999999999906
0.8224387168884277,-1.584834098815918,0.3893848955631256,6.499999999999906
0.6789911985397339,-1.5972623825073242,0.2977895736694336,6.509999999999906
0.5926423072814941,-1.6662769317626953,0.363965779542923,6.519999999999905
0.40962469577789307,-1.7010164260864258,0.3888622224330902,6.529999999999905
0.3522253632545471,-1.6776275634765625,0.48716557025909424,6.539999999999905
0.40828752517700195,-1.6942501068115234,0.4694153666496277,6.549999999999905
0.28557902574539185,-1.5309228897094727,0.47647804021835327,6.559999999999905
0.27579545974731445,-1.2931270599365234,0.5561263561248779,6.569999999999904
0.45769399404525757,-0.8661975860595703,0.729823648929596,6.579999999999904
0.6755523085594177,-0.27190399169921875,1.0741147994995117,6.589999999999904
0.9530014395713806,0.4249114990234375,1.4642446041107178,6.599999999999904
1.1219679117202759,1.0326366424560547,1.8468098640441895,6.6099999999999035
1.2440571784973145,1.4100151062011719,2.158299684524536,6.619999999999903
1.4072598218917847,1.631134033203125,2.3709237575531006,6.629999999999903
1.6782954931259155,1.6337614059448242,2.4619596004486084,6.639999999999903
1.8700835704803467,1.5040178298950195,2.462108612060547,6.649999999999903
2.068021774291992,1.3757743835449219,2.3048083782196045,6.659999999999902
2.252349853515625,1.2537107467651367,2.0508828163146973,6.669999999999902
2.480025053024292,1.2549457550048828,1.8186622858047485,6.679999999999902
2.6646804809570312,1.2645740509033203,1.8387620449066162,6.689999999999902
3.0696969032287598,1.1989545822143555,1.8697525262832642,6.699999999999902
3.383923292160034,1.2470808029174805,1.9861130714416504,6.709999999999901
3.77229642868042,1.4183712005615234,2.1380133628845215,6.719999999999901
4.220075607299805,1.6959095001220703,2.2733240127563477,6.729999999999901
4.494750022888184,2.0388240814208984,2.2894320487976074,6.739999999999901
4.693977355957031,2.284304618835449,2.045351982116699,6.7499999999999005
4.805608749389648,2.2769813537597656,1.7420190572738647,6.7599999999999
4.817733287811279,2.105623245239258,1.4892183542251587,6.7699999999999
4.986569881439209,1.90911865234375,1.1329153776168823,6.7799999999999
4.958301544189453,1.7640504837036133,0.8063081502914429,6.7899999999999
4.907988548278809,1.7326412200927734,0.6766246557235718,6.7999999999998995
4.950976848602295,1.779139518737793,0.7777888774871826,6.809999999999899
4.953824996948242,1.9276189804077148,0.86152184009552,6.819999999999899
4.871407508850098,2.221133232116699,0.9231608510017395,6.829999999999899
4.845287322998047,2.6022157669067383,0.8232452273368835,6.839999999999899
4.775148868560791,2.9488019943237305,0.5240235328674316,6.849999999999898
4.704389572143555,3.1653127670288086,-9.031295776367188E-4,6.859999999999898
4.468051910400391,3.2806777954101562,-0.521780788898468,6.869999999999898
4.233536720275879,3.228281021118164,-0.7000131607055664,6.879999999999898
4.139645099639893,3.092442512512207,-0.4630131125450134,6.8899999999998975
4.196354389190674,2.8092174530029297,0.24909371137619019,6.899999999999897
4.3063154220581055,2.560969352722168,1.1807054281234741,6.909999999999897
4.307984828948975,2.3575477600097656,2.247582197189331,6.919999999999897
3.8475279808044434,2.4548282623291016,3.1315338611602783,6.929999999999897
1.2927184104919434,3.014698028564453,3.6168642044067383,6.9399999999998965
-1.2151374816894531,3.577535629272461,3.7018964290618896,6.949999999999896
-2.988337993621826,4.177458763122559,3.6492087841033936,6.959999999999896
-4.241660118103027,4.803452491760254,3.5270071029663086,6.969999999999896
-4.977618217468262,5.23893928527832,3.5156326293945312,6.979999999999896
-5.319657802581787,5.609292030334473,3.672992706298828,6.989999999999895
-5.5156145095825195,5.8645782470703125,3.899078607559204,6.999999999999895
-5.7729973793029785,5.95418643951416,4.047532081604004,7.009999999999895
-6.044444561004639,5.7982282638549805,3.826300621032715,7.019999999999895
-5.917855739593506,5.328742980957031,2.8192262649536133,7.0299999999998946
-5.896210193634033,4.81260871887207,1.2834110260009766,7.039999999999894
-5.760828495025635,4.29163932800293,-0.551325798034668,7.049999999999894
-5.591794967651367,3.7218809127807617,-2.411595106124878,7.059999999999894
-5.423812389373779,3.107436180114746,-3.9409701824188232,7.069999999999894
-5.099819183349609,2.7156944274902344,-4.865357398986816,7.0799999999998935
-4.9190521240234375,2.316852569580078,-5.285517692565918,7.089999999999893
-4.7668890953063965,1.8278684616088867,-5.440370559692383,7.099999999999893
-4.7773966789245605,1.405531883239746,-5.572947025299072,7.109999999999893
-4.294034957885742,1.1637725830078125,-5.60430908203125,7.119999999999893
-3.4052700996398926,1.0441741943359375,-5.431031227111816,7.129999999999892
-2.472795009613037,1.0978946685791016,-4.923174858093262,7.139999999999892
-1.3021414279937744,1.0575227737426758,-4.0989556312561035,7.149999999999892
-0.2966553568840027,1.1434612274169922,-3.113590717315674,7.159999999999892
0.5334295034408569,1.2743263244628906,-2.0754752159118652,7.169999999999892
1.3660056591033936,1.3708868026733398,-1.0176112651824951,7.179999999999891
2.0967342853546143,1.4515399932861328,0.04255938529968262,7.189999999999891
2.9638288021087646,1.2831153869628906,1.0999488830566406,7.199999999999891
3.764765739440918,0.9070062637329102,2.135847806930542,7.209999999999891
4.3853254318237305,0.36922740936279297,2.8150432109832764,7.2199999999998905
4.374475955963135,-0.19533824920654297,2.863145589828491,7.22999999999989
3.661672592163086,-0.7565336227416992,2.293898344039917,7.23999999999989
2.476109266281128,-1.1351299285888672,1.3415820598602295,7.24999999999989
1.5828766822814941,-1.4411792755126953,0.3018317222595215,7.25999999999989
1.0127689838409424,-1.9373927116394043,-0.69797682762146,7.269999999999889
0.5120862722396851,-2.426934242248535,-1.5690079927444458,7.279999999999889
-0.050715088844299316,-2.4597702026367188,-2.2820639610290527,7.289999999999889
-0.542022705078125,-2.791471481323242,-2.7792410850524902,7.299999999999889
-1.003021001815796,-3.062265396118164,-3.18227481842041,7.309999999999889
-1.218369483947754,-3.147280693054199,-3.490602493286133,7.319999999999888
-1.408598780632019,-3.139516830444336,-3.703169822692871,7.329999999999888
-1.5307729244232178,-3.131967544555664,-3.8903849124908447,7.339999999999888
-1.532243251800537,-3.0503273010253906,-4.040795803070068,7.349999999999888
-1.523547887802124,-2.9067912101745605,-4.089336395263672,7.3599999999998875
-1.6944072246551514,-2.770906448364258,-4.143101692199707,7.369999999999887
-1.792317509651184,-2.6858162879943848,-4.191819667816162,7.379999999999887
-2.067448854446411,-2.6466355323791504,-4.30925989151001,7.389999999999887
-2.339226245880127,-2.6175103187561035,-4.298680305480957,7.399999999999887
-2.7041544914245605,-2.6582818031311035,-4.3056793212890625,7.4099999999998865
-3.0314314365386963,-2.6731162071228027,-4.232252597808838,7.419999999999886
-3.343754768371582,-2.7526931762695312,-4.112255573272705,7.429999999999886
-3.6107640266418457,-2.793997287750244,-3.9435231685638428,7.439999999999886
-3.804381847381592,-2.8281354904174805,-3.7356574535369873,7.449999999999886
-3.991574287414551,-2.9412646293640137,-3.4957823753356934,7.459999999999885
-4.17218542098999,-3.021090507507324,-3.2259445190429688,7.469999999999885
-4.3791608810424805,-3.232807159423828,-2.985696792602539,7.479999999999885
-4.513216018676758,-3.5000123977661133,-2.7052512168884277,7.489999999999885
-4.685035705566406,-3.8804030418395996,-2.4319424629211426,7.4999999999998845
-4.840808868408203,-4.371745586395264,-2.181980609893799,7.509999999999884
-4.737435340881348,-4.782904148101807,-1.986009120941162,7.519999999999884
-4.390168190002441,-5.111896991729736,-1.711970329284668,7.529999999999884
-4.056548118591309,-5.354343414306641,-1.4190566539764404,7.539999999999884
-3.8463656902313232,-5.5368194580078125,-1.1473362445831299,7.5499999999998835
-3.6690404415130615,-5.628325462341309,-0.9059488773345947,7.559999999999883
-3.5854499340057373,-5.595345497131348,-0.682746171951294,7.569999999999883
-3.4247794151306152,-5.313385486602783,-0.41095495223999023,7.579999999999883
-3.4676830768585205,-5.2581682205200195,-0.21321702003479004,7.589999999999883
-3.506563186645508,-5.032105445861816,0.08689260482788086,7.599999999999882
-3.5153815746307373,-4.66849946975708,0.40003013610839844,7.609999999999882
-3.434263229370117,-4.109626770019531,0.708240270614624,7.619999999999882
-3.3274712562561035,-3.386322021484375,0.9767837524414062,7.629999999999882
-3.11590576171875,-2.5604166984558105,1.2090098857879639,7.6399999999998816
-2.640465021133423,-1.5143232345581055,1.3436598777770996,7.649999999999881
-2.0279345512390137,-0.20717144012451172,1.4487149715423584,7.659999999999881
-1.1973185539245605,1.1913585662841797,1.5992555618286133,7.669999999999881
-0.39233991503715515,2.547548294067383,1.7723214626312256,7.679999999999881
0.3426179885864258,3.8091773986816406,1.9136567115783691,7.6899999999998805
1.1980684995651245,5.0389909744262695,2.1048738956451416,7.69999999999988
1.9438378810882568,6.1584320068359375,2.3539037704467773,7.70999999999988
2.8979296684265137,6.9931230545043945,2.8227763175964355,7.71999999999988
3.7416679859161377,7.566936492919922,3.576937198638916,7.72999999999988
4.647091865539551,7.630784034729004,4.723793983459473,7.739999999999879
5.488468647003174,6.904533386230469,5.926888942718506,7.749999999999879
6.462497234344482,5.440716743469238,7.1348161697387695,7.759999999999879
7.019504070281982,3.5622053146362305,8.070627212524414,7.769999999999879
7.370455741882324,1.9001483917236328,8.334880828857422,7.779999999999879
7.584750652313232,0.7765302658081055,7.88690710067749,7.789999999999878
7.325863361358643,0.28841209411621094,6.83358907699585,7.799999999999878
6.19869327545166,0.33199119567871094,5.5994744300842285,7.809999999999878
5.517858028411865,0.5071191787719727,4.400435447692871,7.819999999999878
4.79978084564209,0.7226667404174805,3.2652742862701416,7.8299999999998775
3.9252986907958984,1.0335731506347656,2.232034683227539,7.839999999999877
2.6387202739715576,1.461400032043457,1.3454740047454834,7.849999999999877
1.2382245063781738,2.068596839904785,0.6735873222351074,7.859999999999877
-0.2664618492126465,2.934417724609375,0.21948552131652832,7.869999999999877
-1.9101667404174805,3.9992456436157227,0.08956098556518555,7.879999999999876
-3.180224895477295,4.746574401855469,0.14469099044799805,7.889999999999876
-4.351881504058838,6.233576774597168,0.39530277252197266,7.899999999999876
-5.36607551574707,7.466983795166016,0.5837585926055908,7.909999999999876
-5.8737335205078125,8.145938873291016,0.6074912548065186,7.919999999999876
-6.371905326843262,8.584826469421387,0.5346717834472656,7.929999999999875
-6.999305725097656,8.851666450500488,0.11615753173828125,7.939999999999875
-7.809798240661621,8.452563285827637,-0.8000353574752808,7.949999999999875
-8.636320114135742,7.171457290649414,-2.0719492435455322,7.959999999999875
-9.111449241638184,5.095815658569336,-2.954233169555664,7.9699999999998745
-9.05066967010498,2.467365264892578,-3.180614948272705,7.979999999999874
-8.382827758789062,-1.25885009765625E-4,-2.7704291343688965,7.989999999999874
-6.673828601837158,-2.0744199752807617,-2.2860283851623535,7.999999999999874
