AccX,AccY,AccZ,SampleRate
-3.3155007362365723,-1.3012304306030273,-2.2512528896331787,0.01
-3.088563919067383,-1.3411493301391602,-1.6219370365142822,0.02
-2.883547067642212,-1.4583840370178223,-1.097661018371582,0.03
-2.5834758281707764,-1.705930233001709,-0.5934433937072754,0.04
-2.2986907958984375,-2.0671563148498535,-0.2400209903717041,0.05
-2.0799074172973633,-2.546743392944336,0.01826333999633789,0.060000000000000005
-2.025546073913574,-3.034411907196045,0.12186789512634277,0.07
-1.9824591875076294,-3.522831439971924,0.19049882888793945,0.08
-1.9169418811798096,-3.751274585723877,0.20264744758605957,0.09
-1.9792474508285522,-4.183638095855713,0.18651747703552246,0.09999999999999999
-2.060642719268799,-4.7547221183776855,0.0908961296081543,0.10999999999999999
-2.2583703994750977,-5.136588096618652,0.056487321853637695,0.11999999999999998
-2.5215134620666504,-5.322281360626221,0.15502047538757324,0.12999999999999998
-2.760972261428833,-5.343132972717285,0.3339207172393799,0.13999999999999999
-3.1526973247528076,-5.75142765045166,0.4082820415496826,0.15
-3.4971683025360107,-6.015610218048096,0.4829113483428955,0.16
-3.839231491088867,-6.2000932693481445,0.5165598392486572,0.17
-4.149818420410156,-6.2902069091796875,0.5970585346221924,0.18000000000000002
-4.409482955932617,-6.211384296417236,0.5989067554473877,0.19000000000000003
-4.635194778442383,-5.843433380126953,0.5060989856719971,0.20000000000000004
-4.858273029327393,-5.1475629806518555,0.2711942195892334,0.21000000000000005
-4.832503318786621,-4.075596332550049,0.02379608154296875,0.22000000000000006
-4.2552313804626465,-2.5602760314941406,-0.28118181228637695,0.23000000000000007
-3.1956090927124023,-0.7567787170410156,-0.5931135416030884,0.24000000000000007
-1.9552912712097168,1.1393556594848633,-0.8882104158401489,0.25000000000000006
-0.7909553050994873,3.0715627670288086,-1.176483392715454,0.26000000000000006
0.3291654586791992,5.088567733764648,-1.212154507637024,0.2700000000000001
1.239291787147522,7.117063522338867,-0.9838384389877319,0.2800000000000001
1.976548433303833,9.293978691101074,-0.3356778621673584,0.2900000000000001
2.6972622871398926,11.289318084716797,0.911792516708374,0.3000000000000001
3.5032436847686768,12.791877746582031,2.7738633155822754,0.3100000000000001
4.6358442306518555,13.515983581542969,5.5569610595703125,0.3200000000000001
5.963898658752441,12.809647560119629,8.1221342086792,0.3300000000000001
7.192080497741699,10.403998374938965,9.925874710083008,0.34000000000000014
8.051227569580078,7.4202423095703125,11.026668548583984,0.35000000000000014
8.196662902832031,4.900923728942871,10.33835220336914,0.36000000000000015
7.8821306228637695,3.3073081970214844,8.281181335449219,0.37000000000000016
7.605640411376953,2.717510223388672,5.882451057434082,0.38000000000000017
6.488254070281982,2.843595504760742,3.5728626251220703,0.3900000000000002
5.4300737380981445,3.407045364379883,1.7063798904418945,0.4000000000000002
4.198945045471191,4.146020889282227,0.2081162929534912,0.4100000000000002
2.6352744102478027,4.7845964431762695,-0.9701207876205444,0.4200000000000002
1.197658658027649,5.030577659606934,-1.9944777488708496,0.4300000000000002
0.018970251083374023,4.956031799316406,-2.7405354976654053,0.4400000000000002
-1.0244040489196777,4.631180763244629,-3.265284538269043,0.45000000000000023
-2.0392792224884033,4.270456314086914,-3.643517017364502,0.46000000000000024
-3.0685839653015137,3.7327260971069336,-4.004613876342773,0.47000000000000025
-4.156816482543945,2.8728532791137695,-4.1841020584106445,0.48000000000000026
-5.444610595703125,1.7273740768432617,-3.9889464378356934,0.49000000000000027
-6.560033798217773,0.3184471130371094,-3.03430438041687,0.5000000000000002
-7.185969352722168,-1.0836400985717773,-1.349855899810791,0.5100000000000002
-7.383311748504639,-2.25213623046875,0.12154626846313477,0.5200000000000002
-7.1380534172058105,-3.413496971130371,1.0037013292312622,0.5300000000000002
-6.520882606506348,-4.429180145263672,1.128909945487976,0.5400000000000003
-5.521708011627197,-5.085844993591309,0.4516441822052002,0.5500000000000003
-4.256626129150391,-5.313530921936035,-1.0239160060882568,0.5600000000000003
-2.9263572692871094,-5.353423118591309,-2.9022433757781982,0.5700000000000003
-1.3437538146972656,-5.272392749786377,-4.414234638214111,0.5800000000000003
-0.09015792608261108,-5.096905708312988,-5.309113502502441,0.5900000000000003
0.5494714975357056,-4.858064651489258,-5.749698638916016,0.6000000000000003
0.7829964756965637,-4.577249050140381,-5.824191570281982,0.6100000000000003
0.7182015776634216,-4.106045722961426,-5.6481781005859375,0.6200000000000003
0.5894649624824524,-3.4876976013183594,-5.342370986938477,0.6300000000000003
0.3727990984916687,-2.9497900009155273,-4.787726879119873,0.6400000000000003
0.1036255955696106,-2.387361526489258,-4.040520668029785,0.6500000000000004
-0.3241090476512909,-1.8223481178283691,-3.12033748626709,0.6600000000000004
-0.902246356010437,-1.111678123474121,-2.0058865547180176,0.6700000000000004
-1.5510976314544678,-0.2632942199707031,-0.7299720048904419,0.6800000000000004
-2.4925405979156494,0.6665191650390625,1.4404207468032837,0.6900000000000004
-3.359724521636963,1.860478401184082,3.7913126945495605,0.7000000000000004
-3.793638229370117,3.0068464279174805,4.681861400604248,0.7100000000000004
-3.4475440979003906,3.7498950958251953,3.745898723602295,0.7200000000000004
-2.651916980743408,3.8353710174560547,2.012660026550293,0.7300000000000004
-1.9187172651290894,3.322678565979004,0.17160427570343018,0.7400000000000004
-1.2277384996414185,2.54111385345459,-1.4040956497192383,0.7500000000000004
-0.6124540567398071,1.7665786743164062,-2.5794179439544678,0.7600000000000005
-0.01229606568813324,1.2025585174560547,-3.3755908012390137,0.7700000000000005
0.5234823822975159,0.8057575225830078,-3.802436351776123,0.7800000000000005
1.0487562417984009,0.4491090774536133,-3.904238700866699,0.7900000000000005
1.4237287044525146,0.18736839294433594,-3.736100196838379,0.8000000000000005
1.7843602895736694,-0.07065963745117188,-3.309340238571167,0.8100000000000005
2.156606674194336,-0.31325817108154297,-2.7542314529418945,0.8200000000000005
2.564821720123291,-0.6053180694580078,-1.8435413837432861,0.8300000000000005
2.7893218994140625,-0.9375495910644531,-0.8734980225563049,0.8400000000000005
2.6913905143737793,-1.2002573013305664,0.13311678171157837,0.8500000000000005
2.39492130279541,-1.3818693161010742,1.0027339458465576,0.8600000000000005
1.5844001770019531,-1.4467010498046875,1.2086727619171143,0.8700000000000006
0.5599361658096313,-1.325408935546875,0.7919018864631653,0.8800000000000006
-0.45852646231651306,-1.0442485809326172,-0.07904824614524841,0.8900000000000006
-1.2053885459899902,-0.7490243911743164,-0.9420772790908813,0.9000000000000006
-1.4930176734924316,-0.5543746948242188,-1.5647549629211426,0.9100000000000006
-1.4797874689102173,-0.5485849380493164,-1.9392247200012207,0.9200000000000006
-1.2803399562835693,-0.6046857833862305,-2.0307564735412598,0.9300000000000006
-1.004089593887329,-0.8708925247192383,-1.8231791257858276,0.9400000000000006
-0.7027963399887085,-1.1318092346191406,-1.33792245388031,0.9500000000000006
-0.4618772268295288,-1.418583869934082,-0.7706366777420044,0.9600000000000006
-0.3957822322845459,-1.6355714797973633,-0.24490951001644135,0.9700000000000006
-0.49986517429351807,-1.670475959777832,0.11078426241874695,0.9800000000000006
-0.6380473375320435,-1.6406707763671875,0.2895880937576294,0.9900000000000007
-0.8034234642982483,-1.438614845275879,0.28923115134239197,1.0000000000000007
-0.8789594173431396,-1.1744985580444336,0.18850857019424438,1.0100000000000007
-0.8264099955558777,-0.8292608261108398,0.0037422366440296173,1.0200000000000007
-0.7916653156280518,-0.5249433517456055,-0.1814626306295395,1.0300000000000007
-0.6454606652259827,-0.34996986389160156,-0.31693920493125916,1.0400000000000007
-0.44777506589889526,-0.14874744415283203,-0.323645681142807,1.0500000000000007
-0.1817684918642044,0.05000114440917969,-0.2950584292411804,1.0600000000000007
0.09297452121973038,0.32518672943115234,-0.2865391969680786,1.0700000000000007
0.2808331847190857,0.45673656463623047,-0.26466840505599976,1.0800000000000007
0.3314732611179352,0.4496288299560547,-0.1382046788930893,1.0900000000000007
0.4459632337093353,0.3040599822998047,-0.011825934052467346,1.1000000000000008
0.45423683524131775,0.06088066101074219,0.11264701187610626,1.1100000000000008
0.4517722725868225,-0.15781688690185547,0.1517408788204193,1.1200000000000008
0.41908812522888184,-0.34966468811035156,0.2009631097316742,1.1300000000000008
0.5908362865447998,-0.6127214431762695,0.24083355069160461,1.1400000000000008
0.6725898385047913,-0.7866935729980469,0.27822208404541016,1.1500000000000008
0.7385352849960327,-0.8692893981933594,0.39202311635017395,1.1600000000000008
0.8628702163696289,-0.8247394561767578,0.467462420463562,1.1700000000000008
0.9882205724716187,-0.7799034118652344,0.6770046949386597,1.1800000000000008
1.1507151126861572,-0.7729759216308594,0.9206914901733398,1.1900000000000008
1.3098695278167725,-0.7225503921508789,1.1822260618209839,1.2000000000000008
1.3843731880187988,-0.6023321151733398,1.4138901233673096,1.2100000000000009
1.4268150329589844,-0.41240692138671875,1.5268363952636719,1.2200000000000009
1.3937908411026,-0.24856948852539062,1.5798381567001343,1.2300000000000009
1.2894281148910522,-0.14202880859375,1.4708247184753418,1.2400000000000009
1.1874370574951172,-0.11441802978515625,1.343980312347412,1.2500000000000009
0.938948392868042,-0.06541919708251953,1.1714341640472412,1.260000000000001
0.8740429282188416,-0.2629976272583008,0.9976775646209717,1.270000000000001
0.8343598246574402,-0.32435035705566406,0.892030656337738,1.280000000000001
0.8482726812362671,-0.3405170440673828,0.8719531893730164,1.290000000000001
0.9705758094787598,-0.32105350494384766,0.9817667007446289,1.300000000000001
1.2847399711608887,-0.21810054779052734,1.2156132459640503,1.310000000000001
1.5487180948257446,-0.08673286437988281,1.4045801162719727,1.320000000000001
1.9103115797042847,0.13750648498535156,1.424572467803955,1.330000000000001
2.3665215969085693,0.2965726852416992,1.3017367124557495,1.340000000000001
2.846973180770874,0.4023618698120117,1.2059646844863892,1.350000000000001
3.321643829345703,0.5863361358642578,1.4107558727264404,1.360000000000001
3.72489857673645,0.8817911148071289,1.4792428016662598,1.370000000000001
4.015236854553223,1.001481056213379,1.078932285308838,1.380000000000001
4.062944412231445,0.9980630874633789,0.36273473501205444,1.390000000000001
4.1836442947387695,0.878748893737793,-0.30411869287490845,1.400000000000001
4.231695175170898,0.7201833724975586,-0.8413507342338562,1.410000000000001
4.329556941986084,0.6874351501464844,-1.2355365753173828,1.420000000000001
4.326819896697998,0.780421257019043,-1.3604875802993774,1.430000000000001
4.420187950134277,1.0684871673583984,-1.3764597177505493,1.440000000000001
4.52894401550293,1.5515947341918945,-1.412182092666626,1.450000000000001
4.651349067687988,2.1316604614257812,-1.5317885875701904,1.460000000000001
4.718659400939941,2.818300247192383,-1.5867154598236084,1.470000000000001
4.8488545417785645,3.6689558029174805,-1.3997116088867188,1.480000000000001
5.025820255279541,4.49709415435791,-0.9106773138046265,1.490000000000001
5.348696708679199,5.422481536865234,-0.0240669846534729,1.500000000000001
5.659026145935059,6.299298286437988,1.0128583908081055,1.5100000000000011
5.988271236419678,7.120562553405762,2.0431323051452637,1.5200000000000011
5.282841682434082,7.759560585021973,2.698617696762085,1.5300000000000011
1.8722001314163208,7.711625099182129,2.8233482837677,1.5400000000000011
-0.8055474758148193,7.013396263122559,2.7978146076202393,1.5500000000000012
-2.4145216941833496,5.976794242858887,2.711951494216919,1.5600000000000012
-3.380429744720459,4.860928535461426,2.798875093460083,1.5700000000000012
-3.977449893951416,3.855226516723633,2.8498363494873047,1.5800000000000012
-4.2614521980285645,3.0483760833740234,2.6963791847229004,1.5900000000000012
-4.369353294372559,2.514552116394043,2.355570077896118,1.6000000000000012
-4.2901411056518555,2.0480384826660156,1.8394744396209717,1.6100000000000012
-4.187899112701416,1.787663459777832,1.3518096208572388,1.6200000000000012
-4.0550618171691895,1.5348806381225586,1.0012297630310059,1.6300000000000012
-3.9203734397888184,1.2897672653198242,0.7031581997871399,1.6400000000000012
-3.7313616275787354,1.0260114669799805,0.4617660641670227,1.6500000000000012
-3.588643789291382,0.8104591369628906,0.3150125741958618,1.6600000000000013
-3.396730899810791,0.5948972702026367,0.17961657047271729,1.6700000000000013
-3.2946903705596924,0.3429412841796875,-0.06567060947418213,1.6800000000000013
-3.1606061458587646,0.061188697814941406,-0.3798142671585083,1.6900000000000013
-3.006736993789673,-0.0978708267211914,-0.7276767492294312,1.7000000000000013
-2.816744565963745,-0.18986129760742188,-1.139611840248108,1.7100000000000013
-2.677452564239502,-0.24860858917236328,-1.5465612411499023,1.7200000000000013
-2.575683116912842,-0.27411842346191406,-2.0241966247558594,1.7300000000000013
-2.452864408493042,-0.30914878845214844,-2.5294759273529053,1.7400000000000013
-2.4108505249023438,-0.32699012756347656,-3.000014066696167,1.7500000000000013
-2.170724391937256,-0.32001495361328125,-3.349583625793457,1.7600000000000013
-1.8049311637878418,-0.2661571502685547,-3.5735158920288086,1.7700000000000014
-1.3572235107421875,-0.20312023162841797,-3.628568649291992,1.7800000000000014
-0.9171594977378845,-0.005999565124511719,-3.499605894088745,1.7900000000000014
-0.40206676721572876,0.08392047882080078,-3.04844069480896,1.8000000000000014
0.13680309057235718,0.3467855453491211,-2.217641830444336,1.8100000000000014
0.5608444213867188,0.624237060546875,-1.1728143692016602,1.8200000000000014
0.9982470273971558,1.0563545227050781,0.10626101493835449,1.8300000000000014
1.2737853527069092,1.5914831161499023,1.5441830158233643,1.8400000000000014
1.4162068367004395,1.9795398712158203,2.6846580505371094,1.8500000000000014
1.2989611625671387,2.138376235961914,3.3144376277923584,1.8600000000000014
0.8236300945281982,2.1467504501342773,3.2067110538482666,1.8700000000000014
0.2663151025772095,1.9499359130859375,2.5689921379089355,1.8800000000000014
-0.2699921131134033,1.6153202056884766,1.740156888961792,1.8900000000000015
-0.6563335061073303,1.2436962127685547,0.965609073638916,1.9000000000000015
-0.9240320920944214,0.8137617111206055,0.18217182159423828,1.9100000000000015
-1.138169765472412,0.34727954864501953,-0.4602057933807373,1.9200000000000015
-1.313460111618042,-0.2561788558959961,-0.9832971096038818,1.9300000000000015
-1.4907963275909424,-0.7237005233764648,-1.526520013809204,1.9400000000000015
-1.6199995279312134,-1.1485486030578613,-2.0641722679138184,1.9500000000000015
-1.6844592094421387,-1.5115618705749512,-2.505764961242676,1.9600000000000015
-1.7487455606460571,-1.8630051612854004,-2.899501085281372,1.9700000000000015
-1.8030362129211426,-2.143105983734131,-3.2600831985473633,1.9800000000000015
-1.8948918581008911,-2.4069700241088867,-3.57102370262146,1.9900000000000015
-1.9712843894958496,-2.5685901641845703,-3.8708338737487793,2.0000000000000013
-2.053755521774292,-2.697397232055664,-4.1740827560424805,2.010000000000001
-2.1713521480560303,-2.8291444778442383,-4.440407752990723,2.020000000000001
-2.3415582180023193,-2.9516563415527344,-4.612670421600342,2.0300000000000007
-2.4929769039154053,-3.0622735023498535,-4.777560234069824,2.0400000000000005
-2.6693756580352783,-3.084211826324463,-4.837386131286621,2.0500000000000003
-2.7947683334350586,-2.9934639930725098,-4.7972636222839355,2.06
-2.9606122970581055,-2.842693328857422,-4.58549165725708,2.07
-3.061784267425537,-2.612971305847168,-4.218668460845947,2.0799999999999996
-3.1700997352600098,-2.378772258758545,-3.768160104751587,2.0899999999999994
-3.249316692352295,-2.14296817779541,-3.2380082607269287,2.099999999999999
-3.3108365535736084,-1.9994721412658691,-2.5841803550720215,2.109999999999999
-3.3565104007720947,-1.9370298385620117,-1.9058513641357422,2.1199999999999988
-3.2516303062438965,-1.9110307693481445,-1.2350704669952393,2.1299999999999986
-3.151466131210327,-1.9987754821777344,-0.5655522346496582,2.1399999999999983
-2.972442388534546,-2.136239528656006,-0.036974430084228516,2.149999999999998
-2.7461047172546387,-2.378787040710449,0.3805856704711914,2.159999999999998
-2.5377097129821777,-2.6905460357666016,0.6472377777099609,2.1699999999999977
-2.30721378326416,-2.9851508140563965,0.748833179473877,2.1799999999999975
-2.0837388038635254,-3.2957234382629395,0.7521347999572754,2.1899999999999973
-1.8745505809783936,-3.621786117553711,0.6589899063110352,2.199999999999997
-1.7653876543045044,-3.8481216430664062,0.49026942253112793,2.209999999999997
-1.6308252811431885,-4.096414566040039,0.24266290664672852,2.2199999999999966
-1.481982707977295,-4.251571178436279,-0.005576133728027344,2.2299999999999964
-1.499955177307129,-4.2369771003723145,-0.07798409461975098,2.239999999999996
-1.5873476266860962,-4.774599075317383,-0.21520137786865234,2.249999999999996
-1.6929082870483398,-5.050473690032959,-0.276965856552124,2.259999999999996
-1.9073185920715332,-5.172313213348389,-0.23494529724121094,2.2699999999999956
-2.0466806888580322,-5.022861957550049,-0.13005995750427246,2.2799999999999954
-2.1772007942199707,-5.147374629974365,-0.0731360912322998,2.289999999999995
-2.2979276180267334,-5.088492393493652,-0.07230138778686523,2.299999999999995
-2.358797788619995,-4.83644437789917,8.993148803710938E-4,2.3099999999999947
-2.19071102142334,-4.1662139892578125,0.07632255554199219,2.3199999999999945
-2.027920961380005,-3.496337890625,0.09778761863708496,2.3299999999999943
-1.6742875576019287,-2.51542329788208,0.056732892990112305,2.339999999999994
-1.1548526287078857,-1.2161707878112793,-0.00948190689086914,2.349999999999994
-0.4791353940963745,0.3202495574951172,0.02301168441772461,2.3599999999999937
0.21333980560302734,2.0080995559692383,0.021846771240234375,2.3699999999999934
0.8283264636993408,3.7738304138183594,0.07647275924682617,2.3799999999999932
1.3840138912200928,5.546405792236328,0.19431781768798828,2.389999999999993
1.8790161609649658,7.350559234619141,0.44691967964172363,2.399999999999993
2.347939968109131,8.98843002319336,1.0423686504364014,2.4099999999999926
2.768242359161377,10.376757621765137,2.03932523727417,2.4199999999999924
3.2809629440307617,11.187948226928711,3.498476982116699,2.429999999999992
4.015345573425293,10.943367958068848,5.4877729415893555,2.439999999999992
4.963349342346191,9.192708969116211,7.938831329345703,2.4499999999999917
5.602083206176758,6.765514373779297,9.651531219482422,2.4599999999999915
5.714274883270264,4.73499870300293,10.153722763061523,2.4699999999999913
5.5115556716918945,3.482813835144043,9.373100280761719,2.479999999999991
4.617152214050293,3.058436393737793,7.75966739654541,2.489999999999991
3.922335147857666,3.1071643829345703,5.887081146240234,2.4999999999999907
3.6518378257751465,3.2768335342407227,4.048613548278809,2.5099999999999905
3.3108139038085938,3.5980224609375,2.5808379650115967,2.5199999999999902
2.583754539489746,3.945858955383301,1.3347375392913818,2.52999999999999
1.5347976684570312,4.334280967712402,0.3319230079650879,2.53999999999999
0.2872666120529175,4.542947769165039,-0.36278820037841797,2.5499999999999896
-0.9499310255050659,4.540676116943359,-0.9184730052947998,2.5599999999999894
-2.0145301818847656,4.363367080688477,-1.3838671445846558,2.569999999999989
-3.058344602584839,4.10206413269043,-1.747913122177124,2.579999999999989
-3.8100662231445312,3.5493173599243164,-2.2093403339385986,2.5899999999999888
-4.5725016593933105,3.098618507385254,-2.808891773223877,2.5999999999999885
-5.248800277709961,2.485896110534668,-3.472856044769287,2.6099999999999883
-5.754228115081787,1.7082195281982422,-4.021832466125488,2.619999999999988
-6.22457218170166,0.8461942672729492,-4.329259872436523,2.629999999999988
-6.582766056060791,-0.15196800231933594,-4.164707183837891,2.6399999999999877
-6.822197437286377,-1.248220443725586,-3.5616488456726074,2.6499999999999875
-6.855368137359619,-2.3314719200134277,-2.513906717300415,2.6599999999999873
-6.706297397613525,-3.3052515983581543,-1.4049198627471924,2.669999999999987
-6.477447986602783,-4.163541793823242,-0.6351975202560425,2.679999999999987
-5.843188762664795,-4.749067306518555,-0.32828235626220703,2.6899999999999866
-4.650276184082031,-5.1362528800964355,-0.6755731701850891,2.6999999999999864
-2.7372474670410156,-5.483000755310059,-1.3180556297302246,2.709999999999986
-1.286059021949768,-5.714935302734375,-2.115813970565796,2.719999999999986
-0.3166424632072449,-5.764742851257324,-2.958510398864746,2.7299999999999858
0.36964982748031616,-5.636837005615234,-3.736231565475464,2.7399999999999856
0.7211611866950989,-5.397768497467041,-4.324770450592041,2.7499999999999853
0.970203161239624,-4.956295490264893,-4.668636798858643,2.759999999999985
1.0711607933044434,-4.326757907867432,-4.719898223876953,2.769999999999985
1.0742698907852173,-3.4066882133483887,-4.482631683349609,2.7799999999999847
0.8408380746841431,-2.333221435546875,-4.024890422821045,2.7899999999999845
0.44505321979522705,-1.2387361526489258,-3.5302698612213135,2.7999999999999843
0.008224844932556152,-0.1933116912841797,-3.0504310131073,2.809999999999984
-0.4156958758831024,0.8622426986694336,-2.5708107948303223,2.819999999999984
-0.7996073961257935,1.855611801147461,-2.02982497215271,2.8299999999999836
-1.2027368545532227,2.750472068786621,-1.2062327861785889,2.8399999999999834
-1.5095267295837402,3.443669319152832,-0.15928864479064941,2.849999999999983
-1.5395928621292114,4.033219337463379,1.0340535640716553,2.859999999999983
-1.2207282781600952,4.4501190185546875,1.8759046792984009,2.869999999999983
-0.7249592542648315,4.425132751464844,2.073643445968628,2.8799999999999826
-0.08813761174678802,3.792494773864746,1.6621652841567993,2.8899999999999824
0.22860679030418396,2.769209861755371,0.7205071449279785,2.899999999999982
0.4429051876068115,1.6936016082763672,-0.23835992813110352,2.909999999999982
0.9265387058258057,0.8457956314086914,-1.127899408340454,2.9199999999999817
1.458816647529602,0.25658416748046875,-1.842416763305664,2.9299999999999815
1.8574697971343994,-0.08891487121582031,-2.321916103363037,2.9399999999999813
2.139054298400879,-0.21764373779296875,-2.4711713790893555,2.949999999999981
2.289038896560669,-0.28812122344970703,-2.24141263961792,2.959999999999981
2.367065191268921,-0.3964881896972656,-1.8825581073760986,2.9699999999999807
2.4713332653045654,-0.595646858215332,-1.580491304397583,2.9799999999999804
2.254420042037964,-0.9072456359863281,-1.3160903453826904,2.9899999999999802
1.703153371810913,-1.1567268371582031,-1.0569308996200562,2.99999999999998
0.807921290397644,-1.2389659881591797,-0.886256217956543,3.00999999999998
0.07529251277446747,-1.1803655624389648,-0.9576948881149292,3.0199999999999796
-0.5001978874206543,-1.0885505676269531,-1.1071974039077759,3.0299999999999794
-0.847580075263977,-0.9514646530151367,-1.2092082500457764,3.039999999999979
-1.0540881156921387,-0.7690496444702148,-1.2217750549316406,3.049999999999979
-1.197157621383667,-0.6488656997680664,-1.1795713901519775,3.0599999999999787
-1.1386500597000122,-0.6433658599853516,-1.0789791345596313,3.0699999999999785
-0.8621664643287659,-0.7332477569580078,-0.8897439241409302,3.0799999999999783
-0.6070341467857361,-0.8347129821777344,-0.6289585828781128,3.089999999999978
-0.3302491307258606,-0.9573488235473633,-0.3920319378376007,3.099999999999978
-0.08673947304487228,-1.0533533096313477,-0.1688549518585205,3.1099999999999777
0.011158332228660583,-1.1682453155517578,0.027133941650390625,3.1199999999999775
0.06391474604606628,-1.2566089630126953,0.18253803253173828,3.1299999999999772
-0.12747713923454285,-1.2372074127197266,0.26712891459465027,3.139999999999977
-0.3598473370075226,-1.165170669555664,0.23820528388023376,3.149999999999977
-0.32913169264793396,-0.9998979568481445,0.08140268921852112,3.1599999999999766
-0.3030770719051361,-0.8825578689575195,-0.18196208775043488,3.1699999999999764
-0.24542802572250366,-0.8130722045898438,-0.4039524793624878,3.179999999999976
-0.07667455077171326,-0.8200597763061523,-0.5991984605789185,3.189999999999976
0.14863836765289307,-0.8603696823120117,-0.7895973920822144,3.1999999999999758
0.3301517367362976,-0.8215703964233398,-0.8580385446548462,3.2099999999999755
0.5038536190986633,-0.7539691925048828,-0.8428912162780762,3.2199999999999753
0.6027292013168335,-0.6862869262695312,-0.6506747007369995,3.229999999999975
0.7776557207107544,-0.6687259674072266,-0.4007490873336792,3.239999999999975
0.8466744422912598,-0.7251224517822266,-0.18130166828632355,3.2499999999999747
0.8453865051269531,-0.7525434494018555,0.06776800751686096,3.2599999999999745
0.7662337422370911,-0.7462339401245117,0.2242555469274521,3.2699999999999743
0.8339962363243103,-0.8568572998046875,0.29986274242401123,3.279999999999974
0.8668327331542969,-0.9575300216674805,0.38043493032455444,3.289999999999974
0.7976688742637634,-0.921534538269043,0.4465315341949463,3.2999999999999736
0.7675671577453613,-0.8877229690551758,0.502888560295105,3.3099999999999734
0.7335244417190552,-0.7030525207519531,0.5590271353721619,3.319999999999973
0.7076252102851868,-0.5422487258911133,0.6606074571609497,3.329999999999973
0.824317216873169,-0.3406801223754883,0.7672213912010193,3.3399999999999728
0.8879973888397217,-0.09355926513671875,0.8933824300765991,3.3499999999999726
0.8821793794631958,0.1464853286743164,1.0128107070922852,3.3599999999999723
0.8905683755874634,0.3938417434692383,1.10394287109375,3.369999999999972
0.821916937828064,0.5695896148681641,1.1999508142471313,3.379999999999972
0.7790129780769348,0.6283750534057617,1.2834205627441406,3.3899999999999717
0.7901966571807861,0.6133251190185547,1.2960314750671387,3.3999999999999715
0.732991099357605,0.5052957534790039,1.289109706878662,3.4099999999999713
0.7122901082038879,0.38556766510009766,1.2588870525360107,3.419999999999971
0.6534218788146973,0.25879669189453125,1.2640159130096436,3.429999999999971
0.6254700422286987,0.06509780883789062,1.3300219774246216,3.4399999999999706
0.5777525901794434,-0.07120418548583984,1.3633196353912354,3.4499999999999704
0.5433827638626099,-0.1311025619506836,1.3139731884002686,3.45999999999997
0.6583697199821472,-0.06208992004394531,1.2306416034698486,3.46999999999997
0.8530529141426086,0.08069515228271484,1.0758817195892334,3.47999999999997
1.1679489612579346,0.33784008026123047,0.8672091960906982,3.4899999999999696
1.554484248161316,0.6589775085449219,0.7324821949005127,3.4999999999999694
2.0382423400878906,0.9388341903686523,0.9553290605545044,3.509999999999969
2.6137828826904297,1.1654701232910156,1.1200884580612183,3.519999999999969
3.0766820907592773,1.350759506225586,1.1050516366958618,3.5299999999999687
3.390176773071289,1.4515323638916016,0.8622606992721558,3.5399999999999685
3.627918243408203,1.3792800903320312,0.6426007151603699,3.5499999999999683
3.918919086456299,1.2082672119140625,0.4718363583087921,3.559999999999968
4.1510419845581055,1.0390338897705078,0.31337690353393555,3.569999999999968
4.291325092315674,1.0365962982177734,0.16185128688812256,3.5799999999999677
4.402707099914551,1.1482315063476562,0.048097848892211914,3.5899999999999674
4.3805766105651855,1.3595876693725586,0.05163112282752991,3.5999999999999672
4.460274696350098,1.6970195770263672,0.20434486865997314,3.609999999999967
4.506344318389893,2.2370433807373047,0.3438361883163452,3.619999999999967
4.3996806144714355,2.9555320739746094,0.18235555291175842,3.6299999999999666
4.205268859863281,3.546175003051758,-0.1575927436351776,3.6399999999999664
3.9806671142578125,3.949324607849121,-0.5971534252166748,3.649999999999966
3.6872663497924805,4.158034324645996,-0.95430588722229,3.659999999999966
3.4034554958343506,4.2156572341918945,-1.0649710893630981,3.6699999999999657
3.171537160873413,4.160778045654297,-0.8427772521972656,3.6799999999999655
3.038872003555298,4.0152587890625,-0.23635587096214294,3.6899999999999653
3.038703441619873,3.8941965103149414,0.7059048414230347,3.699999999999965
2.945403575897217,3.8096256256103516,1.9691294431686401,3.709999999999965
1.766366720199585,3.6896791458129883,3.159562110900879,3.7199999999999647
0.3900615870952606,3.3742408752441406,3.8285553455352783,3.7299999999999645
-0.6695446968078613,2.8089523315429688,3.917966604232788,3.7399999999999642
-1.3827170133590698,2.100057601928711,3.6036698818206787,3.749999999999964
-1.908031940460205,1.478118896484375,3.127654552459717,3.759999999999964
-2.3728721141815186,1.0561456680297852,2.622030258178711,3.7699999999999636
-2.8233275413513184,0.8224220275878906,2.24503755569458,3.7799999999999634
-3.1312663555145264,0.8343076705932617,1.851811170578003,3.789999999999963
-3.2715342044830322,0.9504423141479492,1.4310986995697021,3.799999999999963
-3.328886032104492,1.1155853271484375,1.0641539096832275,3.8099999999999627
-3.2279818058013916,1.2791328430175781,0.7772382497787476,3.8199999999999625
-3.106835126876831,1.2658863067626953,0.5423249006271362,3.8299999999999623
-2.95038104057312,1.1373329162597656,0.20958399772644043,3.839999999999962
-2.628676414489746,0.8783702850341797,-0.20670032501220703,3.849999999999962
-2.0883307456970215,0.6964817047119141,-0.6961634159088135,3.8599999999999617
-1.6282453536987305,0.6652698516845703,-1.1922824382781982,3.8699999999999615
-1.313670039176941,0.7532749176025391,-1.6219714879989624,3.8799999999999613
-1.0329177379608154,0.7784967422485352,-2.0077245235443115,3.889999999999961
-0.7819011211395264,0.7911434173583984,-2.3981568813323975,3.899999999999961
-0.49147558212280273,0.80548095703125,-2.624101400375366,3.9099999999999606
-0.2889338731765747,0.950526237487793,-2.736311197280884,3.9199999999999604
-0.14211297035217285,1.0563182830810547,-2.670609712600708,3.92999999999996
0.011777937412261963,1.1160039901733398,-2.4712471961975098,3.93999999999996
0.09933269023895264,1.070176124572754,-2.2468953132629395,3.9499999999999598
0.07552927732467651,1.230076789855957,-1.952622652053833,3.9599999999999596
0.10387587547302246,1.1751289367675781,-1.764230489730835,3.9699999999999593
0.26482492685317993,0.9804391860961914,-1.5948783159255981,3.979999999999959
0.467205286026001,0.8330316543579102,-1.3638607263565063,3.989999999999959
0.6706092357635498,0.7401704788208008,-1.0139496326446533,3.9999999999999587
1.002524495124817,0.7041540145874023,-0.6095967292785645,4.009999999999959
1.2966582775115967,0.7509994506835938,-0.18380069732666016,4.019999999999959
1.6261804103851318,0.877842903137207,0.2737557888031006,4.0299999999999585
1.9187732934951782,0.9835281372070312,0.6995482444763184,4.039999999999958
2.155365228652954,1.1128473281860352,0.9914836883544922,4.049999999999958
2.237607479095459,1.2508058547973633,1.0975613594055176,4.059999999999958
2.3523149490356445,1.2770624160766602,1.0136449337005615,4.069999999999958
2.2886574268341064,1.2367048263549805,0.754019021987915,4.079999999999957
1.8988388776779175,1.0460824966430664,0.39003443717956543,4.089999999999957
1.0380477905273438,0.7774219512939453,-0.0570833683013916,4.099999999999957
0.07555663585662842,0.47660064697265625,-0.5349044799804688,4.109999999999957
-0.6213705539703369,0.28240013122558594,-0.9882752895355225,4.119999999999957
-1.057547926902771,-0.12351131439208984,-1.4076018333435059,4.129999999999956
-1.2899870872497559,-0.4735298156738281,-1.8282833099365234,4.139999999999956
-1.38864004611969,-0.727564811706543,-2.108177661895752,4.149999999999956
-1.5046279430389404,-1.0295820236206055,-2.313612937927246,4.159999999999956
-1.6476445198059082,-1.5899372100830078,-2.604983329772949,4.1699999999999555
-1.7752095460891724,-1.7027974128723145,-2.8603692054748535,4.179999999999955
-1.9619141817092896,-2.1167168617248535,-3.1977767944335938,4.189999999999955
-2.1892783641815186,-2.5031590461730957,-3.474600315093994,4.199999999999955
-2.4412343502044678,-2.772998809814453,-3.8068623542785645,4.209999999999955
-2.6682090759277344,-2.97133731842041,-4.056530952453613,4.2199999999999545
-2.878054141998291,-3.10037899017334,-4.219213485717773,4.229999999999954
-3.040031671524048,-3.157649517059326,-4.321527004241943,4.239999999999954
-3.2093586921691895,-3.2029218673706055,-4.291945934295654,4.249999999999954
-3.371722936630249,-3.193297863006592,-4.1614179611206055,4.259999999999954
-3.5246076583862305,-3.0333733558654785,-3.8939032554626465,4.269999999999953
-3.6701271533966064,-2.7953529357910156,-3.546482563018799,4.279999999999953
-3.65242862701416,-2.5538463592529297,-3.140157699584961,4.289999999999953
-3.7056069374084473,-2.340381622314453,-2.659916639328003,4.299999999999953
-3.7240095138549805,-2.1601409912109375,-2.2174572944641113,4.3099999999999525
-3.6212844848632812,-2.01834774017334,-1.8213791847229004,4.319999999999952
-3.4381394386291504,-2.0085744857788086,-1.4588606357574463,4.329999999999952
-3.239072561264038,-2.0018367767333984,-1.1889753341674805,4.339999999999952
-2.9141898155212402,-2.122570514678955,-0.9920825958251953,4.349999999999952
-2.676748514175415,-2.3155860900878906,-0.843942403793335,4.3599999999999515
-2.4361305236816406,-2.6332287788391113,-0.7540440559387207,4.369999999999951
-2.2570114135742188,-2.9890875816345215,-0.6889324188232422,4.379999999999951
-2.1250545978546143,-3.3900861740112305,-0.6080620288848877,4.389999999999951
-2.0329103469848633,-3.7117104530334473,-0.5234391689300537,4.399999999999951
-1.9205011129379272,-3.865464210510254,-0.39927220344543457,4.40999999999995
-1.9303020238876343,-4.384641647338867,-0.2695646286010742,4.41999999999995
-2.027329683303833,-4.828797817230225,-0.12752461433410645,4.42999999999995
-2.1719048023223877,-5.1646223068237305,0.10088157653808594,4.43999999999995
-2.415144443511963,-5.540640830993652,0.32959747314453125,4.4499999999999496
-2.7268571853637695,-5.844332218170166,0.601318359375,4.459999999999949
-3.0986719131469727,-5.958423137664795,0.8581814765930176,4.469999999999949
-3.4747138023376465,-6.021479606628418,1.085242509841919,4.479999999999949
-3.8953800201416016,-5.93009614944458,1.2000932693481445,4.489999999999949
-4.245972633361816,-5.576105117797852,1.1273939609527588,4.4999999999999485
-4.448116302490234,-4.84894323348999,0.9086241722106934,4.509999999999948
-4.59149169921875,-3.7768187522888184,0.46787118911743164,4.519999999999948
-4.378240585327148,-2.277892589569092,-0.08231449127197266,4.529999999999948
-3.699392080307007,-0.4163856506347656,-0.6609413623809814,4.539999999999948
-2.801255702972412,1.6910829544067383,-1.2114745378494263,4.549999999999947
-1.9268825054168701,4.004561424255371,-1.5100958347320557,4.559999999999947
-1.143312931060791,6.589244842529297,-1.5628166198730469,4.569999999999947
-0.5423251390457153,9.452768325805664,-1.2658791542053223,4.579999999999947
0.041672706604003906,12.32275104522705,-0.5555115938186646,4.589999999999947
0.674768328666687,14.584761619567871,0.6917378902435303,4.599999999999946
1.5903176069259644,15.566747665405273,3.2640695571899414,4.609999999999946
2.8008968830108643,14.641931533813477,6.276876449584961,4.619999999999946
4.16947603225708,11.379800796508789,8.594645500183105,4.629999999999946
5.469003677368164,7.686127662658691,10.675775527954102,4.6399999999999455
6.8196821212768555,4.670565605163574,12.412246704101562,4.649999999999945
7.363131523132324,2.625247001647949,12.121041297912598,4.659999999999945
7.469454765319824,1.5159711837768555,10.054248809814453,4.669999999999945
7.398167610168457,1.0483951568603516,7.410850524902344,4.679999999999945
6.890007972717285,0.8783168792724609,4.845928192138672,4.689999999999944
5.86008882522583,0.8602476119995117,2.680626392364502,4.699999999999944
4.775609970092773,0.8889598846435547,0.7837793827056885,4.709999999999944
3.5120956897735596,1.093073844909668,-0.7790876626968384,4.719999999999944
2.0596389770507812,1.493098258972168,-1.9979628324508667,4.729999999999944
0.5186834335327148,2.02590274810791,-3.0398366451263428,4.739999999999943
-0.8448187708854675,2.449429512023926,-4.00574254989624,4.749999999999943
-1.9945611953735352,2.3455677032470703,-4.946262836456299,4.759999999999943
-2.7286856174468994,1.9405603408813477,-5.73560905456543,4.769999999999943
-3.22552490234375,1.707106590270996,-6.150374412536621,4.7799999999999425
-3.6702117919921875,1.5988893508911133,-6.178606033325195,4.789999999999942
-4.228432655334473,1.63958740234375,-5.743250846862793,4.799999999999942
-4.8969902992248535,1.7696304321289062,-4.839001655578613,4.809999999999942
-5.776993751525879,1.5382280349731445,-3.387296676635742,4.819999999999942
-6.527027130126953,0.6805315017700195,-0.9237642884254456,4.8299999999999415
-6.813974380493164,-0.08166122436523438,1.4758001565933228,4.839999999999941
-6.526811599731445,-0.8325929641723633,3.2675228118896484,4.849999999999941
-5.411320686340332,-1.5979862213134766,4.108478546142578,4.859999999999941
-3.7481672763824463,-2.344820976257324,3.6634020805358887,4.869999999999941
-2.1144680976867676,-2.9336423873901367,1.7708834409713745,4.87999999999994
-0.4701490104198456,-3.413604736328125,-0.6874988079071045,4.88999999999994
0.5111755728721619,-3.8554482460021973,-2.9932994842529297,4.89999999999994
1.0254967212677002,-4.131509304046631,-4.856517314910889,4.90999999999994
1.2185478210449219,-4.179121494293213,-6.122674465179443,4.9199999999999395
1.1860547065734863,-4.155857563018799,-6.818553447723389,4.929999999999939
1.1466474533081055,-3.9370527267456055,-7.075743675231934,4.939999999999939
1.0213781595230103,-3.6207785606384277,-7.021915435791016,4.949999999999939
0.7525961995124817,-3.2167372703552246,-6.651177883148193,4.959999999999939
0.20613837242126465,-2.588977813720703,-6.003303527832031,4.9699999999999385
-0.4946076273918152,-1.762007713317871,-5.083049774169922,4.979999999999938
-1.1628307104110718,-0.7674827575683594,-3.9281041622161865,4.989999999999938
-1.8656502962112427,0.24333953857421875,-2.5014288425445557,4.999999999999938
-2.4809818267822266,1.2459745407104492,-0.8347350358963013,5.009999999999938
-3.058727741241455,2.222897529602051,1.1301387548446655,5.019999999999937
-3.6268162727355957,2.988861083984375,3.8362646102905273,5.029999999999937
-3.520968437194824,3.383072853088379,5.665320873260498,5.039999999999937
-2.531157970428467,3.0475997924804688,5.012609481811523,5.049999999999937
-1.3804181814193726,2.08480167388916,2.826209545135498,5.0599999999999365
-0.5162324905395508,1.1253185272216797,0.4567962884902954,5.069999999999936
0.16953453421592712,0.38750171661376953,-1.5324957370758057,5.079999999999936
0.7900172472000122,-0.06867218017578125,-3.115863800048828,5.089999999999936
1.0375139713287354,-0.2935800552368164,-4.107933521270752,5.099999999999936
1.116186261177063,-0.38315677642822266,-4.491711139678955,5.1099999999999355
1.1821471452713013,-0.2516508102416992,-4.439789295196533,5.119999999999935
1.293735384941101,-0.007167816162109375,-3.9821114540100098,5.129999999999935
1.3518664836883545,0.13225269317626953,-3.082610845565796,5.139999999999935
1.2454850673675537,0.19033241271972656,-2.034482955932617,5.149999999999935
1.1267672777175903,0.14055633544921875,-0.8721142411231995,5.159999999999934
1.0327916145324707,0.030681610107421875,-0.07324159145355225,5.169999999999934
0.7269917726516724,-0.06511783599853516,0.1676640510559082,5.179999999999934
0.3570230007171631,-0.16346263885498047,-0.07078200578689575,5.189999999999934
-0.04010460525751114,-0.23545265197753906,-0.5127590298652649,5.199999999999934
-0.295925498008728,-0.3646202087402344,-1.0313100814819336,5.209999999999933
-0.3657439053058624,-0.6153392791748047,-1.3029835224151611,5.219999999999933
-0.2834365963935852,-0.9395647048950195,-1.4874355792999268,5.229999999999933
-0.09667878597974777,-1.298924446105957,-1.5738489627838135,5.239999999999933
0.09702648222446442,-1.6455726623535156,-1.3976399898529053,5.2499999999999325
0.4493386447429657,-1.9269561767578125,-1.1334807872772217,5.259999999999932
0.5421744585037231,-2.133640766143799,-0.7399998903274536,5.269999999999932
0.541114091873169,-2.3374886512756348,-0.384013831615448,5.279999999999932
0.4029541313648224,-2.3974595069885254,-0.0599672794342041,5.289999999999932
0.03149022161960602,-2.1846351623535156,0.19931085407733917,5.299999999999931
-0.34633490443229675,-1.8356537818908691,0.3796195983886719,5.309999999999931
-0.42880627512931824,-1.3291511535644531,0.303618460893631,5.319999999999931
-0.40928345918655396,-0.8470296859741211,0.17921043932437897,5.329999999999931
-0.40708184242248535,-0.5542430877685547,0.07806593179702759,5.339999999999931
-0.3382070064544678,-0.42185211181640625,-0.0406772717833519,5.34999999999993
-0.2912190556526184,-0.4329195022583008,-0.15539398789405823,5.35999999999993
-0.3357592821121216,-0.2907724380493164,-0.2349921017885208,5.36999999999993
-0.3477860391139984,-0.11038398742675781,-0.3228037357330322,5.37999999999993
-0.14054131507873535,-0.025694847106933594,-0.30395010113716125,5.3899999999999295
-0.05359986424446106,-0.015049934387207031,-0.17550604045391083,5.399999999999929
0.0565112829208374,-0.07833385467529297,0.0035760849714279175,5.409999999999929
0.07009634375572205,-0.20347213745117188,0.15743912756443024,5.419999999999929
0.18791823089122772,-0.35927581787109375,0.24098563194274902,5.429999999999929
0.19457824528217316,-0.4596109390258789,0.29470396041870117,5.4399999999999284
0.29580387473106384,-0.6336584091186523,0.3563210964202881,5.449999999999928
0.4867139756679535,-0.7282953262329102,0.3892625868320465,5.459999999999928
0.5542245507240295,-0.7675495147705078,0.502996027469635,5.469999999999928
0.8790367841720581,-0.7849502563476562,0.6061733365058899,5.479999999999928
1.1742358207702637,-0.6824541091918945,0.7683534622192383,5.489999999999927
1.4278655052185059,-0.5343074798583984,0.8965947031974792,5.499999999999927
1.618505835533142,-0.2926931381225586,1.063328504562378,5.509999999999927
1.7868596315383911,-0.02701091766357422,1.1495935916900635,5.519999999999927
2.0164883136749268,0.23644447326660156,1.1987848281860352,5.5299999999999265
2.0150296688079834,0.3804931640625,1.218048095703125,5.539999999999926
2.069207191467285,0.4769754409790039,1.228459119796753,5.549999999999926
2.013446569442749,0.5019388198852539,1.2481064796447754,5.559999999999926
1.878659725189209,0.4792661666870117,1.2565605640411377,5.569999999999926
1.8034418821334839,0.3371400833129883,1.2379906177520752,5.5799999999999255
1.687058925628662,0.21900367736816406,1.1669906377792358,5.589999999999925
1.5391430854797363,0.03145027160644531,1.1119260787963867,5.599999999999925
1.5174063444137573,-0.12987709045410156,1.0508794784545898,5.609999999999925
1.4923115968704224,-0.11199569702148438,1.0968596935272217,5.619999999999925
1.5137755870819092,-0.001155853271484375,1.287055492401123,5.629999999999924
1.7513527870178223,0.21934223175048828,1.4459288120269775,5.639999999999924
2.1594786643981934,0.511143684387207,1.4544267654418945,5.649999999999924
2.4410624504089355,0.8358135223388672,1.3244798183441162,5.659999999999924
2.700404167175293,1.231429100036621,1.2693995237350464,5.6699999999999235
3.223606586456299,1.3606300354003906,1.449629306793213,5.679999999999923
3.645857810974121,1.596583366394043,1.4583349227905273,5.689999999999923
3.9781322479248047,1.6041736602783203,1.2140370607376099,5.699999999999923
4.155138969421387,1.4457178115844727,0.953925609588623,5.709999999999923
4.372763156890869,1.1572399139404297,0.6974843144416809,5.7199999999999225
4.374767780303955,0.8225498199462891,0.4209446609020233,5.729999999999922
4.4266157150268555,0.592315673828125,0.0596156120300293,5.739999999999922
4.454004764556885,0.46642112731933594,-0.25251567363739014,5.749999999999922
4.497888565063477,0.5141925811767578,-0.5175480246543884,5.759999999999922
4.465371608734131,0.6614313125610352,-0.6920751333236694,5.769999999999921
4.507751941680908,0.994232177734375,-0.8983583450317383,5.779999999999921
4.553933620452881,1.4311857223510742,-1.1707301139831543,5.789999999999921
4.606875419616699,2.0750808715820312,-1.3762085437774658,5.799999999999921
4.61211633682251,2.8755712509155273,-1.3577063083648682,5.809999999999921
4.764342784881592,3.6557416915893555,-0.9311036467552185,5.81999999999992
5.131490707397461,4.454139709472656,-0.22992825508117676,5.82999999999992
5.5065765380859375,5.249449729919434,0.6720597743988037,5.83999999999992
5.7741379737854,5.989276885986328,1.6719896793365479,5.84999999999992
6.08956241607666,6.65471076965332,2.524867296218872,5.8599999999999195
4.63885498046875,7.195413589477539,2.8792176246643066,5.869999999999919
1.1864264011383057,7.041983604431152,2.9448328018188477,5.879999999999919
-0.9771183133125305,6.20723819732666,2.814347982406616,5.889999999999919
-2.3569273948669434,5.134762763977051,2.653841257095337,5.899999999999919
-3.2963476181030273,4.016661643981934,2.6293258666992188,5.909999999999918
-3.918147325515747,3.08780574798584,2.6202893257141113,5.919999999999918
-4.278045177459717,2.496610641479492,2.4272518157958984,5.929999999999918
-4.489409446716309,2.1449317932128906,2.0897274017333984,5.939999999999918
-4.436193466186523,1.9179391860961914,1.6326688528060913,5.949999999999918
-4.315851211547852,1.753488540649414,1.2292354106903076,5.959999999999917
-4.094374179840088,1.6324748992919922,0.9306886196136475,5.969999999999917
-3.8771705627441406,1.4687891006469727,0.7287189364433289,5.979999999999917
-3.741649866104126,1.2671403884887695,0.604030966758728,5.989999999999917
-3.5525453090667725,1.0105295181274414,0.49500298500061035,5.9999999999999165
-3.2961738109588623,0.6722803115844727,0.33748745918273926,6.009999999999916
-3.030656099319458,0.3858671188354492,0.04789376258850098,6.019999999999916
-2.7662415504455566,0.13869571685791016,-0.2544604539871216,6.029999999999916
-2.5323967933654785,0.052115440368652344,-0.6614505052566528,6.039999999999916
-2.353907346725464,-0.029882431030273438,-1.0746017694473267,6.0499999999999154
-2.1431050300598145,-0.004557609558105469,-1.5668318271636963,6.059999999999915
-2.03228497505188,-0.020033836364746094,-2.119046688079834,6.069999999999915
-1.696087121963501,-0.0041484832763671875,-2.6811721324920654,6.079999999999915
-1.32333242893219,-0.0092010498046875,-3.0950491428375244,6.089999999999915
-1.0642828941345215,-0.006051063537597656,-3.4346835613250732,6.099999999999914
-0.7728025913238525,-0.013461112976074219,-3.6132612228393555,6.109999999999914
-0.4801390469074249,0.07169151306152344,-3.5744857788085938,6.119999999999914
-0.08413058519363403,0.21593475341796875,-3.191821813583374,6.129999999999914
0.287323534488678,0.32346439361572266,-2.3929169178009033,6.1399999999999135
0.566727340221405,0.5089073181152344,-1.4424095153808594,6.149999999999913
0.7875862121582031,0.7790384292602539,-0.49210262298583984,6.159999999999913
0.8567162156105042,1.1284046173095703,0.5318679809570312,6.169999999999913
0.8946167826652527,1.5012989044189453,1.4470760822296143,6.179999999999913
0.7899709343910217,1.727508544921875,2.0559792518615723,6.1899999999999125
0.5008825063705444,1.8787546157836914,2.2536861896514893,6.199999999999912
0.15760326385498047,1.928884506225586,2.109178066253662,6.209999999999912
-0.26554495096206665,1.6915836334228516,1.7751526832580566,6.219999999999912
-0.5886663794517517,1.473388671875,1.2246983051300049,6.229999999999912
-0.8498207330703735,1.1954832077026367,0.6056084632873535,6.239999999999911
-1.0680139064788818,0.8914690017700195,-0.03706979751586914,6.249999999999911
-1.1860240697860718,0.5588960647583008,-0.626706600189209,6.259999999999911
-1.3163896799087524,0.1185293197631836,-1.0215106010437012,6.269999999999911
-1.3564993143081665,-0.2146139144897461,-1.3501203060150146,6.2799999999999105
-1.4453520774841309,-0.5796480178833008,-1.5976641178131104,6.28999999999991
-1.4465121030807495,-0.9672117233276367,-1.8642982244491577,6.29999999999991
-1.3787522315979004,-1.2555146217346191,-2.1643199920654297,6.30999999999991
-1.3659764528274536,-1.5403857231140137,-2.526688814163208,6.31999999999991
-1.3906630277633667,-1.7620749473571777,-2.875302791595459,6.3299999999999095
-1.5456205606460571,-1.9850850105285645,-3.146352767944336,6.339999999999909
-1.600635290145874,-2.1351070404052734,-3.474709987640381,6.349999999999909
-1.7733392715454102,-2.2765417098999023,-3.798950433731079,6.359999999999909
-2.028172492980957,-2.4329304695129395,-4.07210111618042,6.369999999999909
-2.263150453567505,-2.5798959732055664,-4.278208255767822,6.379999999999908
-2.5649116039276123,-2.750596046447754,-4.355777740478516,6.389999999999908
-2.8000810146331787,-2.722466468811035,-4.343338966369629,6.399999999999908
-3.0434625148773193,-2.6510820388793945,-4.272029876708984,6.409999999999908
-3.195000171661377,-2.51023530960083,-4.1177287101745605,6.419999999999908
-3.3077099323272705,-2.295318603515625,-3.8945281505584717,6.429999999999907
-3.364844560623169,-2.1261706352233887,-3.5829670429229736,6.439999999999907
-3.373208522796631,-2.0030980110168457,-3.1897048950195312,6.449999999999907
-3.329793930053711,-1.943303108215332,-2.7139992713928223,6.459999999999907
-3.198366641998291,-2.0118565559387207,-2.1715941429138184,6.4699999999999065
-3.0116615295410156,-2.003734588623047,-1.6019341945648193,6.479999999999906
-2.6903929710388184,-2.137291431427002,-0.9870829582214355,6.489999999999906
-2.3950276374816895,-2.2909083366394043,-0.47420310974121094,6.499999999999906
-2.2314705848693848,-2.589141845703125,-0.06943821907043457,6.509999999999906
-2.0761353969573975,-2.936234951019287,0.21602964401245117,6.519999999999905
-1.9107344150543213,-3.250833034515381,0.406782865524292,6.529999999999905
-1.77418851852417,-3.5758509635925293,0.48630285263061523,6.539999999999905
-1.7292320728302002,-3.7437281608581543,0.4763762950897217,6.549999999999905
-1.7540440559387207,-4.120163440704346,0.3836972713470459,6.559999999999905
-1.8406223058700562,-4.711650371551514,0.21210289001464844,6.569999999999904
-1.9523646831512451,-5.144659042358398,0.0854341983795166,6.579999999999904
-2.0573620796203613,-5.218455791473389,0.029691457748413086,6.589999999999904
-2.0489137172698975,-5.736751556396484,-0.03249621391296387,6.599999999999904
-2.107478618621826,-6.022248268127441,-0.0035893917083740234,6.6099999999999035
-2.14768648147583,-6.38124942779541,0.09183955192565918,6.619999999999903
-2.1512465476989746,-6.5935258865356445,0.26964378356933594,6.629999999999903
-2.181539297103882,-6.625678539276123,0.5316774845123291,6.639999999999903
-2.2065160274505615,-6.4561944007873535,0.8295142650604248,6.649999999999903
-2.204371452331543,-5.948642253875732,1.0047121047973633,6.659999999999902
-2.1826279163360596,-5.176982402801514,1.0207440853118896,6.669999999999902
-2.0824389457702637,-4.097683429718018,0.8286552429199219,6.679999999999902
-1.7952518463134766,-2.6742911338806152,0.4412195682525635,6.689999999999902
-1.3372782468795776,-1.0162582397460938,0.0048389434814453125,6.699999999999902
-0.8019382357597351,0.869847297668457,-0.2959318161010742,6.709999999999901
-0.2785819172859192,2.814769744873047,-0.46550655364990234,6.719999999999901
0.20784950256347656,4.95306396484375,-0.5158226490020752,6.729999999999901
0.7779982686042786,7.026927947998047,-0.39700114727020264,6.739999999999901
1.2483289241790771,9.101508140563965,-0.035032033920288086,6.7499999999999005
1.6191024780273438,11.105298042297363,0.7622084617614746,6.7599999999999
1.9692689180374146,12.66511058807373,2.059741258621216,6.7699999999999
2.4434702396392822,13.087063789367676,4.188783168792725,6.7799999999999
2.9558653831481934,11.431425094604492,6.254763603210449,6.7899999999999
3.3961637020111084,8.509772300720215,7.8734636306762695,6.7999999999998995
3.743380069732666,5.713814735412598,8.91647720336914,6.809999999999899
3.983158826828003,3.7380170822143555,9.376324653625488,6.819999999999899
4.179612159729004,2.5926599502563477,8.987403869628906,6.829999999999899
4.161512851715088,2.1787147521972656,7.742405891418457,6.839999999999899
3.9196889400482178,2.1729440689086914,6.036476135253906,6.849999999999898
3.5767147541046143,2.3122081756591797,4.328784942626953,6.859999999999898
3.0059266090393066,2.505643844604492,2.739152669906616,6.869999999999898
2.111319065093994,2.6884756088256836,1.302631139755249,6.879999999999898
0.9993855953216553,2.922408103942871,0.09433746337890625,6.8899999999998975
-0.32420361042022705,3.1612367630004883,-0.8045836687088013,6.899999999999897
-1.5839455127716064,3.3731775283813477,-1.554126501083374,6.909999999999897
-2.660210609436035,3.3090639114379883,-2.211460828781128,6.919999999999897
-3.3736743927001953,2.89739990234375,-2.9068398475646973,6.929999999999897
-3.8745570182800293,2.528872489929199,-3.6656885147094727,6.9399999999998965
-4.1378865242004395,2.1591339111328125,-4.559974670410156,6.949999999999896
-4.349587917327881,1.8688249588012695,-5.268282890319824,6.959999999999896
-4.708155632019043,1.8059406280517578,-5.557089805603027,6.969999999999896
-5.109838485717773,1.876969337463379,-5.268798828125,6.979999999999896
-5.708710193634033,1.7766447067260742,-4.275511741638184,6.989999999999895
-6.142035484313965,1.0300674438476562,-2.2882726192474365,6.999999999999895
-6.298846244812012,0.1927337646484375,-0.18524372577667236,7.009999999999895
-5.8710198402404785,-0.6485595703125,1.4782081842422485,7.019999999999895
-4.637475967407227,-1.5139760971069336,2.4667882919311523,7.0299999999998946
-3.0244507789611816,-2.2460403442382812,2.413911819458008,7.039999999999894
-0.8454392552375793,-2.9835405349731445,1.3493658304214478,7.049999999999894
0.8369290828704834,-3.7118449211120605,-0.32773900032043457,7.059999999999894
1.6149557828903198,-4.346774578094482,-2.150111436843872,7.069999999999894
1.8686556816101074,-4.842426300048828,-3.8353426456451416,7.0799999999998935
1.8710970878601074,-5.255784511566162,-5.110834121704102,7.089999999999893
1.771663784980774,-5.392736434936523,-5.962198257446289,7.099999999999893
1.5538544654846191,-5.439787864685059,-6.388018608093262,7.109999999999893
1.255472183227539,-5.143550395965576,-6.446472644805908,7.119999999999893
0.9429934024810791,-4.609860420227051,-6.2198262214660645,7.129999999999892
0.5365971326828003,-3.7317070960998535,-5.796268463134766,7.139999999999892
0.08539706468582153,-2.6460933685302734,-5.206363677978516,7.149999999999892
-0.3813540041446686,-1.1526269912719727,-4.442883491516113,7.159999999999892
-0.8587830662727356,0.49218273162841797,-3.616400718688965,7.169999999999892
-1.3161685466766357,2.1038732528686523,-2.522061824798584,7.179999999999891
-1.5792186260223389,3.543581008911133,-1.1681058406829834,7.189999999999891
-1.8157447576522827,4.7704877853393555,0.7322629690170288,7.199999999999891
-1.698000431060791,5.564208030700684,3.161606788635254,7.209999999999891
-1.0910677909851074,5.695303916931152,5.046690940856934,7.2199999999998905
-0.0023810863494873047,4.861305236816406,4.7765350341796875,7.22999999999989
0.9991971850395203,3.3895483016967773,2.8296384811401367,7.23999999999989
0.9720882177352905,2.025252342224121,0.6096153855323792,7.24999999999989
1.0037719011306763,1.0030450820922852,-1.1082146167755127,7.25999999999989
1.0186653137207031,0.21985149383544922,-2.391669273376465,7.269999999999889
1.1044971942901611,-0.370086669921875,-3.1271631717681885,7.279999999999889
1.270632266998291,-0.805415153503418,-3.4364938735961914,7.289999999999889
1.2736704349517822,-1.0004634857177734,-3.3756375312805176,7.299999999999889
1.3631172180175781,-1.2379379272460938,-2.9376585483551025,7.309999999999889
1.043631672859192,-1.3888835906982422,-2.364637851715088,7.319999999999888
0.28254997730255127,-1.4033632278442383,-1.7001206874847412,7.329999999999888
-0.5472422242164612,-1.2744855880737305,-1.0860166549682617,7.339999999999888
-1.1112086772918701,-1.1722097396850586,-0.7153599262237549,7.349999999999888
-1.4576929807662964,-1.0222969055175781,-0.7224551439285278,7.3599999999998875
-1.6954213380813599,-0.8151302337646484,-0.8356854915618896,7.369999999999887
-1.8924930095672607,-0.7610874176025391,-0.9417269229888916,7.379999999999887
-1.807995080947876,-0.8264284133911133,-0.9584349393844604,7.389999999999887
-1.636501431465149,-0.905766487121582,-0.8678764700889587,7.399999999999887
-1.272882103919983,-1.0421228408813477,-0.7426083087921143,7.4099999999998865
-0.8461286425590515,-1.2737178802490234,-0.5036737322807312,7.419999999999886
-0.48028573393821716,-1.433100700378418,-0.2508440315723419,7.429999999999886
-0.18463723361492157,-1.4941082000732422,-0.08579839766025543,7.439999999999886
-0.004450850188732147,-1.5429716110229492,-0.00965040922164917,7.449999999999886
-0.08827800303697586,-1.5008153915405273,-0.01659289002418518,7.459999999999885
-0.36258652806282043,-1.3223304748535156,-0.05580209195613861,7.469999999999885
-0.5166270732879639,-1.1702756881713867,-0.16292157769203186,7.479999999999885
-0.5289664268493652,-0.9202594757080078,-0.33098575472831726,7.489999999999885
-0.423453152179718,-0.6536769866943359,-0.5556602478027344,7.4999999999998845
-0.33399075269699097,-0.44226646423339844,-0.641065239906311,7.509999999999884
-0.18882983922958374,-0.3552894592285156,-0.5948100686073303,7.519999999999884
-0.10060057044029236,-0.29694557189941406,-0.4961225688457489,7.529999999999884
-0.012032181024551392,-0.29828453063964844,-0.2850852608680725,7.539999999999884
0.14128011465072632,-0.2898902893066406,-0.12192435562610626,7.5499999999998835
0.29241448640823364,-0.3435029983520508,-0.02333841100335121,7.559999999999883
0.40305203199386597,-0.4399137496948242,0.04182858765125275,7.569999999999883
0.40118423104286194,-0.4619140625,0.08567935973405838,7.579999999999883
0.40639185905456543,-0.5339336395263672,0.08446383476257324,7.589999999999883
0.44989466667175293,-0.6511163711547852,0.08388110250234604,7.599999999999882
0.5366048812866211,-0.8349027633666992,0.11052045226097107,7.609999999999882
0.5995832085609436,-1.0110673904418945,0.1477975845336914,7.619999999999882
0.6392256021499634,-1.165236473083496,0.24850869178771973,7.629999999999882
0.7780240774154663,-1.3045539855957031,0.40557754039764404,7.6399999999998816
0.8079402446746826,-1.3381414413452148,0.635717511177063,7.649999999999881
0.8202527761459351,-1.3736839294433594,0.8600250482559204,7.659999999999881
0.8799927234649658,-1.2437410354614258,1.0472925901412964,7.669999999999881
0.9395819902420044,-1.1612768173217773,1.2428064346313477,7.679999999999881
0.9582387804985046,-1.0425224304199219,1.4200232028961182,7.6899999999998805
0.9023270606994629,-0.7823295593261719,1.4132835865020752,7.69999999999988
0.8792116045951843,-0.6176624298095703,1.3053961992263794,7.70999999999988
0.8407083749771118,-0.5413169860839844,1.0546109676361084,7.71999999999988
0.7578715682029724,-0.5724239349365234,0.8009634017944336,7.72999999999988
0.6806989908218384,-0.6750965118408203,0.6175676584243774,7.739999999999879
0.6686681509017944,-0.7274188995361328,0.565670371055603,7.749999999999879
0.7048407793045044,-0.7965192794799805,0.46969717741012573,7.759999999999879
0.6979266405105591,-0.7748785018920898,0.4321828782558441,7.769999999999879
0.8772148489952087,-0.6004667282104492,0.4416172206401825,7.779999999999879
1.0891636610031128,-0.40492916107177734,0.7265578508377075,7.789999999999878
1.4936742782592773,-0.10451984405517578,1.1448545455932617,7.799999999999878
1.9561598300933838,0.29108524322509766,1.4967389106750488,7.809999999999878
2.4374117851257324,0.7075328826904297,1.682199478149414,7.819999999999878
2.8570311069488525,1.216299057006836,1.7421119213104248,7.8299999999998775
3.3091490268707275,1.654409408569336,1.791489601135254,7.839999999999877
3.727616786956787,2.155611038208008,1.668086051940918,7.849999999999877
4.037241458892822,2.3705368041992188,1.3939926624298096,7.859999999999877
4.259232997894287,2.2898693084716797,1.0529439449310303,7.869999999999877
4.554288864135742,2.014370918273926,0.6847347617149353,7.879999999999876
4.705443859100342,1.6375484466552734,0.32149380445480347,7.889999999999876
4.87654972076416,1.3915443420410156,-0.023785293102264404,7.899999999999876
4.939446449279785,1.295492172241211,-0.1408652663230896,7.909999999999876
5.110770225524902,1.3901519775390625,-0.05538904666900635,7.919999999999876
5.133306980133057,1.6684112548828125,0.13812750577926636,7.929999999999875
5.196850299835205,2.0991363525390625,0.2489880919456482,7.939999999999875
5.148470878601074,2.6295547485351562,0.2052602767944336,7.949999999999875
4.909135341644287,3.292941093444824,0.03943842649459839,7.959999999999875
4.715286731719971,3.9096755981445312,-0.16400986909866333,7.9699999999998745
4.461058616638184,4.482110023498535,-0.36368340253829956,7.979999999999874
4.275295734405518,4.933806419372559,-0.34291139245033264,7.989999999999874
4.1795735359191895,5.15268611907959,-0.044561177492141724,7.999999999999874
4.222450256347656,5.328204154968262,0.5843672752380371,8.009999999999874
