AccX,AccY,AccZ,SampleRate
1.123572587966919,-4.402520179748535,-1.7348183393478394,0.01
1.4539116621017456,-5.341023921966553,-1.9480304718017578,0.02
1.1707206964492798,-5.325314044952393,-1.7512421607971191,0.03
0.4704853296279907,-4.88733434677124,-1.403052568435669,0.04
-0.46762073040008545,-4.112423896789551,-0.9903583526611328,0.05
-1.1025161743164062,-3.4118337631225586,-0.9151084423065186,0.060000000000000005
-1.4137533903121948,-2.8812756538391113,-0.9219655990600586,0.07
-1.6617275476455688,-2.3662238121032715,-0.8648512363433838,0.08
-1.7694687843322754,-2.09029483795166,-0.6844863891601562,0.09
-1.7784713506698608,-2.1732802391052246,-0.5118935108184814,0.09999999999999999
-1.4110525846481323,-2.513819694519043,-0.43083810806274414,0.10999999999999999
-0.8730401992797852,-2.9297637939453125,-0.19785094261169434,0.11999999999999998
-0.34958672523498535,-3.3143062591552734,0.146270751953125,0.12999999999999998
-0.027287960052490234,-3.4177370071411133,0.4861266613006592,0.13999999999999999
-0.08144211769104004,-3.3285489082336426,0.7216312885284424,0.15
-0.22014904022216797,-2.984132766723633,0.9342892169952393,0.16
-0.05363965034484863,-2.753274917602539,1.1513209342956543,0.17
0.04605686664581299,-2.6702651977539062,1.3912353515625,0.18000000000000002
-0.15941298007965088,-2.291405200958252,1.6351706981658936,0.19000000000000003
-0.3348047733306885,-1.5461945533752441,2.2539424896240234,0.20000000000000004
-0.4074227809906006,-0.7799081802368164,3.0466558933258057,0.21000000000000005
-0.5851813554763794,0.2879066467285156,3.702965497970581,0.22000000000000006
-0.8507156372070312,1.4815711975097656,4.045645713806152,0.23000000000000007
-0.9101907014846802,1.443939208984375,4.1191606521606445,0.24000000000000007
-1.8056870698928833,4.702237129211426,4.644958019256592,0.25000000000000006
-2.534048557281494,5.794339179992676,4.672022819519043,0.26000000000000006
-3.2758874893188477,4.841514587402344,4.4532318115234375,0.2700000000000001
-2.706348419189453,2.0098981857299805,3.7085959911346436,0.2800000000000001
-1.7378206253051758,-0.9170255661010742,2.7116122245788574,0.2900000000000001
-0.8994113206863403,-3.0633277893066406,2.171637773513794,0.3000000000000001
-0.7575314044952393,-2.6634254455566406,1.175386905670166,0.3100000000000001
-0.963539719581604,0.8937225341796875,-0.09708690643310547,0.3200000000000001
-1.4526602029800415,4.427814483642578,-2.7494003772735596,0.3300000000000001
-2.5332984924316406,9.200153350830078,-5.862046241760254,0.34000000000000014
-3.6060776710510254,13.310266494750977,-7.673801422119141,0.35000000000000014
-2.276233434677124,13.547613143920898,-7.5596818923950195,0.36000000000000015
-0.0804448127746582,7.0672807693481445,-2.809467077255249,0.37000000000000016
-0.6462273597717285,-3.215052604675293,2.786071538925171,0.38000000000000017
0.10147464275360107,-7.519412994384766,-0.18583250045776367,0.3900000000000002
0.4335308074951172,-9.063541412353516,-4.245847702026367,0.4000000000000002
0.20534729957580566,-7.926044464111328,-5.583066463470459,0.4100000000000002
1.8683364391326904,-4.3797502517700195,-3.944974422454834,0.4200000000000002
4.455519199371338,0.1768932342529297,-2.058715343475342,0.4300000000000002
6.475631237030029,3.901447296142578,-1.3567358255386353,0.4400000000000002
6.992844104766846,5.235080718994141,-1.0994781255722046,0.45000000000000023
5.464619159698486,4.098857879638672,-1.9195067882537842,0.46000000000000024
2.9591457843780518,0.5550022125244141,-2.9178965091705322,0.47000000000000025
0.835959792137146,-2.9919610023498535,-3.3235087394714355,0.48000000000000026
-1.7080577611923218,-5.1223978996276855,-2.9295718669891357,0.49000000000000027
-4.000179767608643,-5.364504814147949,-2.0457468032836914,0.5000000000000002
-4.588680744171143,-4.128522872924805,-0.7766960859298706,0.5100000000000002
-4.0981292724609375,-2.519193649291992,0.29759442806243896,0.5200000000000002
-2.603827953338623,-1.2700843811035156,0.5299403667449951,0.5300000000000002
-0.8735426664352417,-0.5310459136962891,0.4018411636352539,0.5400000000000003
0.21076881885528564,-0.11822509765625,-0.22902536392211914,0.5500000000000003
1.252064824104309,-0.17032527923583984,-1.2324787378311157,0.5600000000000003
1.762354850769043,-0.4308156967163086,-1.9566638469696045,0.5700000000000003
2.287479877471924,-1.1841907501220703,-2.1561014652252197,0.5800000000000003
2.428954601287842,-1.4848976135253906,-1.781843900680542,0.5900000000000003
2.3646721839904785,-1.2493829727172852,-0.7628766298294067,0.6000000000000003
2.422354221343994,-1.0815563201904297,0.11058095097541809,0.6100000000000003
2.0486578941345215,-0.5344705581665039,1.0226924419403076,0.6200000000000003
1.8017865419387817,-0.7216768264770508,1.6506227254867554,0.6300000000000003
1.0853036642074585,-0.8649969100952148,2.4679434299468994,0.6400000000000003
0.757122278213501,-1.2012901306152344,2.7182915210723877,0.6500000000000004
0.6890829801559448,-1.6346006393432617,2.4866623878479004,0.6600000000000004
0.6199572086334229,-1.4223365783691406,2.394444704055786,0.6700000000000004
0.5881450176239014,-0.8898143768310547,2.3729140758514404,0.6800000000000004
0.42139849066734314,-0.4512062072753906,2.021407127380371,0.6900000000000004
0.1818958967924118,-0.04883003234863281,1.4420390129089355,0.7000000000000004
0.002844184637069702,0.13308143615722656,0.8266536593437195,0.7100000000000004
-0.045564502477645874,0.5848550796508789,0.7062667012214661,0.7200000000000004
-0.10712084174156189,1.3199052810668945,1.1323376893997192,0.7300000000000004
-0.2258196473121643,1.8080320358276367,1.802417278289795,0.7400000000000004
-0.4258692264556885,1.8087244033813477,2.307953119277954,0.7500000000000004
-0.36329787969589233,1.4626274108886719,2.7908310890197754,0.7600000000000005
0.476161926984787,1.1526126861572266,3.045379161834717,0.7700000000000005
1.7353568077087402,1.0558290481567383,2.767284631729126,0.7800000000000005
3.0997674465179443,0.9712228775024414,2.509920597076416,0.7900000000000005
4.318289756774902,0.9634017944335938,2.0572896003723145,0.8000000000000005
4.8685431480407715,1.4923295974731445,1.0887399911880493,0.8100000000000005
4.837949275970459,2.6704225540161133,-0.07118475437164307,0.8200000000000005
3.950383186340332,4.449592590332031,-0.7134249806404114,0.8300000000000005
2.434929609298706,6.198019027709961,-1.4650981426239014,0.8400000000000005
0.6965529322624207,7.1673736572265625,-2.911463975906372,0.8500000000000005
-0.813628077507019,6.202115058898926,-3.104067802429199,0.8600000000000005
-2.1644957065582275,5.066224098205566,-2.272104024887085,0.8700000000000006
-3.4519028663635254,4.208939552307129,-1.373581051826477,0.8800000000000006
-3.786522388458252,4.410758972167969,-0.7538249492645264,0.8900000000000006
-2.9079411029815674,4.451541900634766,-0.6010212898254395,0.9000000000000006
-1.9055330753326416,3.5550594329833984,-1.4697647094726562,0.9100000000000006
-2.1558899879455566,3.2292356491088867,-3.2516751289367676,0.9200000000000006
-2.3498761653900146,3.1798553466796875,-4.076175689697266,0.9300000000000006
-2.406219482421875,3.01261043548584,-4.0524749755859375,0.9400000000000006
-2.4151079654693604,2.7076244354248047,-2.9608983993530273,0.9500000000000006
-2.453997850418091,1.9006357192993164,-2.025104522705078,0.9600000000000006
-2.1957240104675293,0.4816732406616211,-1.2644498348236084,0.9700000000000006
-1.643691897392273,-1.3430747985839844,0.5059223175048828,0.9800000000000006
-0.8775487542152405,-2.421926498413086,1.9138987064361572,0.9900000000000007
0.08543062210083008,-3.307633399963379,0.7479777336120605,1.0000000000000007
1.443650484085083,-3.872922897338867,-1.6305512189865112,1.0100000000000007
2.280611991882324,-4.1808180809021,-3.1934287548065186,1.0200000000000007
2.5026192665100098,-4.5669074058532715,-3.768049716949463,1.0300000000000007
2.068166971206665,-5.260581970214844,-2.334186553955078,1.0400000000000007
1.4739832878112793,-5.245100021362305,-1.583167314529419,1.0500000000000007
0.48614394664764404,-5.381875514984131,-1.4915680885314941,1.0600000000000007
-0.7064121961593628,-4.820213317871094,-1.5773658752441406,1.0700000000000007
-1.3754076957702637,-4.054076671600342,-1.715409755706787,1.0800000000000007
-1.7620857954025269,-3.369058609008789,-1.7796480655670166,1.0900000000000007
-1.8239675760269165,-2.813537120819092,-1.6814560890197754,1.1000000000000008
-1.9106534719467163,-2.4711270332336426,-1.4473092555999756,1.1100000000000008
-2.006218433380127,-2.2957448959350586,-0.9997477531433105,1.1200000000000008
-1.9130128622055054,-2.255061149597168,-0.699493408203125,1.1300000000000008
-1.6928672790527344,-2.334418773651123,-0.3678431510925293,1.1400000000000008
-1.3505420684814453,-2.467747211456299,0.0458219051361084,1.1500000000000008
-0.8642107248306274,-2.6534337997436523,0.5825560092926025,1.1600000000000008
-0.22233760356903076,-2.755521297454834,0.9720048904418945,1.1700000000000008
0.3345496654510498,-2.6926474571228027,1.1419289112091064,1.1800000000000008
0.42118585109710693,-2.3085832595825195,1.0474791526794434,1.1900000000000008
0.35272884368896484,-1.6707806587219238,1.0529398918151855,1.2000000000000008
0.26873159408569336,-0.9232368469238281,1.4223380088806152,1.2100000000000009
0.12224936485290527,0.055449485778808594,1.9952540397644043,1.2200000000000009
0.11993539333343506,0.9219675064086914,2.6085288524627686,1.2300000000000009
0.07427573204040527,2.304922103881836,3.168813705444336,1.2400000000000009
-0.1703481674194336,3.694814682006836,3.6433322429656982,1.2500000000000009
-0.7939393520355225,4.7744598388671875,3.668471336364746,1.260000000000001
-2.0524535179138184,4.547604560852051,3.426266670227051,1.270000000000001
-3.0875797271728516,3.071995735168457,3.8559298515319824,1.280000000000001
-3.8115618228912354,1.3735771179199219,4.011990547180176,1.290000000000001
-3.9181032180786133,-0.31073951721191406,2.477977991104126,1.300000000000001
-2.7106986045837402,-0.1539602279663086,0.28415870666503906,1.310000000000001
-2.0736799240112305,2.744797706604004,-1.263787031173706,1.320000000000001
-2.2046117782592773,7.15507698059082,-2.227558135986328,1.330000000000001
-2.5023081302642822,12.087442398071289,-3.827657699584961,1.340000000000001
-3.4449501037597656,13.200677871704102,-5.627447128295898,1.350000000000001
-1.9440326690673828,9.133539199829102,-6.4836015701293945,1.360000000000001
1.1802830696105957,0.7739858627319336,-3.2179744243621826,1.370000000000001
2.044726848602295,-5.70149040222168,-1.1611249446868896,1.380000000000001
1.4789923429489136,-8.313780784606934,-2.929007053375244,1.390000000000001
1.1894055604934692,-7.439112663269043,-3.9681386947631836,1.400000000000001
1.5130975246429443,-5.547311305999756,-4.283703804016113,1.410000000000001
1.6965751647949219,-2.2421422004699707,-3.150862693786621,1.420000000000001
2.798577308654785,1.4672136306762695,-1.8572620153427124,1.430000000000001
3.960071086883545,4.704949378967285,-0.8581511974334717,1.440000000000001
4.670654296875,6.921858787536621,-0.3955252170562744,1.450000000000001
3.775815963745117,6.268832206726074,-0.7748796939849854,1.460000000000001
2.1152026653289795,2.8047685623168945,-1.7148960828781128,1.470000000000001
0.7787180542945862,-1.8961811065673828,-3.2140605449676514,1.480000000000001
0.146685391664505,-5.759634017944336,-4.553592681884766,1.490000000000001
-0.21584391593933105,-7.772447109222412,-4.533369064331055,1.500000000000001
-1.027542233467102,-7.333338737487793,-3.220141649246216,1.5100000000000011
-2.4192254543304443,-3.868292808532715,-1.1480588912963867,1.5200000000000011
-2.7719192504882812,-0.8024101257324219,-0.3410555124282837,1.5300000000000011
-1.8774528503417969,1.3817110061645508,-0.23140430450439453,1.5400000000000011
-0.6245148181915283,2.079442024230957,-0.38075006008148193,1.5500000000000012
0.1749880015850067,1.7142524719238281,-0.7726693153381348,1.5600000000000012
0.7515129446983337,0.33757877349853516,-1.3919010162353516,1.5700000000000012
1.0645935535430908,-1.5492620468139648,-1.5548187494277954,1.5800000000000012
1.177608609199524,-2.4010863304138184,-1.3662883043289185,1.5900000000000012
1.3619154691696167,-2.598055362701416,-0.7230719923973083,1.6000000000000012
1.6342629194259644,-2.188326835632324,-0.035101890563964844,1.6100000000000012
1.9602267742156982,-1.5653533935546875,0.5821396708488464,1.6200000000000012
2.092942953109741,-0.9548654556274414,0.6525150537490845,1.6300000000000012
2.3837454319000244,-0.8863115310668945,-0.3119244873523712,1.6400000000000012
2.1996078491210938,-0.7084426879882812,-1.046208143234253,1.6500000000000012
1.9874577522277832,-0.3730154037475586,-1.0431530475616455,1.6600000000000013
1.757115125656128,-0.17411327362060547,0.28947731852531433,1.6700000000000013
1.1770800352096558,-0.25794029235839844,2.1258199214935303,1.6800000000000013
0.46715354919433594,-0.6511631011962891,3.0274500846862793,1.6900000000000013
-0.17551079392433167,-1.195840835571289,2.3739564418792725,1.7000000000000013
-0.5105518102645874,-1.3026180267333984,1.4112181663513184,1.7100000000000013
-0.6755679845809937,-0.9737052917480469,0.6190118193626404,1.7200000000000013
-0.4510807991027832,-0.11339950561523438,1.0711110830307007,1.7300000000000013
0.16468708217144012,0.9737424850463867,2.573678731918335,1.7400000000000013
0.6213922500610352,1.8079681396484375,2.930568218231201,1.7500000000000013
0.5826945900917053,2.517876625061035,1.7515836954116821,1.7600000000000013
0.47672781348228455,3.0499324798583984,1.054414987564087,1.7700000000000014
0.6179459691047668,3.259036064147949,1.5832388401031494,1.7800000000000014
1.2433266639709473,2.873387336730957,3.029529094696045,1.7900000000000014
1.8845371007919312,2.2924365997314453,4.14011812210083,1.8000000000000014
2.443422555923462,1.9664134979248047,4.171895980834961,1.8100000000000014
3.0784435272216797,1.7969512939453125,3.4074606895446777,1.8200000000000014
3.1993634700775146,1.7960586547851562,2.0244524478912354,1.8300000000000014
3.2362334728240967,1.787114143371582,1.9412522315979004,1.8400000000000014
2.0493037700653076,2.4359893798828125,-0.41640520095825195,1.8500000000000014
1.3517378568649292,2.427281379699707,-1.192722201347351,1.8600000000000014
0.7385352253913879,2.310819625854492,-2.8891396522521973,1.8700000000000014
-0.22796249389648438,2.274294853210449,-3.690096855163574,1.8800000000000014
-1.3755885362625122,2.3181028366088867,-1.7788517475128174,1.8900000000000015
-2.5057806968688965,3.5077333450317383,0.6834008693695068,1.9000000000000015
-1.2708920240402222,5.19798469543457,0.07668694853782654,1.9100000000000015
0.06901919841766357,6.0615339279174805,-0.408552885055542,1.9200000000000015
0.17955219745635986,6.254803657531738,-1.0084619522094727,1.9300000000000015
-0.8331465125083923,5.445401191711426,-2.500025510787964,1.9400000000000015
-2.504976511001587,4.596758842468262,-3.6329236030578613,1.9500000000000015
-3.6839280128479004,3.955913543701172,-4.023098945617676,1.9600000000000015
-3.4612269401550293,3.245295524597168,-3.786100387573242,1.9700000000000015
-3.3402438163757324,1.8460817337036133,-3.118497848510742,1.9800000000000015
-3.3231701850891113,-0.0705718994140625,-2.488823890686035,1.9900000000000015
-2.929419755935669,-1.7557616233825684,-0.526880145072937,2.0000000000000013
-2.1086552143096924,-2.5691089630126953,1.6869785785675049,2.010000000000001
-1.1264452934265137,-2.8015151023864746,1.4042551517486572,2.020000000000001
0.14659273624420166,-3.01096248626709,-0.40889477729797363,2.0300000000000007
1.513182282447815,-3.861543655395508,-2.0830142498016357,2.0400000000000005
2.1301791667938232,-4.495304107666016,-3.050708770751953,2.0500000000000003
2.0788278579711914,-5.636855125427246,-2.912757635116577,2.06
1.462455153465271,-5.980807304382324,-2.4905545711517334,2.07
0.98697429895401,-6.016847133636475,-1.899211049079895,2.0799999999999996
-0.09210491180419922,-5.09656286239624,-1.1194758415222168,2.0899999999999994
-0.75554358959198,-4.482073783874512,-1.0300054550170898,2.099999999999999
-1.2318295240402222,-3.9426937103271484,-1.3205068111419678,2.109999999999999
-1.7091442346572876,-3.217212677001953,-1.71195387840271,2.1199999999999988
-1.7831389904022217,-2.71077299118042,-1.83551025390625,2.1299999999999986
-1.6995196342468262,-2.269394874572754,-1.6352009773254395,2.1399999999999983
-1.491136074066162,-2.013904571533203,-0.9780762195587158,2.149999999999998
-1.2432464361190796,-2.0733046531677246,-0.09467649459838867,2.159999999999998
-1.0078462362289429,-2.3807458877563477,0.7536482810974121,2.1699999999999977
-0.692984938621521,-2.852159023284912,1.5923848152160645,2.1799999999999975
-0.48880040645599365,-3.1078710556030273,2.1600918769836426,2.1899999999999973
-0.22118234634399414,-3.1826024055480957,2.174800395965576,2.199999999999997
-0.3035944700241089,-2.633204460144043,1.7876276969909668,2.209999999999997
0.04645216464996338,-1.5281753540039062,1.8265798091888428,2.2199999999999966
1.1843321323394775,0.11767864227294922,2.459507703781128,2.2299999999999964
2.092412233352661,2.3015871047973633,3.5684304237365723,2.239999999999996
1.5303950309753418,3.8564367294311523,4.741448402404785,2.249999999999996
1.4938948154449463,3.8435773849487305,4.758052825927734,2.259999999999996
-3.7013373374938965,7.004380226135254,3.018263578414917,2.2699999999999956
-6.4506378173828125,6.891360282897949,2.3839521408081055,2.2799999999999954
-5.333375930786133,3.3434295654296875,3.2125134468078613,2.289999999999995
-3.6719613075256348,-1.4596233367919922,4.055228233337402,2.299999999999995
-1.6161633729934692,-4.892609119415283,3.0001370906829834,2.3099999999999947
0.5660395622253418,-6.534247398376465,0.3263556957244873,2.3199999999999945
0.466933012008667,-2.524993419647217,-0.2302570343017578,2.3299999999999943
-0.03061699867248535,3.124476432800293,-2.4834535121917725,2.339999999999994
-0.32079458236694336,9.54200553894043,-7.493504047393799,2.349999999999994
-2.1965794563293457,15.864646911621094,-8.889908790588379,2.3599999999999937
-2.328456163406372,17.3794002532959,-7.355535507202148,2.3699999999999934
-1.0203412771224976,9.056695938110352,-2.271260976791382,2.3799999999999932
-0.3580152988433838,-1.3518180847167969,4.061298370361328,2.389999999999993
0.6392221450805664,-7.096970558166504,0.3517167568206787,2.399999999999993
1.5672346353530884,-9.375274658203125,-4.88808536529541,2.4099999999999926
1.8263800144195557,-7.644466400146484,-5.660347938537598,2.4199999999999924
2.9213404655456543,-3.406191825866699,-2.941816806793213,2.429999999999992
4.175681114196777,0.3726358413696289,-1.4432097673416138,2.439999999999992
5.317234516143799,3.234677314758301,-0.7451541423797607,2.4499999999999917
5.014900207519531,4.694759368896484,-1.1421854496002197,2.4599999999999915
3.8850302696228027,4.047928810119629,-2.305084705352783,2.4699999999999913
1.6326539516448975,0.6470775604248047,-4.218738555908203,2.479999999999991
0.15044516324996948,-2.113043785095215,-4.207952499389648,2.489999999999991
-1.6750428676605225,-3.9980392456054688,-2.7621641159057617,2.4999999999999907
-3.2046806812286377,-4.632422924041748,-1.2649099826812744,2.5099999999999905
-3.734334945678711,-4.213679313659668,-0.31561923027038574,2.5199999999999902
-3.31843900680542,-3.4980077743530273,-0.047568559646606445,2.52999999999999
-2.0774331092834473,-2.7505602836608887,-0.13841843605041504,2.53999999999999
-1.196704626083374,-2.0285840034484863,-0.39722931385040283,2.5499999999999896
0.03098827600479126,-1.1930608749389648,-1.0894056558609009,2.5599999999999894
1.1130952835083008,-0.9196538925170898,-1.8957828283309937,2.569999999999989
1.919795036315918,-0.9495115280151367,-2.301753520965576,2.579999999999989
2.2842323780059814,-1.1723871231079102,-2.19046950340271,2.5899999999999888
2.123652696609497,-1.2627925872802734,-1.25188148021698,2.5999999999999885
2.1843905448913574,-1.4961910247802734,-0.31904488801956177,2.6099999999999883
2.1870882511138916,-1.5259027481079102,0.7801052331924438,2.619999999999988
2.442641258239746,-2.0300025939941406,1.7313436269760132,2.629999999999988
2.2994627952575684,-2.070232391357422,1.8853354454040527,2.6399999999999877
2.26769757270813,-1.5868701934814453,1.7211376428604126,2.6499999999999875
2.1356539726257324,-0.7283506393432617,1.6908235549926758,2.6599999999999873
1.7698973417282104,-0.2370128631591797,2.307196855545044,2.669999999999987
0.9908777475357056,-0.23765277862548828,2.844978094100952,2.679999999999987
0.38208305835723877,-0.6055574417114258,2.5301523208618164,2.6899999999999866
-0.2205427587032318,-0.5117654800415039,1.9002116918563843,2.6999999999999864
-0.4816782772541046,0.02478790283203125,1.684513807296753,2.709999999999986
-0.3153001368045807,0.7908287048339844,1.8575525283813477,2.719999999999986
-0.036416709423065186,1.2112579345703125,2.0824313163757324,2.7299999999999858
0.2011551856994629,1.9602527618408203,2.2137365341186523,2.7399999999999856
0.6912428736686707,2.713578224182129,2.6806411743164062,2.7499999999999853
1.635416030883789,2.8383092880249023,3.1518750190734863,2.759999999999985
2.7163355350494385,2.430023193359375,2.7922048568725586,2.769999999999985
3.245934009552002,1.8259735107421875,2.1514830589294434,2.7799999999999847
3.497103452682495,1.8363847732543945,1.9370896816253662,2.7899999999999845
3.780212879180908,2.620532989501953,1.0918660163879395,2.7999999999999843
3.6263985633850098,3.9080991744995117,-0.14869225025177002,2.809999999999984
2.5749258995056152,5.873871803283691,-0.9471906423568726,2.819999999999984
2.101250171661377,7.033669471740723,-2.056199073791504,2.8299999999999836
2.0219805240631104,6.674312591552734,-3.7983551025390625,2.8399999999999834
1.9262042045593262,5.765843391418457,-4.14377498626709,2.849999999999983
0.33580470085144043,5.217012405395508,-3.227721929550171,2.859999999999983
-2.3977036476135254,4.980081558227539,-1.0952441692352295,2.869999999999983
-4.977157115936279,4.547562599182129,0.014905821532011032,2.8799999999999826
-5.454070091247559,3.669003486633301,-0.7194061875343323,2.8899999999999824
-4.89385461807251,3.537825584411621,-2.4897594451904297,2.899999999999982
-4.01483678817749,3.627910614013672,-2.5614421367645264,2.909999999999982
-3.1726880073547363,3.436281204223633,-2.0184855461120605,2.9199999999999817
-2.525357723236084,2.994047164916992,-2.3393123149871826,2.9299999999999815
-1.6215581893920898,2.6024417877197266,-3.155308723449707,2.9399999999999813
-1.3182215690612793,1.7991647720336914,-3.3916711807250977,2.949999999999981
-1.3798669576644897,0.6186151504516602,-2.586463689804077,2.959999999999981
-1.3234480619430542,-0.5449161529541016,-1.1544936895370483,2.9699999999999807
-1.0740764141082764,-2.1071577072143555,1.2006783485412598,2.9799999999999804
-0.5620550513267517,-3.423542022705078,1.3602755069732666,2.9899999999999802
0.3710753321647644,-3.8290281295776367,-0.20415687561035156,2.99999999999998
0.9956074953079224,-3.9649362564086914,-2.0128183364868164,3.00999999999998
1.0582696199417114,-4.814212322235107,-2.580227851867676,3.0199999999999796
1.2678089141845703,-5.3122758865356445,-2.027374267578125,3.0299999999999794
1.34681236743927,-5.591179370880127,-1.7079485654830933,3.039999999999979
1.4457229375839233,-6.157124996185303,-1.3776724338531494,3.049999999999979
1.1303421258926392,-5.854994297027588,-1.537684679031372,3.0599999999999787
0.2729520797729492,-5.012804985046387,-1.8100922107696533,3.0699999999999785
-0.4729560613632202,-4.0298638343811035,-2.0423378944396973,3.0799999999999783
-0.8478585481643677,-3.4773106575012207,-1.9688336849212646,3.089999999999978
-1.179383635520935,-3.10147762298584,-1.8366997241973877,3.099999999999978
-1.0762125253677368,-3.078709602355957,-1.8427913188934326,3.1099999999999777
-1.6090307235717773,-3.136350154876709,-1.3081166744232178,3.1199999999999775
-1.39811372756958,-3.4339208602905273,-0.8795158863067627,3.1299999999999772
-0.8743137121200562,-3.7886223793029785,-0.333510160446167,3.139999999999977
-0.5334764719009399,-4.053037643432617,0.4421052932739258,3.149999999999977
-0.24818027019500732,-4.283480644226074,1.6993465423583984,3.1599999999999766
0.02031707763671875,-4.002668380737305,2.666193723678589,3.1699999999999764
-0.09153556823730469,-3.053314685821533,3.071904420852661,3.179999999999976
-0.35732996463775635,-1.6527013778686523,2.9120376110076904,3.189999999999976
-0.5737485885620117,0.36298465728759766,2.3024983406066895,3.1999999999999758
-0.36420392990112305,1.8794231414794922,1.0842432975769043,3.2099999999999755
-0.022662997245788574,3.9424514770507812,0.2199876308441162,3.2199999999999753
-0.04938304424285889,3.9188737869262695,0.27100586891174316,3.229999999999975
-1.8308238983154297,9.615697860717773,4.301173210144043,3.239999999999975
-3.5850439071655273,10.078293800354004,5.921204566955566,3.2499999999999747
-3.870948314666748,5.238905906677246,6.687849998474121,3.2599999999999745
-3.8644051551818848,0.5478496551513672,5.825157165527344,3.2699999999999743
-3.1971592903137207,-4.007085800170898,2.3857791423797607,3.279999999999974
-0.8595070838928223,-6.302485466003418,-1.884909749031067,3.289999999999974
0.35850679874420166,-2.6977243423461914,-3.35184383392334,3.2999999999999736
-1.325386643409729,4.429473876953125,-5.0638556480407715,3.3099999999999734
-1.9798736572265625,11.945606231689453,-9.388740539550781,3.319999999999973
-2.3420209884643555,15.637312889099121,-9.48458480834961,3.329999999999973
0.3792729377746582,15.940348625183105,-5.742103576660156,3.3399999999999728
2.8570876121520996,7.376985549926758,2.974940776824951,3.3499999999999726
1.8606371879577637,-2.186612606048584,4.031263828277588,3.3599999999999723
1.5716639757156372,-6.984758377075195,-2.940671682357788,3.369999999999972
1.5549044609069824,-8.306849479675293,-8.013574600219727,3.379999999999972
1.2606258392333984,-6.366116523742676,-6.795462608337402,3.3899999999999717
1.5947611331939697,-2.3453240394592285,-2.880566120147705,3.3999999999999715
2.6831376552581787,0.991541862487793,-0.9630658626556396,3.4099999999999713
2.6191494464874268,0.9371681213378906,-0.8394477367401123,3.419999999999971
4.014993190765381,4.191763877868652,-1.4090538024902344,3.429999999999971
3.1529958248138428,3.6807212829589844,-2.5841827392578125,3.4399999999999706
1.6883032321929932,1.6275854110717773,-3.084819793701172,3.4499999999999704
-0.2536706328392029,-1.6434907913208008,-2.188159465789795,3.45999999999997
-0.9874175786972046,-4.160482406616211,-1.6634502410888672,3.46999999999997
-1.495465874671936,-5.446346759796143,-1.329944133758545,3.47999999999997
-2.287126064300537,-5.465917587280273,-1.296500563621521,3.4899999999999696
-3.2384679317474365,-4.074697017669678,-1.2850608825683594,3.4999999999999694
-2.8819520473480225,-2.7757978439331055,-1.0604329109191895,3.509999999999969
-1.5403344631195068,-1.6635856628417969,-1.0845363140106201,3.519999999999969
-0.12945979833602905,-0.634272575378418,-1.441502332687378,3.5299999999999687
1.3816663026809692,-0.4882087707519531,-1.6220828294754028,3.5399999999999685
2.07210636138916,-0.9959201812744141,-1.530216932296753,3.5499999999999683
2.1298227310180664,-1.7136764526367188,-1.3173699378967285,3.559999999999968
1.9730263948440552,-2.0427141189575195,-0.8556051254272461,3.569999999999968
1.7128723859786987,-1.8970818519592285,-0.08579891920089722,3.5799999999999677
1.5863680839538574,-1.4683704376220703,0.7717146873474121,3.5899999999999674
1.619896411895752,-1.3505792617797852,1.3568499088287354,3.5999999999999672
1.6943082809448242,-1.6158227920532227,1.6561737060546875,3.609999999999967
1.6376140117645264,-1.7495536804199219,1.4327789545059204,3.619999999999967
1.6778275966644287,-1.4883232116699219,1.257310390472412,3.6299999999999666
1.6021761894226074,-0.7625980377197266,1.5122835636138916,3.6399999999999664
1.3294590711593628,-0.2047710418701172,2.0003812313079834,3.649999999999966
0.6715554594993591,0.07953548431396484,1.982598066329956,3.659999999999966
0.010276347398757935,0.16965389251708984,1.8029415607452393,3.6699999999999657
-0.29108309745788574,0.2836599349975586,2.290306806564331,3.6799999999999655
-0.06323593854904175,0.5958070755004883,3.164280891418457,3.6899999999999653
0.5359709858894348,1.2035207748413086,3.74806809425354,3.699999999999965
0.9539544582366943,1.837808609008789,3.1443281173706055,3.709999999999965
1.3632944822311401,2.5625181198120117,2.446277618408203,3.7199999999999647
2.0764307975769043,2.739673614501953,1.8304369449615479,3.7299999999999645
2.9517605304718018,2.2942981719970703,1.292853593826294,3.7399999999999642
3.117145299911499,1.8506879806518555,1.7215290069580078,3.749999999999964
2.6290860176086426,1.501307487487793,2.6539440155029297,3.759999999999964
2.1238808631896973,1.3471336364746094,2.544440984725952,3.7699999999999636
2.149752140045166,1.343613624572754,2.502357244491577,3.7799999999999634
1.1476097106933594,1.9245786666870117,-1.2979557514190674,3.789999999999963
0.6276220083236694,3.4051456451416016,-2.306040048599243,3.799999999999963
0.055663228034973145,4.595725059509277,-3.1338648796081543,3.8099999999999627
-0.4494272470474243,4.836463928222656,-3.4131813049316406,3.8199999999999625
-0.8568850159645081,4.109112739562988,-1.312261939048767,3.8299999999999623
-1.5911681652069092,4.09523868560791,0.5482344627380371,3.839999999999962
-1.5580785274505615,4.811753273010254,0.11716260015964508,3.849999999999962
-1.082016110420227,5.945918083190918,-0.8590907454490662,3.8599999999999617
-0.9149450063705444,7.17302131652832,-2.032201051712036,3.8699999999999615
-0.675971269607544,7.515291213989258,-4.012866497039795,3.8799999999999613
-1.1927130222320557,7.179839134216309,-5.493664741516113,3.889999999999961
-1.8162777423858643,6.241318702697754,-5.862363815307617,3.899999999999961
-1.9092988967895508,6.261672019958496,-6.078386306762695,3.9099999999999606
-3.4207205772399902,3.21533203125,-3.941693067550659,3.9199999999999604
-3.8339152336120605,1.2646703720092773,-3.292984962463379,3.92999999999996
-3.731977939605713,-1.08099365234375,-2.5336122512817383,3.93999999999996
-3.290282964706421,-3.1524734497070312,0.6962771415710449,3.9499999999999598
-2.1931638717651367,-4.2501139640808105,4.546988487243652,3.9599999999999596
-0.6524430513381958,-4.284599304199219,2.732027769088745,3.9699999999999593
-0.5948980450630188,-4.213610649108887,2.5233118534088135,3.979999999999959
1.6399555206298828,-2.5340304374694824,-3.563356876373291,3.989999999999959
2.4295897483825684,-2.75960111618042,-4.50531005859375,3.9999999999999587
2.64923357963562,-3.9733328819274902,-3.6825942993164062,4.009999999999959
2.779698371887207,-5.256776332855225,-2.1180973052978516,4.019999999999959
2.6425364017486572,-6.127934455871582,-0.9698505401611328,4.0299999999999585
1.8230173587799072,-6.115452289581299,-1.7088708877563477,4.039999999999958
0.6940066814422607,-5.512847900390625,-2.3958938121795654,4.049999999999958
-0.5180424451828003,-5.2316508293151855,-2.242826461791992,4.059999999999958
-0.3994123935699463,-5.192190647125244,-2.281126022338867,4.069999999999958
-1.6985042095184326,-5.010248184204102,-1.23884916305542,4.079999999999957
-2.1482467651367188,-4.237708568572998,-1.5792925357818604,4.089999999999957
-1.733914852142334,-4.117455005645752,-1.1022396087646484,4.099999999999957
-1.2114167213439941,-4.248549938201904,-1.1031725406646729,4.109999999999957
-1.0184342861175537,-3.1947412490844727,-0.021656513214111328,4.119999999999957
-0.4137725830078125,-2.5937891006469727,1.224947452545166,4.129999999999956
-0.29853522777557373,-2.412938117980957,2.0706779956817627,4.139999999999956
-0.4908241033554077,-2.7099170684814453,2.505256175994873,4.149999999999956
0.1741403341293335,-2.041280746459961,2.346240997314453,4.159999999999956
0.7830936908721924,-1.3861141204833984,2.3896167278289795,4.1699999999999555
0.8226403594017029,-0.17960548400878906,2.2881972789764404,4.179999999999955
0.6379871368408203,1.4434995651245117,2.4134976863861084,4.189999999999955
-0.1197824478149414,3.3196420669555664,1.8918309211730957,4.199999999999955
-1.4454319477081299,5.92976188659668,2.2347607612609863,4.209999999999955
-3.371243953704834,8.430048942565918,2.9870152473449707,4.2199999999999545
-3.9028759002685547,7.344752311706543,3.967921495437622,4.229999999999954
-3.0438199043273926,4.137509346008301,5.460699081420898,4.239999999999954
-3.102653980255127,1.1020679473876953,5.204604625701904,4.249999999999954
-2.4017586708068848,-1.8731122016906738,2.843554735183716,4.259999999999954
-0.8567113876342773,-3.4828109741210938,-0.5901753902435303,4.269999999999953
-0.8592013120651245,1.4471406936645508,-2.6916439533233643,4.279999999999953
-1.7027735710144043,7.363511085510254,-3.6524624824523926,4.289999999999953
-1.9861977100372314,15.057263374328613,-7.235004425048828,4.299999999999953
-2.373760223388672,19.184738159179688,-9.246466636657715,4.3099999999999525
0.6774095892906189,12.801468849182129,-4.53501033782959,4.319999999999952
3.600883722305298,-1.0716800689697266,3.6182703971862793,4.329999999999952
3.625936508178711,-10.63469123840332,-1.0580105781555176,4.339999999999952
1.8355488777160645,-12.45352840423584,-5.976355075836182,4.349999999999952
0.07759857177734375,-10.497296333312988,-6.851747512817383,4.3599999999999515
-0.02345287799835205,-6.414768218994141,-3.799053907394409,4.369999999999951
1.8169195652008057,-0.9148311614990234,-1.168914794921875,4.379999999999951
3.60023832321167,3.517584800720215,-0.6279048919677734,4.389999999999951
4.531581401824951,6.755941390991211,-0.39138102531433105,4.399999999999951
3.918363571166992,7.221685409545898,-1.0120162963867188,4.40999999999995
2.8396923542022705,5.111763000488281,-1.735281229019165,4.41999999999995
1.0699260234832764,0.7466182708740234,-1.962723731994629,4.42999999999995
0.33309081196784973,-3.4911084175109863,-1.5424522161483765,4.43999999999995
-0.33164793252944946,-5.945174217224121,-2.0189342498779297,4.4499999999999496
-1.413685917854309,-6.851306915283203,-1.6866161823272705,4.459999999999949
-2.9164040088653564,-6.078464508056641,-1.2042655944824219,4.469999999999949
-3.4410953521728516,-4.236008644104004,-0.8444821834564209,4.479999999999949
-2.0318655967712402,-2.389220714569092,-0.43580520153045654,4.489999999999949
-0.5821171998977661,-1.069345474243164,-0.6034847497940063,4.4999999999999485
0.35735899209976196,-0.3562908172607422,-0.6772462725639343,4.509999999999948
0.8208044171333313,-0.3439931869506836,-1.2127630710601807,4.519999999999948
1.0901672840118408,-0.9850015640258789,-1.7598596811294556,4.529999999999948
1.1645022630691528,-1.7667293548583984,-2.0824673175811768,4.539999999999948
1.1007429361343384,-2.0541892051696777,-1.6448187828063965,4.549999999999947
1.1192188262939453,-1.684377670288086,-0.3822232484817505,4.559999999999947
1.0605376958847046,-1.134063720703125,1.2736411094665527,4.569999999999947
1.2652809619903564,-1.253875732421875,2.496492624282837,4.579999999999947
1.2404118776321411,-1.412130355834961,2.296299934387207,4.589999999999947
1.1694496870040894,-1.249471664428711,1.3050966262817383,4.599999999999946
1.4966347217559814,-0.9596433639526367,0.6627336144447327,4.609999999999946
1.517967939376831,-0.6388263702392578,0.7183469533920288,4.619999999999946
0.9544391632080078,-0.38086509704589844,1.0286041498184204,4.629999999999946
0.08630406856536865,-0.14010047912597656,1.0395584106445312,4.6399999999999455
-0.5475234389305115,0.27290821075439453,1.297774076461792,4.649999999999945
-0.652245283126831,0.8314018249511719,2.397169589996338,4.659999999999945
-0.34156349301338196,1.139333724975586,3.1243133544921875,4.669999999999945
0.013223797082901001,1.3276777267456055,2.9783341884613037,4.679999999999945
0.3284948766231537,1.3597793579101562,2.4403815269470215,4.689999999999944
0.9955214262008667,1.452580451965332,2.244884967803955,4.699999999999944
1.9073331356048584,1.6026792526245117,2.265352725982666,4.709999999999944
2.7492895126342773,1.9387311935424805,2.5038838386535645,4.719999999999944
3.114899158477783,2.629648208618164,2.88220477104187,4.729999999999944
3.0814414024353027,3.0763425827026367,2.5273313522338867,4.739999999999943
3.291579246520996,3.033184051513672,0.769155740737915,4.749999999999943
3.197497844696045,3.683065414428711,-1.2372362613677979,4.759999999999943
2.9637980461120605,5.056342124938965,-2.166060209274292,4.769999999999943
2.8586504459381104,6.3379411697387695,-3.479063034057617,4.7799999999999425
2.6038732528686523,6.3777618408203125,-4.531236171722412,4.789999999999942
1.4451467990875244,5.606501579284668,-4.345311164855957,4.799999999999942
-1.2591347694396973,5.28106689453125,-3.240833044052124,4.809999999999942
-5.240451812744141,4.743917465209961,-1.3298360109329224,4.819999999999942
-6.832737445831299,4.171536445617676,-0.1748102605342865,4.8299999999999415
-6.116565704345703,3.950564384460449,-1.648728370666504,4.839999999999941
-4.612601280212402,4.545184135437012,-2.7971036434173584,4.849999999999941
-2.7932288646698,4.851737022399902,-2.369361162185669,4.859999999999941
-1.5347092151641846,4.5667219161987305,-2.179640054702759,4.869999999999941
-1.368868112564087,4.154932975769043,-3.4746081829071045,4.87999999999994
-1.4541285037994385,3.380612373352051,-4.228748321533203,4.88999999999994
-1.9881696701049805,1.9466171264648438,-4.2261061668396,4.89999999999994
-2.196885347366333,0.30150699615478516,-3.8064560890197754,4.90999999999994
-1.8450615406036377,-1.3235816955566406,-1.7305467128753662,4.9199999999999395
-1.207639455795288,-3.3701858520507812,1.5835704803466797,4.929999999999939
-0.06328529119491577,-4.212588787078857,2.7060248851776123,4.939999999999939
1.1290737390518188,-4.041182518005371,0.8715262413024902,4.949999999999939
2.1319916248321533,-3.5648179054260254,-1.426525354385376,4.959999999999939
2.401566743850708,-3.335113048553467,-2.651884078979492,4.9699999999999385
2.7553863525390625,-3.9152626991271973,-2.772902250289917,4.979999999999938
2.9569973945617676,-5.113530158996582,-1.9039182662963867,4.989999999999938
2.263890266418457,-6.046567916870117,-1.0749595165252686,4.999999999999938
1.3889001607894897,-5.978131294250488,-1.1823148727416992,5.009999999999938
1.4995123147964478,-5.899023056030273,-1.3065276145935059,5.019999999999937
-0.7948009967803955,-5.0889692306518555,-2.364398717880249,5.029999999999937
-1.5684211254119873,-4.7194366455078125,-2.6552467346191406,5.039999999999937
-1.8833978176116943,-4.375718116760254,-2.621804714202881,5.049999999999937
-2.0168464183807373,-4.0684380531311035,-2.0723516941070557,5.0599999999999365
-1.9060654640197754,-3.8713154792785645,-1.2822341918945312,5.069999999999936
-1.5775203704833984,-3.72629451751709,-0.26493406295776367,5.079999999999936
-0.9381008148193359,-3.868259906768799,0.5837173461914062,5.089999999999936
-0.38170528411865234,-4.093713760375977,0.8844118118286133,5.099999999999936
0.030777812004089355,-3.827345848083496,1.0546703338623047,5.1099999999999355
0.3698664903640747,-3.1634955406188965,1.304511547088623,5.119999999999935
0.5066055059432983,-2.458925724029541,1.7390758991241455,5.129999999999935
0.5208573341369629,-1.103348731994629,2.165731191635132,5.139999999999935
0.46972334384918213,0.6998462677001953,2.0232925415039062,5.149999999999935
0.6016756296157837,2.3952035903930664,1.0073647499084473,5.159999999999934
-0.22005081176757812,4.871578216552734,0.9278249740600586,5.169999999999934
-1.9337468147277832,7.673121452331543,2.6928915977478027,5.179999999999934
-3.20054292678833,8.990309715270996,4.11627197265625,5.189999999999934
-3.3459973335266113,6.729423522949219,5.564669609069824,5.199999999999934
-3.40934419631958,3.3025684356689453,6.141209602355957,5.209999999999933
-3.3290390968322754,-0.22215843200683594,4.401039123535156,5.219999999999933
-2.1411192417144775,-2.9306650161743164,1.1582930088043213,5.229999999999933
-1.0161737203598022,-1.9502534866333008,-1.927194356918335,5.239999999999933
-1.3646150827407837,2.7262210845947266,-2.511742115020752,5.2499999999999325
-1.754274845123291,8.868581771850586,-5.007563591003418,5.259999999999932
-2.1327712535858154,14.026174545288086,-7.801294326782227,5.269999999999932
-1.9274749755859375,16.656627655029297,-7.9070587158203125,5.279999999999932
1.1046912670135498,11.939342498779297,-3.1609647274017334,5.289999999999932
1.5173410177230835,-0.7475032806396484,2.861281156539917,5.299999999999931
0.6338686347007751,-7.167332172393799,-0.3358418941497803,5.309999999999931
0.6910042762756348,-10.03695011138916,-5.719200134277344,5.319999999999931
0.5380836129188538,-8.71825122833252,-6.541922092437744,5.329999999999931
0.7900821566581726,-4.692174911499023,-4.222887992858887,5.339999999999931
2.661198139190674,0.7405242919921875,-2.181445598602295,5.34999999999993
4.720093250274658,4.179189682006836,-1.4545369148254395,5.35999999999993
4.7873406410217285,5.079785346984863,-1.2844587564468384,5.36999999999993
3.4516446590423584,3.7625646591186523,-1.557054042816162,5.37999999999993
2.082329273223877,0.7059812545776367,-2.089881420135498,5.3899999999999295
0.700276792049408,-2.4282302856445312,-1.9620928764343262,5.399999999999929
-0.056292712688446045,-4.9298176765441895,-2.6024186611175537,5.409999999999929
-0.5882232189178467,-5.872730731964111,-2.4941205978393555,5.419999999999929
-1.8168525695800781,-5.408755779266357,-1.2626185417175293,5.429999999999929
-3.410557985305786,-4.011983871459961,-0.1783045530319214,5.4399999999999284
-3.0685038566589355,-2.5158443450927734,0.3127427101135254,5.449999999999928
-1.4341566562652588,-1.4784660339355469,-0.19383418560028076,5.459999999999928
-0.2299100160598755,-0.6345348358154297,-0.7891750335693359,5.469999999999928
-0.24733459949493408,-0.6587047576904297,-0.6194480657577515,5.479999999999928
1.056962490081787,-0.037703514099121094,-1.2916041612625122,5.489999999999927
1.4276152849197388,-0.6131191253662109,-0.9545692205429077,5.499999999999927
1.5455328226089478,-1.4321823120117188,-0.41013529896736145,5.509999999999927
1.5257855653762817,-2.0878868103027344,0.14804482460021973,5.519999999999927
1.7622597217559814,-2.3290319442749023,0.3396070897579193,5.5299999999999265
1.7439595460891724,-1.6841373443603516,0.7192276120185852,5.539999999999926
1.731525182723999,-1.1254768371582031,0.7804344296455383,5.549999999999926
2.2865376472473145,-1.0773229598999023,0.9366706013679504,5.559999999999926
2.0944485664367676,-1.6190156936645508,1.444432258605957,5.569999999999926
1.538805365562439,-1.3644237518310547,2.2296319007873535,5.5799999999999255
1.036375880241394,-0.3711357116699219,2.798208713531494,5.589999999999925
1.0028859376907349,0.762385368347168,3.339398145675659,5.599999999999925
0.8834904432296753,0.9467763900756836,3.327759027481079,5.609999999999925
0.47118449211120605,0.8668031692504883,2.181558609008789,5.619999999999925
-0.08926862478256226,0.21854782104492188,0.7046305537223816,5.629999999999924
-0.05656126141548157,0.23279857635498047,0.33122822642326355,5.639999999999924
0.10447728633880615,0.7578058242797852,1.2675161361694336,5.649999999999924
0.34045863151550293,1.8569765090942383,2.418243169784546,5.659999999999924
0.6612095832824707,2.2294960021972656,2.4870052337646484,5.6699999999999235
0.584669828414917,2.45664119720459,2.3525876998901367,5.679999999999923
0.9398514032363892,2.200216293334961,2.0204124450683594,5.689999999999923
1.2628343105316162,1.6926918029785156,2.026625394821167,5.699999999999923
1.4816272258758545,1.1893501281738281,1.8496259450912476,5.709999999999923
1.515960454940796,1.3799114227294922,0.6390314102172852,5.7199999999999225
1.244539737701416,1.9440422058105469,-0.8514288067817688,5.729999999999922
1.0840275287628174,3.054899215698242,-2.0842440128326416,5.739999999999922
0.8119229674339294,4.495262145996094,-3.1910533905029297,5.749999999999922
0.6985911726951599,5.4185791015625,-3.9441347122192383,5.759999999999922
0.5902503728866577,5.022967338562012,-2.9938886165618896,5.769999999999921
-0.8557897806167603,4.467194557189941,-1.2428275346755981,5.779999999999921
-2.076343059539795,4.014296531677246,-0.7256109118461609,5.789999999999921
-2.642322540283203,3.617947578430176,-0.5844958424568176,5.799999999999921
-2.7873940467834473,3.9651222229003906,-1.6793715953826904,5.809999999999921
-1.7826108932495117,4.862687110900879,-2.198014497756958,5.81999999999992
-0.09720361232757568,4.96937370300293,-2.219163417816162,5.82999999999992
0.03975260257720947,4.680871963500977,-2.974522113800049,5.83999999999992
-0.3900928497314453,4.142045021057129,-3.656853675842285,5.84999999999992
-0.9481710195541382,3.0081567764282227,-3.776418685913086,5.8599999999999195
-1.606632947921753,1.778228759765625,-3.686328887939453,5.869999999999919
-2.4315671920776367,0.5362577438354492,-3.187263250350952,5.879999999999919
-3.038938283920288,-0.2614259719848633,-0.7872499227523804,5.889999999999919
-3.0964713096618652,-1.5361371040344238,3.4836981296539307,5.899999999999919
-2.350770950317383,-2.1545491218566895,3.706247091293335,5.909999999999918
1.0018254518508911,-5.064422130584717,-0.05807375907897949,5.919999999999918
3.7493174076080322,-7.361315727233887,-3.714305877685547,5.929999999999918
0.12626194953918457,-2.758249282836914,-3.7473645210266113,5.939999999999918
-0.12066084146499634,-1.7038207054138184,-2.3435089588165283,5.949999999999918
1.1589165925979614,-3.262633800506592,-0.7633821964263916,5.959999999999917
0.9961680173873901,-3.839332103729248,-0.5420682430267334,5.969999999999917
0.26511150598526,-3.5219502449035645,-1.6005659103393555,5.979999999999917
0.14808452129364014,-3.544527530670166,-2.7952089309692383,5.989999999999917
-0.11550045013427734,-3.935047149658203,-2.883241653442383,5.9999999999999165
-0.40564167499542236,-4.391655445098877,-2.341303586959839,6.009999999999916
-0.7997399568557739,-4.392115592956543,-1.5396974086761475,6.019999999999916
-0.7275975942611694,-4.370121002197266,-1.5566112995147705,6.029999999999916
-0.5983927249908447,-3.765026569366455,-1.1345500946044922,6.039999999999916
-0.522951602935791,-3.3258256912231445,-0.9132492542266846,6.0499999999999154
-0.336434006690979,-2.9440784454345703,-0.5014667510986328,6.059999999999915
-0.2690693140029907,-2.9808945655822754,0.14551401138305664,6.069999999999915
-0.3990989923477173,-3.381502628326416,1.0473756790161133,6.079999999999915
-0.32922303676605225,-3.589756965637207,1.2410917282104492,6.089999999999915
-0.5225623846054077,-3.3750076293945312,1.5734915733337402,6.099999999999914
-0.4849545955657959,-2.9318995475769043,1.3897621631622314,6.109999999999914
-0.21056008338928223,-2.224660873413086,1.209895133972168,6.119999999999914
-0.01246345043182373,-1.1590876579284668,1.5514700412750244,6.129999999999914
0.29778313636779785,0.9245223999023438,1.895000696182251,6.1399999999999135
0.6036622524261475,3.493532180786133,1.9906246662139893,6.149999999999913
0.1703115701675415,6.716093063354492,1.8976521492004395,6.159999999999913
-1.0001044273376465,9.28439712524414,3.2813360691070557,6.169999999999913
-1.022368311882019,9.28989028930664,3.2561566829681396,6.179999999999913
-1.4537004232406616,4.661700248718262,5.734287261962891,6.1899999999999125
-2.305875301361084,0.04369926452636719,4.924945831298828,6.199999999999912
-1.3227134943008423,-3.3250842094421387,2.054358959197998,6.209999999999912
0.9120119214057922,-3.6911211013793945,0.957813024520874,6.219999999999912
-0.515957236289978,1.4993267059326172,0.4856874942779541,6.229999999999912
-1.744842767715454,7.687292098999023,-0.7094976902008057,6.239999999999911
-1.994916319847107,13.422638893127441,-5.490438938140869,6.249999999999911
-1.9830191135406494,16.291553497314453,-8.796581268310547,6.259999999999911
0.27576959133148193,12.747832298278809,-9.169120788574219,6.269999999999911
1.3973290920257568,2.240860939025879,-2.9788408279418945,6.2799999999999105
0.19926923513412476,-7.425656795501709,1.286208152770996,6.28999999999991
-0.6247806549072266,-10.950197219848633,-3.2474560737609863,6.29999999999991
-1.1001861095428467,-9.224169731140137,-5.757998466491699,6.30999999999991
-0.730271577835083,-4.188734531402588,-4.518136024475098,6.31999999999991
1.218090534210205,-0.19799327850341797,-2.3319993019104004,6.3299999999999095
3.420876979827881,3.6624488830566406,-1.3159162998199463,6.339999999999909
5.030202865600586,5.701101303100586,-0.22470736503601074,6.349999999999909
5.523573398590088,5.277222633361816,0.05776691436767578,6.359999999999909
2.780252456665039,1.9967060089111328,-2.12812876701355,6.369999999999909
1.114068865776062,-1.4405570030212402,-3.4877569675445557,6.379999999999908
-0.2333773374557495,-3.1166062355041504,-1.5476166009902954,6.389999999999908
-1.3718184232711792,-3.9728527069091797,-0.6119780540466309,6.399999999999908
-2.402282953262329,-3.210414409637451,-1.6278157234191895,6.409999999999908
-4.051508903503418,-1.7128028869628906,-1.2153730392456055,6.419999999999908
-4.038000583648682,-0.9680070877075195,-0.8282134532928467,6.429999999999907
-1.50657057762146,-1.6860990524291992,-0.7462139129638672,6.439999999999907
-0.17856448888778687,-2.3256611824035645,-0.757941484451294,6.449999999999907
0.7319488525390625,-2.4343442916870117,-0.8935874700546265,6.459999999999907
1.003417730331421,-1.6312999725341797,-1.4300940036773682,6.4699999999999065
1.0330508947372437,-1.0048332214355469,-1.6339019536972046,6.479999999999906
1.1417412757873535,-0.7599411010742188,-0.7293914556503296,6.489999999999906
0.7368320822715759,-0.7554540634155273,0.3831280469894409,6.499999999999906
0.7178844213485718,-1.0253667831420898,1.3604261875152588,6.509999999999906
1.0189541578292847,-1.3504838943481445,1.98542320728302,6.519999999999905
0.99847811460495,-1.381582260131836,2.518512725830078,6.529999999999905
1.5136154890060425,-1.094609260559082,2.8616857528686523,6.539999999999905
1.2808678150177002,-0.990264892578125,2.4113779067993164,6.549999999999905
0.8797053098678589,-1.3682050704956055,0.887968897819519,6.559999999999905
1.4481072425842285,-1.9892058372497559,-0.6106905937194824,6.569999999999904
1.3315730094909668,-2.3913116455078125,-1.3492952585220337,6.579999999999904
0.8860727548599243,-2.097628593444824,-0.3836922347545624,6.589999999999904
0.9077718257904053,-1.4744815826416016,1.8439090251922607,6.599999999999904
0.4083307981491089,-2.5524802207946777,1.7884526252746582,6.6099999999999035
0.36696499586105347,-0.6655540466308594,2.56701397895813,6.619999999999903
-0.010949790477752686,0.3529195785522461,1.6978752613067627,6.629999999999903
0.5087032318115234,1.3435535430908203,0.9318205714225769,6.639999999999903
0.6290202140808105,2.6865577697753906,1.0431615114212036,6.649999999999903
1.708581805229187,3.323300361633301,-1.417965292930603,6.659999999999902
0.8786599636077881,3.1718616485595703,-0.13908539712429047,6.669999999999902
-0.5756245255470276,0.611541748046875,2.299187660217285,6.679999999999902
-0.8707284331321716,-0.4959421157836914,2.9177284240722656,6.689999999999902
0.1880108118057251,-1.8644075393676758,0.41442662477493286,6.699999999999902
0.23857855796813965,-1.2190637588500977,-1.8378894329071045,6.709999999999901
0.1973486840724945,0.7327594757080078,-3.1807405948638916,6.719999999999901
0.47442853450775146,4.559915542602539,-3.6442081928253174,6.729999999999901
0.27247750759124756,7.055583953857422,-2.7957935333251953,6.739999999999901
0.37088823318481445,6.595830917358398,0.10067325830459595,6.7499999999999005
-0.07600295543670654,5.338728904724121,0.9447300434112549,6.7599999999999
0.8342379927635193,5.657660484313965,1.5550140142440796,6.7699999999999
1.2769629955291748,6.91425895690918,1.170831561088562,6.7799999999999
1.9836286306381226,5.7753190994262695,0.12722694873809814,6.7899999999999
-1.1142630577087402,5.710631370544434,-2.2685704231262207,6.7999999999998995
-3.0795955657958984,4.059198379516602,-4.186944961547852,6.809999999999899
-3.7631070613861084,1.988144874572754,-5.372682571411133,6.819999999999899
-3.452939033508301,0.8216056823730469,-5.035801410675049,6.829999999999899
-2.9918603897094727,0.9343976974487305,-3.622720956802368,6.839999999999899
-4.031899929046631,1.725687026977539,-2.547013998031616,6.849999999999898
-1.2221590280532837,0.5249118804931641,-1.1056143045425415,6.859999999999898
-1.4085092544555664,0.10831832885742188,-0.87781822681427,6.869999999999898
-1.107819676399231,-0.555267333984375,-1.1053537130355835,6.879999999999898
-1.5290391445159912,-0.10959911346435547,-2.4276180267333984,6.8899999999998975
-0.9013466835021973,-0.015582084655761719,-3.8320627212524414,6.899999999999897
0.2698611617088318,-0.7485227584838867,-4.816891193389893,6.909999999999897
1.7222638130187988,-2.4059290885925293,-4.488250732421875,6.919999999999897
1.5838203430175781,-3.648723602294922,-3.8785128593444824,6.929999999999897
-0.3969336748123169,-4.211265563964844,-2.6400318145751953,6.9399999999998965
-1.191129446029663,-3.7185325622558594,-1.844650387763977,6.949999999999896
-0.7197840213775635,-2.86184024810791,-2.123621940612793,6.959999999999896
-0.26023638248443604,-2.547240734100342,-2.4414403438568115,6.969999999999896
-0.2007148265838623,-2.5343751907348633,-2.7369115352630615,6.979999999999896
-0.16864728927612305,-2.816977024078369,-2.4647464752197266,6.989999999999895
-0.49268245697021484,-2.6482033729553223,-1.367354154586792,6.999999999999895
-0.33385205268859863,-2.1467180252075195,-0.5548295974731445,7.009999999999895
-0.26886773109436035,-2.1360836029052734,-0.5439071655273438,7.019999999999895
-0.6408834457397461,-1.1699070930480957,0.004740476608276367,7.0299999999998946
-0.9599268436431885,-1.1141700744628906,-0.06899046897888184,7.039999999999894
-1.4468600749969482,-1.3068618774414062,0.540607213973999,7.049999999999894
-1.599487066268921,-1.1241998672485352,0.6308505535125732,7.059999999999894
-1.5982894897460938,-1.1588878631591797,0.7311854362487793,7.069999999999894
-1.432417392730713,-0.08794879913330078,-0.10165905952453613,7.0799999999998935
-1.6926677227020264,0.15769004821777344,-0.04076433181762695,7.089999999999893
-1.632746696472168,0.06520271301269531,0.5015983581542969,7.099999999999893
-1.497377634048462,0.02155017852783203,0.7775976657867432,7.109999999999893
-1.5130937099456787,0.24954509735107422,0.7286412715911865,7.119999999999893
-1.5946673154830933,0.20671749114990234,0.824674129486084,7.129999999999892
-1.1163545846939087,0.7934083938598633,0.09810590744018555,7.139999999999892
-0.27902984619140625,1.5425786972045898,0.009133100509643555,7.149999999999892
0.21815860271453857,1.0793418884277344,0.8497817516326904,7.159999999999892
-0.497123122215271,0.7953577041625977,1.4449043273925781,7.169999999999892
-1.5168328285217285,0.7786397933959961,1.4130611419677734,7.179999999999891
-1.6632403135299683,0.7312164306640625,1.8022773265838623,7.189999999999891
-1.4083606004714966,1.2247838973999023,2.4811885356903076,7.199999999999891
-1.6749744415283203,2.968560218811035,3.1365888118743896,7.209999999999891
-0.5114386081695557,4.673752784729004,1.521289587020874,7.2199999999998905
0.29719293117523193,5.723952293395996,-1.4934290647506714,7.22999999999989
1.4671601057052612,6.039796829223633,-4.7257585525512695,7.23999999999989
2.136850357055664,4.111666679382324,-5.843723297119141,7.24999999999989
1.8298075199127197,2.021951675415039,-6.082217216491699,7.25999999999989
2.587167263031006,1.1418437957763672,-3.694636344909668,7.269999999999889
1.906435489654541,0.5063085556030273,-1.6729135513305664,7.279999999999889
2.1353819370269775,0.9185514450073242,-1.629110336303711,7.289999999999889
1.9551934003829956,0.827082633972168,-1.5725220441818237,7.299999999999889
0.5578764081001282,0.8620195388793945,-0.47293591499328613,7.309999999999889
0.21926110982894897,-0.3693523406982422,-0.2699131965637207,7.319999999999888
-0.04214242845773697,0.7584915161132812,0.222381591796875,7.329999999999888
-0.5697210431098938,1.1461591720581055,0.4567146301269531,7.339999999999888
-0.665189802646637,1.1395654678344727,0.4834873676300049,7.349999999999888
0.15911854803562164,0.3914146423339844,-1.467205286026001,7.3599999999998875
1.0696419477462769,1.0233879089355469,-2.6371545791625977,7.369999999999887
0.9221270084381104,1.0119524002075195,-2.565662145614624,7.379999999999887
1.4229109287261963,1.6016254425048828,-4.140437126159668,7.389999999999887
1.8904814720153809,0.7314701080322266,-4.451005458831787,7.399999999999887
1.5056581497192383,0.9515838623046875,-3.9996395111083984,7.4099999999998865
1.3686150312423706,0.5463743209838867,-3.5554704666137695,7.419999999999886
1.3781769275665283,0.819066047668457,-2.764909505844116,7.429999999999886
0.9355539083480835,1.4783897399902344,-0.8444960117340088,7.439999999999886
1.6168162822723389,0.7881174087524414,1.0409870147705078,7.449999999999886
1.4245624542236328,1.2923059463500977,-0.6119397878646851,7.459999999999885
1.2300136089324951,0.7292871475219727,-0.9094232320785522,7.469999999999885
1.0869368314743042,0.05974388122558594,-0.7938703298568726,7.479999999999885
0.5057010650634766,-0.6100931167602539,-0.5154439210891724,7.489999999999885
0.39512205123901367,-0.6612739562988281,-0.5075857639312744,7.4999999999998845
0.20901203155517578,-0.6944675445556641,-0.05541801452636719,7.509999999999884
0.15137958526611328,-0.7010698318481445,0.040238380432128906,7.519999999999884
0.4227449893951416,-0.2779550552368164,0.7570867538452148,7.529999999999884
1.2080652713775635,0.18390750885009766,0.5697693824768066,7.539999999999884
1.2775152921676636,0.6218681335449219,-0.7765243053436279,7.5499999999998835
0.46914947032928467,0.767848014831543,-1.813157320022583,7.559999999999883
0.44895970821380615,-0.001491546630859375,-2.6795272827148438,7.569999999999883
0.32290828227996826,0.12109088897705078,-2.5402345657348633,7.579999999999883
-0.480283260345459,0.03432273864746094,-1.6884135007858276,7.589999999999883
-0.03612256050109863,0.5943841934204102,-1.0302149057388306,7.599999999999882
0.0029615163803100586,1.2107467651367188,-0.905870795249939,7.609999999999882
-0.2908451557159424,1.2836294174194336,-0.07684935629367828,7.619999999999882
-0.6838699579238892,1.7997283935546875,3.4951066970825195,7.629999999999882
-1.918257713317871,-0.5792751312255859,-2.0786595344543457,7.6399999999998816
-1.7454912662506104,-0.6957502365112305,-2.1860315799713135,7.649999999999881
-1.9627165794372559,0.8757410049438477,1.3801766633987427,7.659999999999881
-0.7752386331558228,1.834756851196289,1.1709558963775635,7.669999999999881
-0.8001224398612976,1.566864013671875,1.4504151344299316,7.679999999999881
-0.5647169351577759,0.3020620346069336,2.3376784324645996,7.6899999999998805
-1.486207365989685,-0.48882198333740234,1.0098556280136108,7.69999999999988
-1.6715922355651855,-0.7558164596557617,1.2167563438415527,7.70999999999988
-2.2566545009613037,0.30709171295166016,5.169343948364258,7.71999999999988
-0.25381505489349365,3.300196647644043,3.257065773010254,7.72999999999988
-0.5735896825790405,4.06651496887207,-2.0002641677856445,7.739999999999879
-1.1518988609313965,2.116239547729492,-0.2297734022140503,7.749999999999879
-1.7193186283111572,0.9669504165649414,3.1014959812164307,7.759999999999879
-1.1930325031280518,0.9251985549926758,3.6467320919036865,7.769999999999879
-1.7103798389434814,0.7552175521850586,2.055436849594116,7.779999999999879
-0.5542730093002319,1.3380346298217773,-0.6864144802093506,7.789999999999878
0.019380539655685425,3.314586639404297,-3.7117321491241455,7.799999999999878
1.0951499938964844,3.811823844909668,-4.462615489959717,7.809999999999878
1.543229103088379,3.3139514923095703,-2.2194252014160156,7.819999999999878
1.5495786666870117,2.9471168518066406,0.03494691848754883,7.8299999999998775
1.4365434646606445,3.0777111053466797,1.1352661848068237,7.839999999999877
2.135157585144043,3.2581777572631836,-0.08866763114929199,7.849999999999877
2.8228442668914795,4.148259162902832,-1.9962785243988037,7.859999999999877
3.3224098682403564,4.207672119140625,-3.0466196537017822,7.869999999999877
3.168922185897827,3.916457176208496,-2.2782135009765625,7.879999999999876
3.4052202701568604,4.017878532409668,-2.7177062034606934,7.889999999999876
2.5637452602386475,2.178248405456543,0.2944762706756592,7.899999999999876
2.3056576251983643,2.100338935852051,-0.16490626335144043,7.909999999999876
2.716975212097168,2.993204116821289,-2.292487859725952,7.919999999999876
2.67871356010437,3.378262519836426,-3.339414119720459,7.929999999999875
2.6845946311950684,3.1290359497070312,-2.712062358856201,7.939999999999875
2.8620975017547607,3.0746002197265625,-1.9044153690338135,7.949999999999875
2.606656789779663,2.9611291885375977,-1.9659178256988525,7.959999999999875
1.9640790224075317,2.333437442779541,-3.1679768562316895,7.9699999999998745
1.2192643880844116,2.069479465484619,-4.695070743560791,7.979999999999874
1.0751932859420776,2.2951440811157227,-5.081567764282227,7.989999999999874
0.9131529331207275,0.49007558822631836,-7.257665634155273,7.999999999999874
