AccX,AccY,AccZ,SampleRate
0.5557836890220642,-0.28280162811279297,2.3151707649230957,0
0.4160737991333008,-0.029329299926757812,1.9633828401565552,0.01
0.07150435447692871,0.16704273223876953,1.7329851388931274,0.02
-0.2862377464771271,0.3321962356567383,1.6136910915374756,0.03
-0.4937499463558197,0.45105648040771484,1.5776326656341553,0.04
-0.6791754364967346,0.7145891189575195,1.5044517517089844,0.05
-0.5113598704338074,0.7610559463500977,1.3599519729614258,0.060000000000000005
-0.0883612334728241,0.6285934448242188,1.2895762920379639,0.07
0.4800454080104828,0.7576436996459961,1.4590635299682617,0.08
1.0609008073806763,1.3901796340942383,2.2604517936706543,0.09
1.4058055877685547,2.0407114028930664,2.945807933807373,0.09999999999999999
1.7978179454803467,2.6145143508911133,3.5999865531921387,0.10999999999999999
2.1656429767608643,2.978581428527832,4.3148956298828125,0.11999999999999998
2.4345691204071045,3.025444984436035,5.187249660491943,0.12999999999999998
2.5897645950317383,2.8406686782836914,5.958946228027344,0.13999999999999999
2.612295150756836,2.842291831970215,5.960835933685303,0.15
2.511392831802368,3.029707908630371,4.720056533813477,0.16
2.218118190765381,3.679849624633789,3.2465977668762207,0.17
1.8941147327423096,4.372321128845215,1.886155605316162,0.18000000000000002
1.501640796661377,5.180505752563477,0.6634992957115173,0.19000000000000003
0.9522051811218262,5.590014457702637,-0.7723759412765503,0.20000000000000004
0.25929689407348633,5.233090400695801,-2.3244495391845703,0.21000000000000005
-0.16135501861572266,4.4555511474609375,-3.2237775325775146,0.22000000000000006
-0.9240207076072693,3.1432275772094727,-3.550123453140259,0.23000000000000007
-1.9438259601593018,1.955510139465332,-3.634364366531372,0.24000000000000007
-3.1582891941070557,0.8320865631103516,-3.4876582622528076,0.25000000000000006
-4.495079040527344,0.1851816177368164,-2.443375587463379,0.26000000000000006
-5.09161376953125,-0.037384986877441406,-1.0755668878555298,0.2700000000000001
-4.574203014373779,-0.1986684799194336,-1.8515660762786865,0.2800000000000001
-3.115569829940796,0.5578546524047852,-1.6741374731063843,0.2900000000000001
-1.115932822227478,1.6484670639038086,0.21272188425064087,0.3000000000000001
-0.1371779441833496,2.3041343688964844,1.4627799987792969,0.3100000000000001
0.23700743913650513,2.093259811401367,1.6217058897018433,0.3200000000000001
-0.24815011024475098,1.2543363571166992,0.762040376663208,0.3300000000000001
-0.8477853536605835,0.5795822143554688,-0.5100557804107666,0.34000000000000014
-0.9488261938095093,-0.026696205139160156,-1.9006929397583008,0.35000000000000014
-0.5092257261276245,-0.3706951141357422,-3.507216453552246,0.36000000000000015
0.38142621517181396,-0.9116430282592773,-4.621728897094727,0.37000000000000016
1.211122989654541,-1.758927345275879,-4.591861724853516,0.38000000000000017
1.6140835285186768,-2.210519313812256,-2.5859758853912354,0.3900000000000002
1.5100126266479492,-2.5186219215393066,-0.08939719200134277,0.4000000000000002
1.212608814239502,-3.540802001953125,2.4077682495117188,0.4100000000000002
0.6063564419746399,-4.085606098175049,1.740159273147583,0.4200000000000002
0.07967281341552734,-4.24731969833374,0.006294727325439453,0.4300000000000002
-0.5782723426818848,-4.079037666320801,-0.8339133262634277,0.4400000000000002
-1.4586210250854492,-3.446194648742676,-1.0129129886627197,0.45000000000000023
-1.6925280094146729,-3.2254600524902344,-1.0823798179626465,0.46000000000000024
-1.8990447521209717,-3.0045809745788574,-0.998044490814209,0.47000000000000025
-1.6464154720306396,-2.842874526977539,-0.934035062789917,0.48000000000000026
-1.599316954612732,-2.8026866912841797,-0.9994299411773682,0.49000000000000027
-0.7443375587463379,-3.3616271018981934,-0.8335235118865967,0.5000000000000002
-0.12405240535736084,-3.6273045539855957,-0.8257379531860352,0.5100000000000002
0.34108221530914307,-3.8421664237976074,-0.7334020137786865,0.5200000000000002
0.7405370473861694,-4.101890563964844,-0.06578207015991211,0.5300000000000002
0.8253741264343262,-4.147534370422363,0.8424906730651855,0.5400000000000003
0.9810140132904053,-4.099095344543457,1.7818212509155273,0.5500000000000003
1.094588279724121,-4.118446350097656,2.6278634071350098,0.5600000000000003
1.0554172992706299,-3.9350056648254395,2.3826777935028076,0.5700000000000003
0.7015424966812134,-3.506983757019043,1.8250329494476318,0.5800000000000003
0.07759213447570801,-2.6623306274414062,1.5116374492645264,0.5900000000000003
-0.4315100908279419,-1.3354010581970215,1.8377306461334229,0.6000000000000003
-0.2656177282333374,0.3796863555908203,2.7100014686584473,0.6100000000000003
0.0277712345123291,2.04036808013916,3.7573180198669434,0.6200000000000003
-0.2443385124206543,3.779179573059082,4.754764556884766,0.6300000000000003
-1.0864758491516113,4.934018135070801,4.939305305480957,0.6400000000000003
-3.818882703781128,5.713069915771484,4.352661609649658,0.6500000000000004
-5.824594974517822,4.271210670471191,2.6366426944732666,0.6600000000000004
-5.511165618896484,1.5758638381958008,1.7620325088500977,0.6700000000000004
-4.164288520812988,-1.3853955268859863,1.9940085411071777,0.6800000000000004
-2.2620484828948975,-4.112383842468262,2.5594592094421387,0.6900000000000004
-0.9403282403945923,-3.340392589569092,1.6306521892547607,0.7000000000000004
-0.3638956546783447,1.7219362258911133,0.310535192489624,0.7100000000000004
-1.34890878200531,7.2395477294921875,-1.8520491123199463,0.7200000000000004
-4.452438831329346,11.513916015625,-4.809964179992676,0.7300000000000004
-5.7732954025268555,13.421503067016602,-6.9385480880737305,0.7400000000000004
-0.6549539566040039,9.813633918762207,-2.1862545013427734,0.7500000000000004
1.9931086301803589,4.8443708419799805,3.092005968093872,0.7600000000000005
2.3052351474761963,-1.70619535446167,4.867442607879639,0.7700000000000005
2.097776174545288,-6.165525436401367,-0.7584593296051025,0.7800000000000005
1.261591911315918,-8.764588356018066,-7.767392158508301,0.7900000000000005
1.325394868850708,-8.026233673095703,-10.060149192810059,0.8000000000000005
2.483916997909546,-2.8493924140930176,-5.107620716094971,0.8100000000000005
4.189985275268555,1.1794300079345703,-1.398569941520691,0.8200000000000005
5.053205490112305,4.140458106994629,0.20630311965942383,0.8300000000000005
4.991273403167725,5.302948951721191,0.20817112922668457,0.8400000000000005
3.773192882537842,3.867936134338379,-1.4303714036941528,0.8500000000000005
1.8115487098693848,0.5124855041503906,-3.3660407066345215,0.8600000000000005
0.1806274652481079,-2.9881715774536133,-4.045256614685059,0.8700000000000006
-1.0246877670288086,-4.783100605010986,-3.4377455711364746,0.8800000000000006
-1.8659732341766357,-5.790963172912598,-2.569850444793701,0.8900000000000006
-2.5274624824523926,-5.210117340087891,-1.2417511940002441,0.9000000000000006
-3.1812233924865723,-3.160400867462158,-0.021233201026916504,0.9100000000000006
-2.9235787391662598,-1.2652397155761719,0.7196332216262817,0.9200000000000006
-1.854027271270752,-0.07239055633544922,0.8826998472213745,0.9300000000000006
-1.050705909729004,0.15749359130859375,0.5790461301803589,0.9400000000000006
0.020212948322296143,-0.40364646911621094,0.13314294815063477,0.9500000000000006
0.9936379194259644,-1.1497993469238281,-0.3359519839286804,0.9600000000000006
1.689039707183838,-1.6681795120239258,-0.6935141086578369,0.9700000000000006
2.0378057956695557,-1.7598438262939453,-0.9502135515213013,0.9800000000000006
2.557904005050659,-1.5446691513061523,-0.6524866819381714,0.9900000000000007
2.671414852142334,-1.0900592803955078,-0.20302170515060425,1.0000000000000007
2.719449520111084,-0.6956624984741211,0.38432714343070984,1.0100000000000007
2.633553981781006,-0.3834714889526367,0.8045943975448608,1.0200000000000007
2.3504252433776855,-0.27144718170166016,1.1678601503372192,1.0300000000000007
2.119239091873169,-0.5559883117675781,1.2890470027923584,1.0400000000000007
1.7184438705444336,-1.0933475494384766,1.275634527206421,1.0500000000000007
1.2366180419921875,-1.4761466979980469,1.4913899898529053,1.0600000000000007
0.7121794819831848,-1.7950539588928223,2.22196102142334,1.0700000000000007
0.09352356195449829,-1.6308860778808594,2.9521751403808594,1.0800000000000007
-0.2609591484069824,-0.9398889541625977,2.8709118366241455,1.0900000000000007
-0.5589805245399475,-0.023250579833984375,2.541367530822754,1.1000000000000008
-0.9649466276168823,0.7309246063232422,2.1256167888641357,1.1100000000000008
-1.218112587928772,0.9435749053955078,1.546271800994873,1.1200000000000008
-1.18134605884552,1.195622444152832,0.8918167352676392,1.1300000000000008
-0.6259995102882385,1.689453125,0.7033705711364746,1.1400000000000008
0.6296049356460571,2.244145393371582,1.0108468532562256,1.1500000000000008
2.2333383560180664,2.702648162841797,1.6447689533233643,1.1600000000000008
3.5749847888946533,3.2071533203125,2.678500175476074,1.1700000000000008
4.138335227966309,3.395155906677246,3.8419556617736816,1.1800000000000008
3.964745044708252,3.4871301651000977,4.87290096282959,1.1900000000000008
3.6669604778289795,2.9388933181762695,4.7291975021362305,1.2000000000000008
3.1388943195343018,2.4819583892822266,2.8669581413269043,1.2100000000000009
2.3175835609436035,3.1436214447021484,0.3131831884384155,1.2200000000000009
0.9059475064277649,4.867728233337402,-0.9468865394592285,1.2300000000000009
0.16917508840560913,5.722832679748535,-1.5647871494293213,1.2400000000000009
0.07781475782394409,4.9993486404418945,-3.2075443267822266,1.2500000000000009
-0.18610620498657227,3.3557748794555664,-4.026783466339111,1.260000000000001
-1.2037817239761353,2.5243892669677734,-3.175685167312622,1.270000000000001
-2.6861982345581055,2.81398868560791,-1.3777834177017212,1.280000000000001
-3.566683292388916,3.6401777267456055,-0.8253142237663269,1.290000000000001
-3.407782554626465,3.4426259994506836,-2.105316162109375,1.300000000000001
-2.7810864448547363,3.9197587966918945,-3.061495304107666,1.310000000000001
-1.6353566646575928,4.216865539550781,-2.058759927749634,1.320000000000001
-1.7321991920471191,4.079692840576172,-1.792038083076477,1.330000000000001
-2.1946685314178467,3.726289749145508,-1.9762518405914307,1.340000000000001
-2.56626558303833,3.1315603256225586,-2.068892002105713,1.350000000000001
-3.092757225036621,2.514204978942871,-1.9337595701217651,1.360000000000001
-2.8592677116394043,1.7118721008300781,-1.445925235748291,1.370000000000001
-1.989189863204956,0.7765960693359375,-0.06551504135131836,1.380000000000001
-1.464882731437683,-0.6591939926147461,1.3529181480407715,1.390000000000001
-0.7231919169425964,-2.2310709953308105,0.9250466823577881,1.400000000000001
0.513544499874115,-3.432839870452881,-0.8558535575866699,1.410000000000001
1.6598186492919922,-3.784855842590332,-2.133639335632324,1.420000000000001
2.582042694091797,-5.123108863830566,-3.8858838081359863,1.430000000000001
3.3301472663879395,-5.760178565979004,-3.186622142791748,1.440000000000001
3.6949024200439453,-6.394201755523682,-2.558195114135742,1.450000000000001
3.2544190883636475,-6.728923797607422,-1.2996737957000732,1.460000000000001
1.4169431924819946,-6.231712341308594,-1.2318708896636963,1.470000000000001
0.32846879959106445,-5.613702297210693,-1.4766409397125244,1.480000000000001
-0.6187599897384644,-4.796721935272217,-1.3194003105163574,1.490000000000001
-1.3400788307189941,-4.0693464279174805,-0.96108078956604,1.500000000000001
-1.6144994497299194,-3.621323585510254,-0.8140220642089844,1.5100000000000011
-1.6371344327926636,-3.4473323822021484,-0.7794384956359863,1.5200000000000011
-1.4855897426605225,-3.526059150695801,-0.8272697925567627,1.5300000000000011
-1.3919041156768799,-3.6835756301879883,-0.6749157905578613,1.5400000000000011
-1.1112525463104248,-3.8935909271240234,-0.5193779468536377,1.5500000000000012
-0.7563889026641846,-3.912813186645508,-0.16332006454467773,1.5600000000000012
-0.45896196365356445,-3.6236324310302734,0.9381799697875977,1.5700000000000012
3.306865692138672E-4,-3.251908779144287,2.192166328430176,1.5800000000000012
0.5340685844421387,-2.509097099304199,2.762077808380127,1.5900000000000012
0.5353399515151978,-1.2260870933532715,2.925929546356201,1.6000000000000012
0.7016787528991699,0.2880229949951172,2.594393491744995,1.6100000000000012
0.699162483215332,1.9611482620239258,1.6305327415466309,1.6200000000000012
-0.08532094955444336,3.8940000534057617,1.0681178569793701,1.6300000000000012
-1.7623599767684937,5.935474395751953,1.8852424621582031,1.6400000000000012
-3.9734323024749756,8.096702575683594,3.012866973876953,1.6500000000000012
-5.032167434692383,7.64253044128418,3.9665799140930176,1.6600000000000013
-4.57541561126709,3.691563606262207,4.906828880310059,1.6700000000000013
-4.272994041442871,-1.206467628479004,4.688475608825684,1.6800000000000013
-2.9406888484954834,-4.684726238250732,3.5543196201324463,1.6900000000000013
-1.0471054315567017,-4.259172439575195,1.6805131435394287,1.7000000000000013
-0.027503609657287598,2.661834716796875,0.09642720222473145,1.7100000000000013
-0.7200891971588135,9.02534294128418,-4.911579132080078,1.7200000000000013
-1.7854431867599487,14.583271980285645,-9.609163284301758,1.7300000000000013
-1.557167410850525,16.70993423461914,-8.55567455291748,1.7400000000000013
2.1407535076141357,11.106870651245117,-2.1079421043395996,1.7500000000000013
2.3974106311798096,0.9342212677001953,4.374349594116211,1.7600000000000013
0.5300193428993225,-6.914313316345215,-0.5577101707458496,1.7700000000000014
0.7927947640419006,-9.549263000488281,-5.090043067932129,1.7800000000000014
0.8349857330322266,-9.286023139953613,-6.458250045776367,1.7900000000000014
0.9904907941818237,-5.685062885284424,-4.146198749542236,1.8000000000000014
2.708291530609131,-1.0621881484985352,-1.4155278205871582,1.8100000000000014
4.112124443054199,2.045675277709961,-1.1379973888397217,1.8200000000000014
4.612309455871582,4.645349502563477,-1.3096650838851929,1.8300000000000014
3.9288063049316406,5.584796905517578,-1.7387090921401978,1.8400000000000014
2.677135944366455,4.359428405761719,-2.2197017669677734,1.8500000000000014
1.014737844467163,1.142725944519043,-2.867117404937744,1.8600000000000014
0.08345025777816772,-2.392137050628662,-3.066610813140869,1.8700000000000014
-0.4205365777015686,-4.943789482116699,-2.7176084518432617,1.8800000000000014
-1.3499205112457275,-6.066579818725586,-2.3485312461853027,1.8900000000000015
-2.4897360801696777,-5.646772384643555,-1.7013317346572876,1.9000000000000015
-3.4968605041503906,-4.153146743774414,-1.0654659271240234,1.9100000000000015
-2.7979588508605957,-2.538825511932373,-0.5925644040107727,1.9200000000000015
-1.593303918838501,-0.8629732131958008,-0.5981939435005188,1.9300000000000015
-0.17471778392791748,-0.12235641479492188,-1.0734386444091797,1.9400000000000015
0.7937277555465698,-0.24588966369628906,-1.7650278806686401,1.9500000000000015
0.7709673643112183,-0.26296329498291016,-1.58635413646698,1.9600000000000015
1.2802313566207886,-1.2652902603149414,-1.7377269268035889,1.9700000000000015
1.4105854034423828,-1.5437440872192383,-0.9159706830978394,1.9800000000000015
1.644263744354248,-1.6204490661621094,0.02609875798225403,1.9900000000000015
1.8942434787750244,-1.7230796813964844,0.5030868053436279,2.0000000000000013
1.8382927179336548,-1.99298095703125,0.9209288358688354,2.010000000000001
1.8855781555175781,-2.233689785003662,1.6243494749069214,2.020000000000001
1.7866286039352417,-2.00956392288208,1.926980972290039,2.0300000000000007
1.698743224143982,-1.267674446105957,1.9498499631881714,2.0400000000000005
1.7621729373931885,-0.3744039535522461,1.7502400875091553,2.0500000000000003
1.3738362789154053,0.31044673919677734,1.9708373546600342,2.06
0.8993039131164551,0.7860431671142578,2.7901453971862793,2.07
0.60999596118927,0.9059219360351562,3.074082374572754,2.0799999999999996
0.510250449180603,0.9170951843261719,2.352616786956787,2.0899999999999994
0.4635191559791565,0.8842744827270508,1.258009672164917,2.099999999999999
0.5539964437484741,1.0243263244628906,1.2594389915466309,2.109999999999999
0.9475064277648926,1.6347618103027344,2.2870523929595947,2.1199999999999988
1.4794361591339111,2.3239173889160156,3.589169979095459,2.1299999999999986
1.9716053009033203,2.3993406295776367,4.073688983917236,2.1399999999999983
2.3606619834899902,2.3978652954101562,3.838441848754883,2.149999999999998
2.549381732940674,2.470460891723633,2.9053444862365723,2.159999999999998
2.7032549381256104,2.6929779052734375,2.2186472415924072,2.1699999999999977
2.674220085144043,3.01888370513916,1.041953206062317,2.1799999999999975
2.1435961723327637,3.527153968811035,-0.7760164737701416,2.1899999999999973
1.8112359046936035,4.1078996658325195,-1.6601169109344482,2.199999999999997
1.571481466293335,4.850033760070801,-2.4084935188293457,2.209999999999997
1.6822266578674316,4.555481910705566,-3.8869757652282715,2.2199999999999966
1.5550668239593506,3.6435298919677734,-4.394622325897217,2.2299999999999964
-0.09367775917053223,3.6223745346069336,-2.9952151775360107,2.239999999999996
-2.7368855476379395,3.990481376647949,-0.11527121067047119,2.249999999999996
-4.213363170623779,4.181285858154297,0.4932072162628174,2.259999999999996
-4.635587215423584,3.965261459350586,-0.7014883756637573,2.2699999999999956
-4.028477668762207,5.067115783691406,-1.6385173797607422,2.2799999999999954
-2.8683247566223145,5.503894805908203,-1.0347962379455566,2.289999999999995
-2.5259711742401123,5.056818008422852,-1.225900650024414,2.299999999999995
-2.164726972579956,4.19669246673584,-2.53550124168396,2.3099999999999947
-2.032137870788574,3.305169105529785,-3.3250536918640137,2.3199999999999945
-1.9932971000671387,1.9124641418457031,-3.4018445014953613,2.3299999999999943
-2.035107135772705,0.3899087905883789,-3.3762450218200684,2.339999999999994
-1.941963791847229,-0.9472494125366211,-3.289949893951416,2.349999999999994
-1.771592140197754,-2.0094099044799805,-1.9935808181762695,2.3599999999999937
-1.064261794090271,-3.575350284576416,0.37447118759155273,2.3699999999999934
-0.11482506990432739,-4.127971649169922,1.8230788707733154,2.3799999999999932
0.9834195971488953,-3.940018653869629,1.5891704559326172,2.389999999999993
2.007345676422119,-3.7248711585998535,-0.05294060707092285,2.399999999999993
2.0070433616638184,-3.0597715377807617,-1.557602047920227,2.4099999999999926
2.085667371749878,-2.983078956604004,-1.7391539812088013,2.4199999999999924
1.9555704593658447,-4.365033149719238,-1.9155837297439575,2.429999999999992
1.519024133682251,-4.66396951675415,-1.3158013820648193,2.439999999999992
0.5588933229446411,-4.986793518066406,-1.2012054920196533,2.4499999999999917
-0.4508178234100342,-4.771315097808838,-1.4139695167541504,2.4599999999999915
-1.034286379814148,-4.592526912689209,-1.537602186203003,2.4699999999999913
-1.3113542795181274,-4.185131549835205,-1.6488792896270752,2.479999999999991
-1.255692958831787,-3.864987850189209,-1.6441469192504883,2.489999999999991
-1.2659181356430054,-3.623544216156006,-1.364286184310913,2.4999999999999907
-1.0701208114624023,-3.3415756225585938,-0.7940318584442139,2.5099999999999905
-0.733055830001831,-3.190441608428955,-0.04109048843383789,2.5199999999999902
-0.43041324615478516,-3.4720005989074707,0.8152360916137695,2.52999999999999
-0.17592620849609375,-3.7657761573791504,1.5917878150939941,2.53999999999999
0.13190603256225586,-3.6664552688598633,1.968618392944336,2.5499999999999896
0.14243364334106445,-3.706735610961914,2.0645034313201904,2.5599999999999894
0.5975358486175537,-2.540252208709717,1.563859462738037,2.569999999999989
0.35596299171447754,-1.5136122703552246,1.946359634399414,2.579999999999989
-0.246978759765625,-0.4640159606933594,2.373723268508911,2.5899999999999888
-0.8729190826416016,0.49236583709716797,2.2350335121154785,2.5999999999999885
-0.8599367141723633,1.5354557037353516,2.183993101119995,2.6099999999999883
-0.7578252553939819,2.5073013305664062,2.419001817703247,2.619999999999988
-1.408979058265686,4.141790390014648,2.5748214721679688,2.629999999999988
-2.554777145385742,4.911979675292969,2.7513394355773926,2.6399999999999877
-2.5983006954193115,3.2728309631347656,3.497424840927124,2.6499999999999875
-2.3880906105041504,0.528599739074707,4.133707046508789,2.6599999999999873
-2.544860363006592,-2.659134864807129,3.5670266151428223,2.669999999999987
-2.1286849975585938,-3.7982449531555176,2.180011034011841,2.679999999999987
-1.3436155319213867,-1.5762081146240234,0.8219926357269287,2.6899999999999866
-1.5462480783462524,4.120854377746582,-2.367964267730713,2.6999999999999864
-2.2179923057556152,10.864774703979492,-8.441606521606445,2.709999999999986
-4.334100723266602,17.352224349975586,-9.64730453491211,2.719999999999986
-3.018798351287842,19.289167404174805,-7.590396881103516,2.7299999999999858
0.7746767997741699,11.970605850219727,-0.0987250804901123,2.7399999999999856
2.333362579345703,0.8079891204833984,7.919462203979492,2.7499999999999853
2.273514747619629,-6.399349212646484,1.8898069858551025,2.759999999999985
2.029500961303711,-10.08383560180664,-6.0114970207214355,2.769999999999985
2.0395679473876953,-10.594738006591797,-8.668155670166016,2.7799999999999847
1.8929634094238281,-6.590055465698242,-4.481272220611572,2.7899999999999845
2.368715524673462,-2.441131114959717,0.0028314590454101562,2.7999999999999843
3.4629464149475098,1.5008430480957031,1.5943756103515625,2.809999999999984
4.093310356140137,3.877682685852051,-0.22802376747131348,2.819999999999984
4.228301048278809,5.432894706726074,-2.4297618865966797,2.8299999999999836
3.2628390789031982,5.1890668869018555,-3.353105306625366,2.8399999999999834
0.8195285201072693,2.40850830078125,-2.9010825157165527,2.849999999999983
-0.4100148677825928,-0.6866531372070312,-1.558821201324463,2.859999999999983
-0.3425671458244324,-3.942434310913086,-1.2025238275527954,2.869999999999983
-0.37216824293136597,-5.5638227462768555,-1.4174704551696777,2.8799999999999826
-0.7259176969528198,-5.757922172546387,-1.639737844467163,2.8899999999999824
-1.4988255500793457,-4.634049415588379,-1.3480232954025269,2.899999999999982
-2.000377655029297,-2.477038860321045,-1.229798436164856,2.909999999999982
-1.5390375852584839,-0.983983039855957,-1.1553946733474731,2.9199999999999817
-0.5685620307922363,0.2936582565307617,-1.1318823099136353,2.9299999999999815
0.39929547905921936,0.2938375473022461,-1.0552970170974731,2.9399999999999813
0.8081822395324707,-0.3597450256347656,-0.8426046371459961,2.949999999999981
0.9136781692504883,-1.3795509338378906,-0.5321676135063171,2.959999999999981
0.937795877456665,-2.360629081726074,-0.3548773229122162,2.9699999999999807
0.9786704182624817,-2.3550004959106445,-0.0707109272480011,2.9799999999999804
1.2661736011505127,-1.9658360481262207,0.08751353621482849,2.9899999999999802
1.4593465328216553,-1.482717514038086,-0.1810174435377121,2.99999999999998
1.5523920059204102,-1.264932632446289,-0.288200706243515,3.00999999999998
1.272942066192627,-1.0014028549194336,0.057206571102142334,3.0199999999999796
1.0807993412017822,-0.8694982528686523,0.7488046884536743,3.0299999999999794
1.130080223083496,-0.5508012771606445,1.118030309677124,3.039999999999979
1.3880481719970703,-0.09075641632080078,1.5138694047927856,3.049999999999979
1.3803527355194092,0.38338470458984375,2.1983513832092285,3.0599999999999787
1.0277631282806396,0.5760889053344727,2.7541215419769287,3.0699999999999785
0.4926258623600006,0.5850248336791992,2.7802317142486572,3.0799999999999783
0.1221696138381958,0.68841552734375,2.5823171138763428,3.089999999999978
0.0745013952255249,0.8887500762939453,2.594344139099121,3.099999999999978
0.34875962138175964,0.9913711547851562,2.571030616760254,3.1099999999999777
0.722385585308075,0.9645395278930664,2.339590549468994,3.1199999999999775
0.9181507229804993,1.1595325469970703,2.129218339920044,3.1299999999999772
1.187380075454712,1.3888225555419922,2.015699625015259,3.139999999999977
1.6018507480621338,1.6662006378173828,2.0346055030822754,3.149999999999977
1.925821304321289,1.7255725860595703,2.325840473175049,3.1599999999999766
2.2685046195983887,1.4417037963867188,2.8734817504882812,3.1699999999999764
2.546375036239624,1.0394763946533203,3.0371663570404053,3.179999999999976
2.6069443225860596,1.0290155410766602,2.405975580215454,3.189999999999976
2.6508336067199707,1.4057226181030273,0.49959301948547363,3.1999999999999758
2.447828531265259,2.2105722427368164,-0.9398202896118164,3.2099999999999755
1.954620599746704,3.580158233642578,-1.3132596015930176,3.2199999999999753
0.7587298154830933,5.362380027770996,-2.4744508266448975,3.229999999999975
-0.3752063512802124,6.00926399230957,-3.077334403991699,3.239999999999975
-0.8819756507873535,5.092345237731934,-1.7065823078155518,3.2499999999999747
-2.2291452884674072,4.563748359680176,-0.009195387363433838,3.2599999999999745
-2.852839946746826,5.081180572509766,1.6155085563659668,3.2699999999999743
-2.0257062911987305,5.556593894958496,1.7602155208587646,3.279999999999974
-1.2680388689041138,5.2535810470581055,-0.5096830725669861,3.289999999999974
-2.2955784797668457,5.304547309875488,-3.521867513656616,3.2999999999999736
-2.9080233573913574,4.731473922729492,-5.344227313995361,3.3099999999999734
-2.686764717102051,3.6881065368652344,-5.391056537628174,3.319999999999973
-2.2057127952575684,2.8619651794433594,-4.458003520965576,3.329999999999973
-2.0293588638305664,2.0739097595214844,-3.7231006622314453,3.3399999999999728
-2.025217294692993,0.6588001251220703,-2.7049479484558105,3.3499999999999726
-2.4570577144622803,-0.8874635696411133,-1.740128993988037,3.3599999999999723
-2.8622941970825195,-1.8654842376708984,-0.6066991090774536,3.369999999999972
-2.4080653190612793,-2.4810562133789062,0.9579784870147705,3.379999999999972
-1.0827778577804565,-2.681272029876709,1.114396572113037,3.3899999999999717
0.044839560985565186,-2.534541130065918,-0.5296444892883301,3.3999999999999715
0.965182363986969,-2.694357395172119,-2.0860464572906494,3.4099999999999713
1.269410252571106,-3.1349878311157227,-2.5167102813720703,3.419999999999971
1.4092917442321777,-4.020837306976318,-1.97235107421875,3.429999999999971
0.9719905853271484,-4.461197376251221,-0.9553980827331543,3.4399999999999706
1.0557221174240112,-4.387237071990967,-1.118847370147705,3.4499999999999704
0.24584776163101196,-4.579732894897461,-1.1788535118103027,3.45999999999997
-0.15229976177215576,-4.725486755371094,-1.7443583011627197,3.46999999999997
-0.7855825424194336,-4.52511739730835,-1.713571310043335,3.47999999999997
-1.2570850849151611,-3.915853500366211,-1.586125135421753,3.4899999999999696
-1.4872688055038452,-3.241915702819824,-1.437436580657959,3.4999999999999694
-1.4996169805526733,-2.5038504600524902,-1.0132830142974854,3.509999999999969
-1.523222804069519,-2.2623915672302246,-0.6282944679260254,3.519999999999969
-1.4002021551132202,-2.141084671020508,-0.0954599380493164,3.5299999999999687
-1.0044499635696411,-2.3712854385375977,0.6949667930603027,3.5399999999999685
-0.3670332431793213,-2.7476186752319336,1.580986499786377,3.5499999999999683
0.3717665672302246,-3.14591646194458,2.221489429473877,3.559999999999968
0.8445136547088623,-3.212759017944336,2.527255058288574,3.569999999999968
1.03575599193573,-3.1581082344055176,2.260730028152466,3.5799999999999677
1.1778769493103027,-3.112051010131836,1.7865288257598877,3.5899999999999674
0.9801812171936035,-2.60906982421875,1.8105247020721436,3.5999999999999672
0.747402548789978,-1.5317082405090332,2.2230331897735596,3.609999999999967
0.07848906517028809,-0.10741615295410156,2.836606979370117,3.619999999999967
-0.9903215169906616,1.1476192474365234,3.5276081562042236,3.6299999999999666
-1.7001606225967407,1.6980514526367188,3.383744955062866,3.6399999999999664
-2.4459636211395264,2.235659599304199,2.265761613845825,3.649999999999966
-3.501636028289795,3.362405776977539,0.9558255672454834,3.659999999999966
-3.9107565879821777,4.057595252990723,0.8343169689178467,3.6699999999999657
-2.7026610374450684,2.244842529296875,1.9685702323913574,3.6799999999999655
-1.6128451824188232,-0.27845191955566406,3.0868117809295654,3.6899999999999653
-1.408677101135254,-1.512436866760254,3.262249708175659,3.699999999999965
-1.5250152349472046,-1.4905118942260742,2.9641425609588623,3.709999999999965
-1.821009635925293,1.1513357162475586,2.218935251235962,3.7199999999999647
-1.9580814838409424,5.822999954223633,-1.336620807647705,3.7299999999999645
-1.3762602806091309,10.457378387451172,-6.392022132873535,3.7399999999999642
-1.8703597784042358,14.358936309814453,-9.067028045654297,3.749999999999964
-0.5188628435134888,12.50865650177002,-9.818741798400879,3.759999999999964
0.44664859771728516,4.9932756423950195,-4.864794731140137,3.7699999999999636
0.665665864944458,-1.1277203559875488,3.952031373977661,3.7799999999999634
1.8355560302734375,-4.526827812194824,0.930131196975708,3.789999999999963
2.4740982055664062,-5.411454200744629,-3.0904829502105713,3.799999999999963
2.4391016960144043,-4.039310455322266,-3.589890480041504,3.8099999999999627
2.473844051361084,-2.234818935394287,-3.1939079761505127,3.8199999999999625
3.532437324523926,-0.4235801696777344,-2.929048776626587,3.8299999999999623
4.287919044494629,1.5098772048950195,-2.3076820373535156,3.839999999999962
3.812204122543335,2.3596086502075195,-2.007627010345459,3.849999999999962
2.5710856914520264,1.4138202667236328,-2.396660804748535,3.8599999999999617
0.9036057591438293,-0.9995718002319336,-3.3113982677459717,3.8699999999999615
-0.6900814175605774,-2.817780017852783,-3.1645493507385254,3.8799999999999613
-2.2952828407287598,-3.849872589111328,-2.3797318935394287,3.889999999999961
-3.155609130859375,-3.983738422393799,-1.3656225204467773,3.899999999999961
-2.9586970806121826,-3.640998363494873,-0.8253586292266846,3.9099999999999606
-2.379885673522949,-2.9666881561279297,-0.4977203607559204,3.9199999999999604
-1.417649269104004,-2.160025119781494,-0.3631521463394165,3.92999999999996
-0.5937204957008362,-1.6380176544189453,-0.497616708278656,3.93999999999996
0.30344894528388977,-1.1251344680786133,-1.0060802698135376,3.9499999999999598
1.2284399271011353,-0.6858100891113281,-1.5274503231048584,3.9599999999999596
1.2116328477859497,-0.7005987167358398,-1.3683552742004395,3.9699999999999593
2.115046501159668,-0.4896812438964844,-1.7731003761291504,3.979999999999959
1.987598180770874,-0.5775070190429688,-1.1824266910552979,3.989999999999959
1.879558801651001,-0.7752513885498047,-0.08174166083335876,3.9999999999999587
1.9469366073608398,-1.0809688568115234,1.5773650407791138,4.009999999999959
2.0545971393585205,-1.2532539367675781,2.6529440879821777,4.019999999999959
2.3042964935302734,-1.431161880493164,3.0663704872131348,4.0299999999999585
2.3889474868774414,-1.3371086120605469,2.8701512813568115,4.039999999999958
2.217604398727417,-0.9757928848266602,2.1869492530822754,4.049999999999958
1.9312336444854736,-0.6894083023071289,1.4936879873275757,4.059999999999958
1.6582801342010498,-0.3989095687866211,1.0165836811065674,4.069999999999958
1.3636531829833984,-0.3368368148803711,1.2507100105285645,4.079999999999957
0.9222456216812134,-0.32157325744628906,1.3208045959472656,4.089999999999957
0.30544009804725647,-0.2215280532836914,1.0956847667694092,4.099999999999957
-0.4525541067123413,0.2145681381225586,0.8679603338241577,4.109999999999957
-0.9975298643112183,1.020172119140625,0.8174573183059692,4.119999999999957
-1.3535479307174683,1.7328758239746094,1.3114807605743408,4.129999999999956
-1.401050329208374,2.083930015563965,2.058676242828369,4.139999999999956
-0.8078088760375977,1.8353538513183594,3.0489587783813477,4.149999999999956
0.8443214893341064,0.9934978485107422,3.6175923347473145,4.159999999999956
2.9801595211029053,0.35066890716552734,3.1189942359924316,4.1699999999999555
3.951984167098999,0.5296955108642578,2.682875156402588,4.179999999999955
4.486698627471924,0.8980579376220703,2.845580577850342,4.189999999999955
4.577840805053711,1.1875696182250977,3.1593470573425293,4.199999999999955
4.212092399597168,1.6403989791870117,2.5235605239868164,4.209999999999955
3.2388389110565186,2.5057830810546875,0.47229814529418945,4.2199999999999545
2.12788987159729,3.54207706451416,-1.2508121728897095,4.229999999999954
1.3901984691619873,4.348817825317383,-1.7732269763946533,4.239999999999954
0.4749106764793396,4.983522415161133,-2.4448375701904297,4.249999999999954
-0.24372422695159912,4.724039077758789,-2.8280463218688965,4.259999999999954
-1.0028012990951538,4.074190139770508,-2.094503164291382,4.269999999999953
-2.293065071105957,3.6453075408935547,-1.0172475576400757,4.279999999999953
-3.6273584365844727,4.878365516662598,-0.5938011407852173,4.289999999999953
-3.640596389770508,5.945013046264648,-0.36484649777412415,4.299999999999953
-2.6040468215942383,5.7091474533081055,-0.47504204511642456,4.3099999999999525
-2.6104607582092285,4.997562408447266,-2.073899745941162,4.319999999999952
-3.2675771713256836,4.54810905456543,-4.712092399597168,4.329999999999952
-3.189175605773926,4.109931945800781,-5.701048851013184,4.339999999999952
-2.6485953330993652,3.5092201232910156,-3.748596668243408,4.349999999999952
-2.6692557334899902,3.123629570007324,-2.832423686981201,4.3599999999999515
-2.5291266441345215,1.7924814224243164,-2.545478343963623,4.369999999999951
-2.381239652633667,-0.1524333953857422,-1.9040940999984741,4.379999999999951
-2.4028162956237793,-1.9242749214172363,-0.022448301315307617,4.389999999999951
-1.5526492595672607,-3.336230754852295,2.777510643005371,4.399999999999951
-0.25045180320739746,-3.6470999717712402,2.8185293674468994,4.40999999999995
0.857867419719696,-3.2103219032287598,0.5523960590362549,4.41999999999995
1.7431402206420898,-2.8629465103149414,-1.7116016149520874,4.42999999999995
2.5485925674438477,-3.690070152282715,-2.8295905590057373,4.43999999999995
2.3060684204101562,-4.0975236892700195,-2.4752821922302246,4.4499999999999496
1.7378700971603394,-5.060744285583496,-1.4619348049163818,4.459999999999949
1.454859733581543,-5.897819995880127,-1.3723981380462646,4.469999999999949
0.8113946914672852,-6.0539231300354,-1.4539930820465088,4.479999999999949
-0.33433377742767334,-5.475110054016113,-1.4604308605194092,4.489999999999949
-1.1587746143341064,-5.04693603515625,-1.6619689464569092,4.4999999999999485
-1.5620968341827393,-4.537915229797363,-1.579209327697754,4.509999999999948
-1.895114541053772,-3.6981897354125977,-1.0638689994812012,4.519999999999948
-2.0070018768310547,-2.724231243133545,-0.7044820785522461,4.529999999999948
-1.9932818412780762,-2.219757080078125,-0.5415573120117188,4.539999999999948
-1.904789924621582,-2.0431442260742188,-0.1515805721282959,4.549999999999947
-1.66982102394104,-2.3249244689941406,0.43642473220825195,4.559999999999947
-1.2629427909851074,-2.8700528144836426,1.0797390937805176,4.569999999999947
-1.2656227350234985,-2.90812349319458,1.1622192859649658,4.579999999999947
-0.3956395387649536,-3.0358095169067383,1.856867790222168,4.589999999999947
-0.2333444356918335,-2.5738863945007324,1.8140065670013428,4.599999999999946
-0.08468639850616455,-2.0736074447631836,1.4874353408813477,4.609999999999946
-0.11259925365447998,-1.4829607009887695,1.1644952297210693,4.619999999999946
-0.3210909366607666,-0.8542394638061523,1.3810691833496094,4.629999999999946
-0.6078523397445679,0.05191516876220703,1.5699951648712158,4.6399999999999455
-0.7484917640686035,1.7272844314575195,1.8503444194793701,4.649999999999945
-0.8425889015197754,3.2404565811157227,2.5064332485198975,4.659999999999945
-1.3515814542770386,4.653664588928223,3.378105401992798,4.669999999999945
-2.4833922386169434,5.144845962524414,4.046168804168701,4.679999999999945
-3.844118118286133,4.0338544845581055,4.47862434387207,4.689999999999944
-4.622527122497559,1.3120555877685547,3.9197754859924316,4.699999999999944
-3.611903429031372,-2.3581771850585938,2.3542678356170654,4.709999999999944
-1.827498197555542,-4.033239364624023,1.414931058883667,4.719999999999944
-0.3441809415817261,-1.655921459197998,1.2460179328918457,4.729999999999944
-0.8422051668167114,4.133535385131836,0.21490025520324707,4.739999999999943
-0.8657809495925903,9.977412223815918,-5.057068824768066,4.749999999999943
-1.1961965560913086,14.773425102233887,-6.286030292510986,4.759999999999943
-0.2964073419570923,16.705718994140625,-6.154236316680908,4.769999999999943
2.1617913246154785,10.594857215881348,-4.036497116088867,4.7799999999999425
1.0189549922943115,0.42018604278564453,1.551356554031372,4.789999999999942
0.08063018321990967,-6.769155025482178,0.6997594833374023,4.799999999999942
0.6328231692314148,-10.044950485229492,-3.9805684089660645,4.809999999999942
0.525382936000824,-9.756003379821777,-5.132704734802246,4.819999999999942
1.7127028703689575,-6.265582084655762,-3.3743512630462646,4.8299999999999415
3.577080011367798,-2.1857638359069824,-2.11885929107666,4.839999999999941
4.835729598999023,2.1434717178344727,-0.4562649726867676,4.849999999999941
4.787189483642578,5.15656852722168,0.723280668258667,4.859999999999941
3.638674259185791,5.584902763366699,-0.487060546875,4.869999999999941
1.7022264003753662,2.8663978576660156,-2.264066696166992,4.87999999999994
0.3866296112537384,-1.4915733337402344,-4.31488037109375,4.88999999999994
-0.46503663063049316,-4.066219806671143,-4.339646816253662,4.89999999999994
-1.5306202173233032,-5.710434913635254,-3.499077796936035,4.90999999999994
-2.679953098297119,-5.699384689331055,-2.3093037605285645,4.9199999999999395
-2.9194633960723877,-4.593789100646973,-1.2945274114608765,4.929999999999939
-2.357593297958374,-2.9655442237854004,-0.5961639285087585,4.939999999999939
-1.496429681777954,-1.2695837020874023,-0.530331552028656,4.949999999999939
-0.8623995780944824,-0.006905555725097656,-1.0143674612045288,4.959999999999939
0.1861914098262787,0.7770919799804688,-1.430610179901123,4.9699999999999385
1.0351831912994385,0.6726465225219727,-1.6490700244903564,4.979999999999938
1.4874515533447266,0.02452564239501953,-1.3131616115570068,4.989999999999938
1.6170191764831543,-0.7576770782470703,-0.37255173921585083,4.999999999999938
1.7833170890808105,-1.3771438598632812,1.1175352334976196,5.009999999999938
1.9538941383361816,-1.6808958053588867,1.875978946685791,5.019999999999937
2.020829200744629,-1.7267866134643555,2.148820161819458,5.029999999999937
2.188225507736206,-1.81901216506958,1.691624641418457,5.039999999999937
2.186879873275757,-1.8185391426086426,1.8141766786575317,5.049999999999937
2.273294448852539,-1.425806999206543,0.029015883803367615,5.0599999999999365
1.7069978713989258,-0.9638938903808594,0.08652472496032715,5.069999999999936
1.0363572835922241,-0.6557540893554688,0.6654525399208069,5.079999999999936
0.2930533289909363,-0.41553401947021484,1.353614091873169,5.089999999999936
-0.27617213129997253,-0.14488697052001953,2.0255112648010254,5.099999999999936
-0.676559567451477,0.26177310943603516,2.5829291343688965,5.1099999999999355
-0.7539810538291931,0.6008491516113281,2.9349260330200195,5.119999999999935
-0.4415603280067444,0.754817008972168,2.8733882904052734,5.129999999999935
0.13843631744384766,0.8310308456420898,2.764026165008545,5.139999999999935
0.7953466773033142,1.1436824798583984,2.4650490283966064,5.149999999999935
1.3238157033920288,1.5511598587036133,2.238168954849243,5.159999999999934
1.881635308265686,1.777207374572754,2.334848165512085,5.169999999999934
2.4975876808166504,1.8883886337280273,2.0805206298828125,5.179999999999934
2.749356746673584,2.27923583984375,1.7952244281768799,5.189999999999934
2.640366554260254,2.580310821533203,1.8713524341583252,5.199999999999934
2.3780429363250732,2.8177261352539062,1.6469591856002808,5.209999999999933
2.219792127609253,2.9607973098754883,0.6367549896240234,5.219999999999933
2.0827770233154297,3.622028350830078,-0.1768859624862671,5.229999999999933
1.9112205505371094,4.647626876831055,-0.5210996866226196,5.239999999999933
1.5016615390777588,5.463726043701172,-1.804192066192627,5.2499999999999325
1.3715143203735352,5.161375045776367,-2.9069228172302246,5.259999999999932
0.274699866771698,4.40557861328125,-3.3658628463745117,5.269999999999932
-1.9247655868530273,3.722418785095215,-3.060154914855957,5.279999999999932
-4.71732759475708,3.803717613220215,-0.9575992822647095,5.289999999999932
-6.378108024597168,3.6011600494384766,0.18372327089309692,5.299999999999931
-5.271215438842773,2.787973403930664,-0.05020035058259964,5.309999999999931
-3.6274776458740234,2.562411308288574,-0.8628937005996704,5.319999999999931
-2.451529026031494,2.653919219970703,-1.7828781604766846,5.329999999999931
-1.4504761695861816,2.6242446899414062,-2.8560996055603027,5.339999999999931
-0.8442652821540833,2.5486230850219727,-3.4810242652893066,5.34999999999993
-0.8287813663482666,2.513212203979492,-3.4160218238830566,5.35999999999993
-1.0688081979751587,2.2850637435913086,-3.104424476623535,5.36999999999993
-1.2359809875488281,1.2514677047729492,-3.000828266143799,5.37999999999993
-1.5784790515899658,-0.49573802947998047,-2.775524377822876,5.3899999999999295
-1.6883853673934937,-1.962235927581787,-1.7027697563171387,5.399999999999929
-0.9944384098052979,-3.221951484680176,0.5117003917694092,5.409999999999929
-0.22683286666870117,-3.6762919425964355,2.0583231449127197,5.419999999999929
0.6614722013473511,-2.6804208755493164,1.259160041809082,5.429999999999929
0.8413829803466797,-2.2902135848999023,-0.21137213706970215,5.4399999999999284
0.8802639245986938,-2.4475250244140625,-1.2486212253570557,5.449999999999928
0.7220097780227661,-2.5026421546936035,-1.2848031520843506,5.459999999999928
0.6105746030807495,-3.09824800491333,-1.657691478729248,5.469999999999928
0.5896497368812561,-4.515782833099365,-1.4348065853118896,5.479999999999928
0.27890777587890625,-4.659651279449463,-1.25565505027771,5.489999999999927
-0.2973508834838867,-4.284070014953613,-1.3183164596557617,5.499999999999927
-0.9534478187561035,-4.041317939758301,-1.7492578029632568,5.509999999999927
-0.8610587120056152,-3.9930315017700195,-1.813502550125122,5.519999999999927
-1.6576138734817505,-3.253908634185791,-1.8007898330688477,5.5299999999999265
-1.673956274986267,-3.10089111328125,-1.680663824081421,5.539999999999926
-1.4323490858078003,-3.062809944152832,-1.370530605316162,5.549999999999926
-1.1297495365142822,-3.320070743560791,-0.8851985931396484,5.559999999999926
-0.6962343454360962,-3.719749927520752,0.046488285064697266,5.569999999999926
-0.30437517166137695,-4.13444709777832,1.2226142883300781,5.5799999999999255
0.1697303056716919,-4.323923110961914,2.1356301307678223,5.589999999999925
0.4731842279434204,-3.927783489227295,2.3932249546051025,5.599999999999925
0.6494232416152954,-3.2447075843811035,2.0038695335388184,5.609999999999925
0.15502452850341797,-2.6546053886413574,2.0550777912139893,5.619999999999925
-0.41659605503082275,-1.8535757064819336,2.150197744369507,5.629999999999924
-0.5699613094329834,-0.7734689712524414,2.0684711933135986,5.639999999999924
-0.2196946144104004,0.9439697265625,1.425018310546875,5.649999999999924
-0.07326579093933105,3.1365365982055664,1.1395201683044434,5.659999999999924
-0.9262934923171997,6.053377151489258,2.2200934886932373,5.6699999999999235
-2.02262282371521,8.139220237731934,3.840501070022583,5.679999999999923
-3.023298978805542,6.8937883377075195,5.322436332702637,5.689999999999923
-4.342916011810303,3.577815055847168,5.464426040649414,5.699999999999923
-5.036332607269287,-0.012826919555664062,4.1860127449035645,5.709999999999923
-3.936677932739258,-2.378211498260498,2.643329620361328,5.7199999999999225
-0.8406901359558105,1.1537895202636719,0.8762602806091309,5.729999999999922
-0.8389424085617065,1.1832571029663086,0.8008897304534912,5.739999999999922
-1.6766942739486694,11.364460945129395,-5.584094047546387,5.749999999999922
-1.634380578994751,12.792173385620117,-8.224966049194336,5.759999999999922
0.9138806462287903,10.321864128112793,-6.016128063201904,5.769999999999921
3.9752843379974365,4.106899261474609,0.7540934085845947,5.779999999999921
3.882446765899658,-3.108975410461426,2.5366272926330566,5.789999999999921
2.298107147216797,-6.451772689819336,-2.146057605743408,5.799999999999921
1.29228675365448,-7.995293140411377,-7.064256191253662,5.809999999999921
1.160304307937622,-8.04910945892334,-6.978934288024902,5.81999999999992
0.6232730150222778,-3.984104633331299,-4.8350629806518555,5.82999999999992
1.9778931140899658,-0.6490087509155273,-2.2555289268493652,5.83999999999992
2.830923318862915,2.223605155944824,-1.0727713108062744,5.84999999999992
2.609333038330078,3.513387680053711,-0.8081066608428955,5.8599999999999195
1.7433998584747314,3.313584327697754,-1.307249665260315,5.869999999999919
0.6507803201675415,1.7464685440063477,-2.1476938724517822,5.879999999999919
-0.057050228118896484,-0.3938179016113281,-2.4601235389709473,5.889999999999919
-0.7288581132888794,-2.756438732147217,-2.521104335784912,5.899999999999919
-1.0663652420043945,-4.077762603759766,-1.9207394123077393,5.909999999999918
-1.2272346019744873,-4.319787979125977,-1.5110300779342651,5.919999999999918
-1.3650562763214111,-3.5030388832092285,-0.9458130598068237,5.929999999999918
-1.2621841430664062,-2.2623915672302246,-0.6680123805999756,5.939999999999918
-0.49600791931152344,-1.1045827865600586,-0.6768590807914734,5.949999999999918
0.44456765055656433,-0.27474021911621094,-0.9179099798202515,5.959999999999917
1.2774157524108887,-0.10592174530029297,-1.266634225845337,5.969999999999917
1.379910945892334,-0.4449043273925781,-1.2732365131378174,5.979999999999917
1.2018998861312866,-0.9918537139892578,-1.05222749710083,5.989999999999917
1.1978150606155396,-1.4402341842651367,-0.6438002586364746,5.9999999999999165
1.502314805984497,-1.6130962371826172,-0.0018947124481201172,6.009999999999916
1.9087791442871094,-1.496159553527832,0.5631884336471558,6.019999999999916
2.240777015686035,-1.0776948928833008,0.8922648429870605,6.029999999999916
2.370340585708618,-0.8943185806274414,0.9137730002403259,6.039999999999916
2.311692237854004,-0.7930011749267578,0.6680750250816345,6.0499999999999154
1.8778502941131592,-0.8479795455932617,0.5011501312255859,6.059999999999915
1.428495168685913,-1.121382713317871,0.7940067052841187,6.069999999999915
1.0664000511169434,-1.1296148300170898,1.3655965328216553,6.079999999999915
0.8568494319915771,-0.6595802307128906,1.8515856266021729,6.089999999999915
0.5617349743843079,-0.2189016342163086,2.2433857917785645,6.099999999999914
0.16297703981399536,0.06779766082763672,2.5451290607452393,6.109999999999914
-0.15012073516845703,0.10938644409179688,2.5365943908691406,6.119999999999914
-0.21998250484466553,0.10932540893554688,2.184272289276123,6.129999999999914
0.09775930643081665,0.24208831787109375,1.772242784500122,6.1399999999999135
0.5448859930038452,0.7966375350952148,1.7374720573425293,6.149999999999913
0.8049978613853455,1.408005714416504,2.090763807296753,6.159999999999913
1.0214831829071045,1.806971549987793,2.687310218811035,6.169999999999913
1.181221604347229,1.789438247680664,2.9536051750183105,6.179999999999913
1.3521149158477783,1.6354618072509766,2.5360147953033447,6.1899999999999125
1.9191585779190063,1.5652904510498047,2.1420605182647705,6.199999999999912
2.459385871887207,1.8131732940673828,1.833756923675537,6.209999999999912
2.8358888626098633,2.348054885864258,0.8250583410263062,6.219999999999912
2.906097412109375,3.394908905029297,-0.6663172245025635,6.229999999999912
2.836710214614868,4.5802154541015625,-1.2715529203414917,6.239999999999911
2.7860894203186035,5.964277267456055,-1.8563756942749023,6.249999999999911
2.454906940460205,6.016017913818359,-2.6812450885772705,6.259999999999911
1.105819582939148,5.07796573638916,-3.3647713661193848,6.269999999999911
-0.2664223909378052,4.213486671447754,-3.016364574432373,6.2799999999999105
-2.4408605098724365,3.491847038269043,-1.5597476959228516,6.28999999999991
-4.500169277191162,2.963128089904785,-0.06814144551753998,6.29999999999991
-5.313451766967773,2.7239484786987305,0.16548657417297363,6.30999999999991
-4.479079246520996,3.043421745300293,-0.39506614208221436,6.31999999999991
-2.687161445617676,3.817241668701172,-1.1955106258392334,6.3299999999999095
-1.983318567276001,4.1016998291015625,-2.817171573638916,6.339999999999909
-1.37053644657135,3.8519325256347656,-3.903886079788208,6.349999999999909
-0.7009761333465576,3.2425060272216797,-3.8719451427459717,6.359999999999909
-0.04565912485122681,2.203803062438965,-3.3501744270324707,6.369999999999909
-0.41459959745407104,1.160202980041504,-3.064265251159668,6.379999999999908
-0.8323647975921631,-0.18030357360839844,-2.968085765838623,6.389999999999908
-0.9447197318077087,-1.1172714233398438,-2.47087025642395,6.399999999999908
-0.8502488732337952,-2.396432399749756,-1.2269558906555176,6.409999999999908
-0.36629778146743774,-3.979520797729492,0.26596546173095703,6.419999999999908
0.6178141832351685,-4.313738822937012,1.602200984954834,6.429999999999907
1.5426750183105469,-3.93143892288208,0.7533590793609619,6.439999999999907
1.904070258140564,-3.4175782203674316,-0.7729830741882324,6.449999999999907
1.3277547359466553,-2.620478630065918,-1.00795316696167,6.459999999999907
1.278615951538086,-3.3423924446105957,-1.635958194732666,6.4699999999999065
1.33511221408844,-3.2720189094543457,-1.7825322151184082,6.479999999999906
0.5164487361907959,-3.9025492668151855,-1.8926713466644287,6.489999999999906
-0.05897855758666992,-3.530567169189453,-1.5411367416381836,6.499999999999906
-0.7751470804214478,-3.2756285667419434,-1.4015297889709473,6.509999999999906
-1.205585241317749,-3.425295352935791,-1.4453160762786865,6.519999999999905
-1.695164442062378,-3.374135971069336,-1.6025919914245605,6.529999999999905
-2.058732271194458,-3.238560199737549,-1.5617706775665283,6.539999999999905
-2.132570505142212,-3.166186809539795,-1.4087843894958496,6.549999999999905
-1.9395791292190552,-3.084289073944092,-1.1070995330810547,6.559999999999905
-1.4308055639266968,-3.205183982849121,-0.5250663757324219,6.569999999999904
-0.9412635564804077,-3.3080573081970215,-0.047730445861816406,6.579999999999904
-0.4795781373977661,-3.384078025817871,0.8838071823120117,6.589999999999904
-0.1671276092529297,-3.1701788902282715,1.7092576026916504,6.599999999999904
-0.16018331050872803,-2.8639655113220215,2.1320748329162598,6.6099999999999035
-0.2590714693069458,-2.428175926208496,1.9197816848754883,6.619999999999903
-0.4785405397415161,-1.548231601715088,0.9927361011505127,6.629999999999903
-0.5929025411605835,-0.7176094055175781,0.3591904640197754,6.639999999999903
-0.5229355096817017,0.35898876190185547,0.7223532199859619,6.649999999999903
-0.3248804807662964,1.6675472259521484,1.6752896308898926,6.659999999999902
-0.2166733741760254,3.1551332473754883,2.719701051712036,6.669999999999902
0.04505789279937744,4.6768646240234375,3.5240683555603027,6.679999999999902
0.24517595767974854,5.307367324829102,3.954880714416504,6.689999999999902
0.15389883518218994,3.890249252319336,4.293556213378906,6.699999999999902
-0.1032484769821167,1.553934097290039,4.697819709777832,6.709999999999901
-0.8939331769943237,-0.6305446624755859,4.408079147338867,6.719999999999901
-1.356568455696106,-2.03469181060791,2.9884157180786133,6.729999999999901
-1.2899279594421387,-0.6305627822875977,0.9286279678344727,6.739999999999901
-2.062648296356201,3.5904741287231445,-0.4270608425140381,6.7499999999999005
-2.360836982727051,7.989542007446289,-3.8725409507751465,6.7599999999999
-4.517453193664551,13.120438575744629,-7.069886684417725,6.7699999999999
-6.880942344665527,15.105569839477539,-9.198470115661621,6.7799999999999
-2.801055431365967,11.447596549987793,-8.2916841506958,6.7899999999999
1.7039573192596436,2.793238639831543,-0.5819752216339111,6.7999999999998995
2.357618570327759,-5.961505889892578,4.706874370574951,6.809999999999899
2.572390556335449,-9.261035919189453,-0.4191925525665283,6.819999999999899
2.6905736923217773,-9.748518943786621,-5.710488319396973,6.829999999999899
1.7206329107284546,-7.300361156463623,-6.886231422424316,6.839999999999899
2.1088147163391113,-2.9138994216918945,-4.82465934753418,6.849999999999898
2.983894109725952,1.427358627319336,-2.28741717338562,6.859999999999898
3.263582706451416,5.191196441650391,-0.01746845245361328,6.869999999999898
2.6721291542053223,6.279847145080566,0.07576751708984375,6.879999999999898
1.4498186111450195,4.611197471618652,-1.6183576583862305,6.8899999999998975
0.29120320081710815,0.943812370300293,-3.149564027786255,6.899999999999897
-0.4161508083343506,-2.486595630645752,-3.526702404022217,6.909999999999897
-1.0534822940826416,-4.700450897216797,-2.8124029636383057,6.919999999999897
-1.9785969257354736,-5.169403076171875,-1.6302268505096436,6.929999999999897
-2.7121529579162598,-4.041038990020752,-0.5740369558334351,6.9399999999998965
-2.820216178894043,-2.563180446624756,0.25307416915893555,6.949999999999896
-1.9898698329925537,-1.563192367553711,0.43056929111480713,6.959999999999896
-0.8777250051498413,-0.9180355072021484,0.21178209781646729,6.969999999999896
0.3948281705379486,-0.6949739456176758,-0.28775477409362793,6.979999999999896
1.4274269342422485,-0.7094898223876953,-0.5995247960090637,6.989999999999895
1.4062292575836182,-0.7289266586303711,-0.4527905583381653,6.999999999999895
2.045356035232544,-0.8461856842041016,-0.8186103105545044,7.009999999999895
2.126681327819824,-0.9729604721069336,-0.6715443134307861,7.019999999999895
1.9890797138214111,-1.0254716873168945,-0.16300463676452637,7.0299999999998946
1.968738317489624,-1.0349254608154297,-0.03599095344543457,7.039999999999894
1.7146435976028442,-1.0805530548095703,0.8488225936889648,7.049999999999894
1.7371457815170288,-1.0094566345214844,1.0479686260223389,7.059999999999894
1.8106815814971924,-1.046891212463379,1.0317822694778442,7.069999999999894
1.4404793977737427,-1.0109777450561523,1.150781273841858,7.0799999999998935
0.9964458346366882,-0.868316650390625,1.568786382675171,7.089999999999893
0.3804858326911926,-0.6262044906616211,2.005676507949829,7.099999999999893
0.14040465652942657,-0.39967823028564453,2.1395020484924316,7.109999999999893
0.10401207208633423,-0.3444023132324219,2.024955987930298,7.119999999999893
0.09923726320266724,-0.2521629333496094,1.936065435409546,7.129999999999892
0.219455748796463,-0.18294143676757812,1.6899380683898926,7.139999999999892
0.4195556342601776,0.088104248046875,1.107883334159851,7.149999999999892
0.5383927822113037,0.5488624572753906,0.5625624060630798,7.159999999999892
0.6111878752708435,1.1630773544311523,0.3685555160045624,7.169999999999892
0.7211847305297852,1.3291311264038086,0.721442699432373,7.179999999999891
0.9496662616729736,1.237931251525879,1.3666471242904663,7.189999999999891
1.1356858015060425,1.075892448425293,1.8447245359420776,7.199999999999891
1.2449679374694824,1.096658706665039,2.2252697944641113,7.209999999999891
1.550408959388733,1.1771459579467773,2.6790695190429688,7.2199999999998905
2.1396281719207764,0.9667139053344727,2.0338802337646484,7.22999999999989
2.0959949493408203,0.8586959838867188,1.0626025199890137,7.23999999999989
1.8005456924438477,1.150099754333496,0.14366629719734192,7.24999999999989
1.126225233078003,1.9774837493896484,-0.6094652414321899,7.25999999999989
-0.09880030155181885,3.4011659622192383,-1.3538302183151245,7.269999999999889
-1.0690165758132935,4.274929046630859,-1.7057380676269531,7.279999999999889
-1.6312720775604248,3.513263702392578,-0.1046023890376091,7.289999999999889
-1.7439377307891846,2.8717527389526367,0.7515032291412354,7.299999999999889
-1.3022346496582031,3.03076171875,0.6143933534622192,7.309999999999889
-0.7967237234115601,4.147568702697754,-0.24343129992485046,7.319999999999888
-0.5792800784111023,5.616257667541504,-1.8985581398010254,7.329999999999888
-0.9627411365509033,5.69862174987793,-4.516425132751465,7.339999999999888
-1.9541856050491333,4.982578277587891,-6.192172050476074,7.349999999999888
-2.6761577129364014,5.165757179260254,-5.325712203979492,7.3599999999998875
-2.779381513595581,5.358380317687988,-3.7634334564208984,7.369999999999887
-2.6984543800354004,4.321611404418945,-2.8418807983398438,7.379999999999887
-3.0042595863342285,2.9409027099609375,-2.4020586013793945,7.389999999999887
-3.613406181335449,1.1088619232177734,-2.131251811981201,7.399999999999887
-3.4355525970458984,-1.2852191925048828,-1.513819932937622,7.4099999999998865
-2.477463483810425,-2.66241455078125,0.19276189804077148,7.419999999999886
-1.5172803401947021,-2.904454231262207,1.3368642330169678,7.429999999999886
-0.29604077339172363,-2.56744384765625,0.5970768928527832,7.439999999999886
0.5065207481384277,-2.0334768295288086,-1.8195542097091675,7.449999999999886
1.3408408164978027,-2.3583736419677734,-3.4503633975982666,7.459999999999885
1.7922815084457397,-2.930619716644287,-3.360384464263916,7.469999999999885
1.9196386337280273,-2.98598575592041,-2.3352890014648438,7.479999999999885
1.0767444372177124,-3.2671127319335938,-1.0315773487091064,7.489999999999885
-0.0907982587814331,-3.0578341484069824,-0.432171106338501,7.4999999999998845
-0.3145790100097656,-3.443047046661377,-1.2411510944366455,7.509999999999884
-0.5355514287948608,-4.028217315673828,-2.254845142364502,7.519999999999884
-0.7797765731811523,-4.025152206420898,-1.6991281509399414,7.529999999999884
-1.1128824949264526,-3.67203426361084,-1.0957534313201904,7.539999999999884
-1.3304802179336548,-3.1164450645446777,-0.4813823699951172,7.5499999999998835
-1.5944427251815796,-2.699341297149658,-0.2673492431640625,7.559999999999883
-0.9280105829238892,-2.553752899169922,-0.009601593017578125,7.569999999999883
-0.9955800771713257,-2.309093475341797,0.06588363647460938,7.579999999999883
-0.8533443212509155,-2.1935291290283203,0.28292274475097656,7.589999999999883
-0.4477500915527344,-2.571866035461426,0.16852807998657227,7.599999999999882
-0.5858408212661743,-2.4584455490112305,-0.01781463623046875,7.609999999999882
-0.40468811988830566,-2.674288272857666,0.26403117179870605,7.619999999999882
-0.33023929595947266,-3.2155041694641113,0.5717606544494629,7.629999999999882
-0.11974883079528809,-3.0863590240478516,0.2564663887023926,7.6399999999998816
0.3442579507827759,-2.078369140625,0.1383836269378662,7.649999999999881
0.9438292980194092,-0.7336282730102539,0.4011833667755127,7.659999999999881
1.458356261253357,0.9656248092651367,0.5601654052734375,7.669999999999881
1.4472469091415405,2.128335952758789,0.8448448181152344,7.679999999999881
0.7495983839035034,2.9049606323242188,1.3923544883728027,7.6899999999998805
-0.5132184028625488,3.162247657775879,1.6028308868408203,7.69999999999988
-1.8450112342834473,2.444403648376465,1.2002599239349365,7.70999999999988
-2.763043165206909,1.6903076171875,0.9652016162872314,7.71999999999988
-3.9635658264160156,1.018906593322754,0.2190718650817871,7.72999999999988
-4.856602668762207,0.637359619140625,0.18646240234375,7.739999999999879
-4.531457901000977,1.337815284729004,0.2762773036956787,7.749999999999879
-3.379042148590088,3.815946578979492,-1.5381178855895996,7.759999999999879
-3.0870747566223145,6.836933135986328,-5.19035530090332,7.769999999999879
-3.3502511978149414,7.96871280670166,-7.332789421081543,7.779999999999879
0.2563021183013916,7.852205276489258,-6.077966690063477,7.789999999999878
2.3669347763061523,7.015423774719238,-0.14899873733520508,7.799999999999878
4.279699325561523,3.828494071960449,3.571322441101074,7.809999999999878
4.9700727462768555,0.47707462310791016,2.2056899070739746,7.819999999999878
4.67367696762085,-2.0946240425109863,-2.051131010055542,7.8299999999998775
3.126847982406616,-2.3423242568969727,-5.449749946594238,7.839999999999877
1.339226484298706,-1.054959774017334,-6.2485504150390625,7.849999999999877
1.2658207416534424,0.5420007705688477,-4.546116828918457,7.859999999999877
1.062603235244751,2.2860031127929688,-1.512779951095581,7.869999999999877
0.7173683643341064,3.3091163635253906,0.10513782501220703,7.879999999999876
0.4999513626098633,3.195556640625,-0.8344266414642334,7.889999999999876
0.42617881298065186,2.2799549102783203,-2.2018656730651855,7.899999999999876
0.22410798072814941,1.0060243606567383,-2.7920451164245605,7.909999999999876
-0.46151888370513916,-0.05688190460205078,-2.6816394329071045,7.919999999999876
-0.6754008531570435,-0.9419097900390625,-2.3630661964416504,7.929999999999875
-0.8745063543319702,-1.582827091217041,-2.0325443744659424,7.939999999999875
-0.5342612266540527,-1.7814135551452637,-1.976589560508728,7.949999999999875
0.18208324909210205,-1.369741439819336,-2.355250358581543,7.959999999999875
1.2491085529327393,-0.5380258560180664,-3.043914318084717,7.9699999999998745
1.4663056135177612,0.42765140533447266,-3.387338399887085,7.979999999999874
1.636147379875183,0.8463830947875977,-3.1116137504577637,7.989999999999874
1.336672067642212,1.1563720703125,-2.1529715061187744,7.999999999999874
