AccX,AccY,AccZ,stepCount
-1.1398591995239258,-4.38511323928833,-0.6982362270355225,1.4265327453613281
-1.0434660911560059,-4.087865829467773,-0.4453260898590088,-4.2530083656311035
-0.9738593101501465,-3.871492862701416,-0.1575300693511963,3.648064613342285
-0.8190357089042664,-3.778841495513916,0.11740779876708984,-2.429314374923706
-0.6965615749359131,-3.7068629264831543,0.44414472579956055,-4.992008209228516
-0.5968707203865051,-3.61714506149292,0.700535774230957,4.546148300170898
-0.6057477593421936,-3.4496817588806152,0.9076159000396729,-0.43053555488586426
-0.6797446012496948,-3.2306060791015625,1.1126337051391602,0
-0.8137654662132263,-2.9477171897888184,1.341113805770874,0
-1.002734899520874,-2.521897315979004,1.6400320529937744,0
-0.8488357663154602,-2.156357765197754,2.0084540843963623,0
-0.7299010753631592,-1.6976161003112793,2.44746732711792,0
-0.4950656294822693,-0.9492340087890625,2.921881914138794,0
-0.11331427097320557,-0.10436248779296875,3.127657890319824,0
0.5036634206771851,0.9334840774536133,3.076364517211914,0
1.2294551134109497,2.04329776763916,2.6624741554260254,0
2.210197925567627,3.409926414489746,2.190443754196167,0
3.031251907348633,4.725408554077148,1.6518559455871582,0
3.776554584503174,5.734371185302734,1.1423120498657227,0
4.119781494140625,6.219493865966797,1.0814857482910156,0
3.795290946960449,6.180700302124023,1.6034364700317383,0
3.5105276107788086,5.371211051940918,2.495831251144409,0
3.232220411300659,4.445843696594238,3.426574945449829,0
2.3891210556030273,3.6954193115234375,4.046215057373047,0
1.4053019285202026,3.0591354370117188,4.679129600524902,0
0.4691734313964844,2.356806755065918,5.316879749298096,0
-0.29407942295074463,1.5258617401123047,5.6590118408203125,0
-0.7000081539154053,0.45621299743652344,5.589094161987305,0
-0.7820188403129578,-0.744105339050293,4.788954257965088,0
-0.8792819976806641,-1.8425474166870117,3.4372220039367676,0
-1.052619218826294,-2.167057514190674,1.6573033332824707,0
-1.1929931640625,-0.8966093063354492,0.4899444580078125,0
-1.4661736488342285,1.1790237426757812,0.047032833099365234,0
-1.704761266708374,3.4356918334960938,-0.688805341720581,0
-1.8735249042510986,5.066473007202148,-2.249255657196045,0
-2.0250630378723145,6.36799430847168,-3.5978710651397705,0
-2.059807062149048,6.813811302185059,-4.0368242263793945,0
-2.5313925743103027,6.897123336791992,-3.738929033279419,0
-3.0607261657714844,6.310528755187988,-3.3222544193267822,0
-3.6722500324249268,5.113720893859863,-3.1675524711608887,0
-4.473876953125,3.732916831970215,-3.219729423522949,0
-4.412365913391113,2.276010513305664,-2.53464412689209,0
-3.9722914695739746,1.3670215606689453,-1.0027275085449219,0
-3.484528064727783,1.364842414855957,0.3804631233215332,0
-2.3356587886810303,1.7810239791870117,1.2207927703857422,0
-1.1502299308776855,1.8210439682006836,0.6928884983062744,0
-0.6893529891967773,1.290283203125,-1.137646198272705,0
-1.0240349769592285,0.6763181686401367,-2.6920278072357178,0
-1.5323359966278076,0.1940317153930664,-3.5566329956054688,0
-2.0729992389678955,-0.1304492950439453,-3.9976508617401123,0
-2.559878349304199,-0.36161231994628906,-4.1609368324279785,0
-2.9429850578308105,-0.506321907043457,-4.2342329025268555,0
-3.3007497787475586,-0.48046875,-4.213162422180176,0
-3.506950616836548,-0.2574005126953125,-4.030749320983887,0
-3.5105175971984863,0.05787372589111328,-3.8489315509796143,0
-3.3245134353637695,0.4079265594482422,-3.6255245208740234,0
-3.013676166534424,0.749577522277832,-3.4666268825531006,0
-2.6179356575012207,0.9944953918457031,-3.5007100105285645,0
-2.4084129333496094,1.0307207107543945,-3.6918725967407227,0
-2.108952045440674,0.9113836288452148,-3.8567981719970703,0
-1.870774745941162,0.7205533981323242,-4.0040202140808105,0
-1.696968674659729,0.5350608825683594,-3.96756911277771,0
-1.499964952468872,0.33353233337402344,-3.7607851028442383,0
-1.4010992050170898,0.16385459899902344,-3.3485169410705566,0
-1.2949743270874023,0.12638568878173828,-2.8696794509887695,0
-1.2507835626602173,0.12047100067138672,-2.3816416263580322,0
-1.0508038997650146,0.1341724395751953,-2.0807228088378906,0
-0.6714133024215698,0.09349822998046875,-1.8978803157806396,0
-0.37385737895965576,-0.10410213470458984,-1.7569934129714966,0
-0.16577374935150146,-0.42246150970458984,-1.6079158782958984,0
0.040702104568481445,-0.7466011047363281,-1.546189308166504,0
0.14041602611541748,-1.1530637741088867,-1.509533405303955,0
0.22957158088684082,-1.4744644165039062,-1.5003217458724976,0
0.1723318099975586,-1.756422519683838,-1.5688238143920898,0
0.1488128900527954,-1.9393658638000488,-1.6024329662322998,0
0.0852811336517334,-2.2841835021972656,-1.768350601196289,0
0.03927803039550781,-2.7261781692504883,-1.9825505018234253,0
-0.046674251556396484,-3.061955451965332,-2.137573480606079,0
0.05936765670776367,-3.064542293548584,-2.123363733291626,0
0.1421968936920166,-2.8994741439819336,-1.9301698207855225,0
0.03434097766876221,-2.6913304328918457,-1.8329362869262695,0
-0.06512212753295898,-2.4426159858703613,-1.7980890274047852,0
-0.06533575057983398,-2.248943328857422,-1.818865418434143,0
-0.1894240379333496,-1.7083539962768555,-2.012971878051758,0
-0.3135935068130493,-1.0698356628417969,-2.0288848876953125,0
-0.2824167013168335,-0.4578704833984375,-1.6851048469543457,0
-0.254192590713501,0.029581069946289062,-1.3839256763458252,0
-0.19354450702667236,0.43103504180908203,-1.1566970348358154,0
-0.11055600643157959,0.6055879592895508,-0.8695494532585144,0
-0.10813033580780029,0.7519741058349609,-0.6350330114364624,0
0.010271072387695312,0.7171220779418945,-0.41727185249328613,0
0.247217059135437,0.5369977951049805,-0.22784137725830078,0
0.39459943771362305,0.23802661895751953,0.02438938617706299,0
0.4119027853012085,-0.16057491302490234,0.16272711753845215,0
0.4361914396286011,-0.4483509063720703,0.17990374565124512,0
0.4249241352081299,-0.8742341995239258,0.29384803771972656,0
0.4428422451019287,-1.1798763275146484,0.24645090103149414,0
0.892148494720459,-1.1670989990234375,0.2367294430732727,0
1.0002386569976807,-1.1256780624389648,0.03513234853744507,0
0.7171956300735474,-0.9863386154174805,-0.17827779054641724,0
0.9384913444519043,-0.8402748107910156,-0.20148175954818726,0
0.8868731260299683,-0.7569217681884766,-0.4578070640563965,0
0.5435917377471924,-0.7218046188354492,-0.5934934616088867,0
0.5169600248336792,-0.7133884429931641,-0.6522573828697205,0
0.5174176692962646,-0.5761871337890625,-0.8332208395004272,0
0.31014740467071533,-0.41786670684814453,-0.8399457931518555,0
0.18674778938293457,-0.24794960021972656,-0.6750869750976562,0
0.17264986038208008,-0.09977436065673828,-0.6668757200241089,0
-0.001026153564453125,-0.06880474090576172,-0.5595171451568604,0
-0.09783601760864258,-0.11659717559814453,-0.19013646245002747,0
-0.07033252716064453,-0.2717256546020508,0.05854755640029907,0
-0.0386127233505249,-0.4024944305419922,0.13875171542167664,0
0.06182539463043213,-0.6476316452026367,0.19208842515945435,0
0.14482510089874268,-0.8683385848999023,0.1256471872329712,0
0.24643731117248535,-1.0288238525390625,0.057151198387145996,0
0.3429802656173706,-1.2391891479492188,-0.10417771339416504,0
0.4178818464279175,-1.3344106674194336,-0.17623183131217957,0
0.44498777389526367,-1.4868173599243164,-0.18989112973213196,0
0.6184694766998291,-1.5433483123779297,-0.28878355026245117,0
0.7303396463394165,-1.4754514694213867,-0.3769519329071045,0
0.6777234077453613,-1.3741121292114258,-0.35172224044799805,0
0.4775502681732178,-1.2871742248535156,-0.37602153420448303,0
0.30464136600494385,-1.145273208618164,-0.3593537509441376,0
0.4700978994369507,-0.9437150955200195,-0.3404804468154907,0
0.5502524375915527,-0.6466989517211914,-0.35794854164123535,0
0.377269983291626,-0.41448307037353516,-0.2730969190597534,0
0.19751858711242676,-0.2302236557006836,-0.22959864139556885,0
0.2000272274017334,-0.06757831573486328,-0.11524447798728943,0
0.10703039169311523,0.10935401916503906,-0.10266643762588501,0
0.02377617359161377,0.32924747467041016,-0.060567475855350494,0
-0.013964295387268066,0.48204517364501953,-0.020326867699623108,0
-0.04019862413406372,0.6874160766601562,0.0035718977451324463,0
-0.02884608507156372,0.8592185974121094,0.06861348450183868,0
-0.02816927433013916,1.0572919845581055,0.055233076214790344,0
-0.09345865249633789,1.202712059020996,-0.024206116795539856,0
0.07201570272445679,1.3218278884887695,0.04604576528072357,0
0.2858610153198242,1.448166847229004,0.12008900940418243,0
0.20117002725601196,1.4095745086669922,0.2533060610294342,0
0.38077688217163086,1.2612009048461914,0.39813363552093506,0
0.4565654993057251,1.1824665069580078,0.48510798811912537,0
0.5724639892578125,1.0584716796875,0.5715051889419556,0
0.6260179877281189,0.8892459869384766,0.6217362284660339,0
0.6533461213111877,0.8039407730102539,0.5710935592651367,0
0.64006507396698,0.8407106399536133,0.46737709641456604,0
0.7206940650939941,0.8056821823120117,0.5045490264892578,0
0.8045291900634766,0.8065176010131836,0.5387505292892456,0
0.8969366550445557,0.9028949737548828,0.5506442189216614,0
1.148895025253296,0.8459901809692383,0.6285335421562195,0
1.160287857055664,0.9468593597412109,0.5445747375488281,0
1.328306794166565,1.1144390106201172,0.5952582359313965,0
1.6935415267944336,1.2218999862670898,0.6774494647979736,0
1.8508199453353882,1.3793563842773438,0.7717486619949341,0
2.0103061199188232,1.553309440612793,0.9907233715057373,0
2.22908616065979,1.672022819519043,1.1716281175613403,0
2.4374165534973145,1.6638402938842773,1.2091591358184814,0
2.5245132446289062,1.6939325332641602,1.050534725189209,0
2.7079317569732666,1.6690082550048828,0.9160683751106262,0
2.814992666244507,1.7397890090942383,0.6670424938201904,0
2.806718587875366,1.9540081024169922,0.3990092873573303,0
2.749220609664917,2.3856639862060547,0.29866302013397217,0
2.723630905151367,2.8264923095703125,0.31844356656074524,0
2.7636520862579346,3.2501678466796875,0.3602328598499298,0
2.8912713527679443,3.415188789367676,0.3641127645969391,0
3.030388832092285,3.4413881301879883,0.2671879529953003,0
3.193415403366089,3.3552112579345703,0.07608610391616821,0
3.3637807369232178,3.223748207092285,-0.19535720348358154,0
3.4935505390167236,3.097301483154297,-0.53307044506073,0
3.4774882793426514,2.9257020950317383,-0.8247990608215332,0
3.454746961593628,2.7759952545166016,-1.0587520599365234,0
3.243968963623047,2.552554130554199,-1.2134791612625122,0
2.989445447921753,2.241154670715332,-1.3226616382598877,0
2.6464335918426514,1.7319574356079102,-1.4051110744476318,0
2.1604292392730713,1.2595844268798828,-1.360046625137329,0
1.5916836261749268,0.7523078918457031,-1.4364210367202759,0
0.9766564965248108,0.2532501220703125,-1.483403205871582,0
0.3712001442909241,-0.2375774383544922,-1.4794538021087646,0
-0.26478874683380127,-0.6651535034179688,-1.4006177186965942,0
-0.866108238697052,-0.821476936340332,-1.4029475450515747,0
-1.4083703756332397,-0.7880840301513672,-1.3222053050994873,0
-2.0418241024017334,-0.557887077331543,-1.233633279800415,0
-2.6755762100219727,-0.1452655792236328,-0.8579103946685791,0
-3.1995937824249268,0.27042293548583984,-0.40095531940460205,0
-3.693333148956299,0.6678562164306641,0.11877256631851196,0
-4.013963222503662,0.9802284240722656,0.580790102481842,0
-4.23652458190918,1.1694602966308594,0.9555556774139404,0
-4.237249851226807,1.2261018753051758,1.1659315824508667,0
-4.08882999420166,1.293665885925293,1.2114715576171875,0
-3.737168788909912,1.264333724975586,1.0271347761154175,0
-3.387430191040039,1.3651866912841797,0.6744264364242554,0
-2.8593497276306152,1.3256330490112305,0.13313055038452148,0
-2.22092866897583,1.2459888458251953,-0.4306248426437378,0
-1.6259891986846924,1.042332649230957,-0.9205183982849121,0
-1.129836082458496,0.7647275924682617,-1.3001213073730469,0
-0.799113929271698,0.42014408111572266,-1.6074044704437256,0
-0.6426795721054077,0.06338119506835938,-1.935404658317566,0
-0.7143558263778687,-0.2769641876220703,-2.291799545288086,0
-0.6823197603225708,-0.507533073425293,-2.694880485534668,0
-0.9329644441604614,-0.6447124481201172,-3.058929920196533,0
-1.2186806201934814,-0.733311653137207,-3.2081873416900635,0
-1.4736891984939575,-0.6028223037719727,-2.9957313537597656,0
-1.7191517353057861,-0.4297494888305664,-2.4891135692596436,0
-1.87931489944458,-0.1134328842163086,-1.7033028602600098,0
-1.7135142087936401,0.1951608657836914,-0.8500494956970215,0
-1.4622160196304321,0.36905956268310547,-0.1835315227508545,0
-1.2532082796096802,0.5297412872314453,0.23476672172546387,0
-1.1400058269500732,0.6647119522094727,0.10369324684143066,0
-0.8267479538917542,0.7521982192993164,-0.29767322540283203,0
-0.6652301549911499,0.7036495208740234,-0.8084850311279297,0
-0.5140829086303711,0.5213251113891602,-1.2079037427902222,0
-0.5702831745147705,0.3582916259765625,-1.4836947917938232,0
-0.7260378003120422,0.0660247802734375,-1.601980447769165,0
-0.8083191514015198,-0.2719078063964844,-1.6486186981201172,0
-0.9571754336357117,-0.7391977310180664,-1.688572645187378,0
-1.1497513055801392,-1.1467599868774414,-1.7726397514343262,0
-1.286853313446045,-1.494633674621582,-1.8917638063430786,0
-1.3722364902496338,-1.813915729522705,-2.0202150344848633,0
-1.5203945636749268,-2.121326446533203,-2.1105523109436035,0
-1.5134351253509521,-2.26871919631958,-2.1460728645324707,0
-1.4734609127044678,-2.454949378967285,-2.0763118267059326,0
-1.4677371978759766,-2.6299538612365723,-1.9727282524108887,0
-1.5183448791503906,-2.8824334144592285,-1.8133125305175781,0
-1.4677311182022095,-3.0809812545776367,-1.6766209602355957,0
-1.4615862369537354,-3.237663745880127,-1.6584076881408691,0
-1.334104299545288,-3.390822410583496,-1.6033918857574463,0
-1.3288646936416626,-3.4735312461853027,-1.559654951095581,0
-1.3360812664031982,-3.4594759941101074,-1.5226469039916992,0
-1.3559386730194092,-3.4492344856262207,-1.4229800701141357,0
-1.2447925806045532,-3.392716407775879,-1.3658008575439453,0
-1.4529340267181396,-3.393047332763672,-1.1782360076904297,0
-1.6267677545547485,-3.3713440895080566,-1.0681312084197998,0
-1.539116621017456,-3.4640231132507324,-1.1165544986724854,0
-1.5656979084014893,-3.4581031799316406,-1.1225647926330566,0
-1.5246187448501587,-3.5713348388671875,-1.1722517013549805,0
-1.506733775138855,-3.650543689727783,-1.2058117389678955,0
-1.6131023168563843,-3.6550803184509277,-1.2040150165557861,0
-1.7048099040985107,-3.635221004486084,-1.2530536651611328,0
-1.6163166761398315,-3.959167003631592,-1.2431504726409912,0
-1.8361949920654297,-4.155266284942627,-1.2582252025604248,0
-2.118623733520508,-4.230790615081787,-1.0947952270507812,0
-1.9821431636810303,-4.57555627822876,-1.1264629364013672,0
-1.976495623588562,-5.074491500854492,-0.8652865886688232,0
-2.068164348602295,-5.184547424316406,-0.6033897399902344,0
-1.92904531955719,-5.202752590179443,-0.31441354751586914,0
-1.6453242301940918,-4.990566253662109,-0.06284689903259277,0
-1.3943935632705688,-4.782533168792725,0.24466896057128906,0
-1.0424845218658447,-4.585723400115967,0.5171747207641602,0
-0.7785713076591492,-4.316267013549805,0.7950849533081055,0
-0.5090087652206421,-3.9956302642822266,1.1235198974609375,0
-0.32948052883148193,-3.606764793395996,1.410761833190918,0
-0.2854347229003906,-3.1348161697387695,1.5048725605010986,0
-0.5225776433944702,-2.400005340576172,1.5696971416473389,0
-0.32634973526000977,-1.5650701522827148,1.8121135234832764,0
-0.2754249572753906,-0.7132368087768555,2.026780605316162,0
0.0010564327239990234,0.2592029571533203,1.9336817264556885,0
0.38239920139312744,1.415511131286621,1.6876544952392578,0
1.0129438638687134,2.971881866455078,1.4363372325897217,0
1.605731725692749,4.692005157470703,1.3451087474822998,0
2.1342320442199707,6.384427070617676,1.9334313869476318,0
2.4548377990722656,7.6706438064575195,3.201213836669922,0
2.2595291137695312,8.349189758300781,4.99393367767334,0
2.017214298248291,7.719541549682617,6.308957099914551,0
2.0029613971710205,6.597870826721191,7.160397529602051,0
1.5270670652389526,5.624733924865723,7.837718963623047,0
1.1873600482940674,4.414231300354004,8.378379821777344,0
1.204925537109375,2.787403106689453,8.341941833496094,0
1.3931370973587036,0.9971809387207031,7.240208625793457,0
1.5590100288391113,-0.42096519470214844,4.882648944854736,0
1.2861677408218384,-0.5066595077514648,1.3371663093566895,0
0.4156672954559326,1.539632797241211,-1.3131110668182373,0
-0.36680829524993896,4.836050987243652,-2.344270944595337,0
-1.5605356693267822,8.395514488220215,-2.6668009757995605,0
-2.179055690765381,11.221534729003906,-3.6710169315338135,0
-3.2721097469329834,12.991114616394043,-5.367321014404297,0
-5.27532958984375,13.747161865234375,-6.554879188537598,0
-7.475171089172363,12.484602928161621,-6.628457069396973,0
-7.472599983215332,8.748089790344238,-5.457394123077393,0
-5.742315292358398,3.574408531188965,-3.309391736984253,0
-5.9697723388671875,-0.14604949951171875,-1.0690231323242188,0
-6.060105800628662,-1.832432746887207,0.4138455390930176,0
-6.104042053222656,-1.8131766319274902,0.8288123607635498,0
-5.733443737030029,-0.8941125869750977,0.6357607841491699,0
-4.613816738128662,0.09247589111328125,0.38069891929626465,0
-3.532381296157837,0.8602886199951172,0.025671720504760742,0
-2.679076671600342,1.173966407775879,-0.8174161911010742,0
-2.0287108421325684,1.0275335311889648,-1.682786226272583,0
-1.5114420652389526,0.5379495620727539,-2.2220358848571777,0
-1.2767622470855713,0.05270671844482422,-2.760303020477295,0
-1.3964680433273315,-0.18563365936279297,-3.4815216064453125,0
-1.5675055980682373,-0.047252655029296875,-4.21755838394165,0
-1.3357319831848145,0.48226261138916016,-4.658649444580078,0
-1.00160551071167,1.1106481552124023,-4.704042911529541,0
-0.38035356998443604,1.7079944610595703,-4.456883907318115,0
0.08895552158355713,2.084402084350586,-4.06703519821167,0
0.30594968795776367,2.0722551345825195,-3.8578298091888428,0
0.218994140625,1.6176023483276367,-4.100214958190918,0
0.21273910999298096,0.8585233688354492,-4.5866780281066895,0
0.22240257263183594,0.21031761169433594,-4.8788251876831055,0
0.10439145565032959,-0.20423603057861328,-4.713164806365967,0
-0.12767064571380615,-0.3919410705566406,-4.2632880210876465,0
-0.2939690351486206,-0.30027008056640625,-3.478425979614258,0
-0.37371182441711426,-0.15458297729492188,-2.5091207027435303,0
-0.4423288106918335,0.0662384033203125,-1.6029304265975952,0
-0.42438650131225586,0.10595989227294922,-0.9377939701080322,0
-0.385586142539978,-0.10230636596679688,-0.43349552154541016,0
-0.3386869430541992,-0.5393009185791016,-0.11032748222351074,0
-0.27442681789398193,-1.109222412109375,-0.06312108039855957,0
-0.03218865394592285,-1.6757831573486328,-0.16692852973937988,0
-0.04027736186981201,-2.2174863815307617,-0.38080286979675293,0
-0.14053833484649658,-2.657827377319336,-0.7692849636077881,0
-0.1604539155960083,-3.0017590522766113,-1.1193798780441284,0
-0.15498888492584229,-3.19209623336792,-1.4213502407073975,0
-0.16746604442596436,-3.1644372940063477,-1.7373532056808472,0
-0.20525383949279785,-2.9691953659057617,-1.938381314277649,0
-0.16305291652679443,-2.6496057510375977,-2.0318737030029297,0
-0.25147879123687744,-2.256000518798828,-1.9678386449813843,0
-0.5064078569412231,-1.838636875152588,-1.8876725435256958,0
-0.6169993877410889,-1.4405393600463867,-1.8225314617156982,0
-0.9354926347732544,-1.1859302520751953,-1.6958746910095215,0
-0.9713224768638611,-0.9145116806030273,-1.53141450881958,0
-0.9824433326721191,-0.6837587356567383,-1.4992730617523193,0
-1.1695735454559326,-0.49121570587158203,-1.4609085321426392,0
-1.2361714839935303,-0.4108858108520508,-1.3616559505462646,0
-1.2517952919006348,-0.3158607482910156,-1.2305798530578613,0
-1.0561776161193848,-0.244476318359375,-1.1441457271575928,0
-0.860154390335083,-0.2206430435180664,-1.0590153932571411,0
-0.7503089904785156,-0.3566322326660156,-1.0970089435577393,0
-0.4851856231689453,-0.4537982940673828,-1.1071717739105225,0
-0.15102016925811768,-0.528965950012207,-1.1467976570129395,0
-0.07347190380096436,-0.603672981262207,-1.1079227924346924,0
0.10123312473297119,-0.6300411224365234,-1.102982997894287,0
0.32250404357910156,-0.7085132598876953,-1.0651155710220337,0
0.4440075159072876,-0.7481479644775391,-0.8959867358207703,0
0.7530784606933594,-0.7586307525634766,-0.6912270784378052,0
0.9079729318618774,-0.8500471115112305,-0.5825392007827759,0
0.9016245603561401,-0.8261680603027344,-0.5272396802902222,0
0.8107569217681885,-0.7708368301391602,-0.46074146032333374,0
0.6954251527786255,-0.8012962341308594,-0.38541555404663086,0
0.630092978477478,-0.8553466796875,-0.3417385220527649,0
0.5861634016036987,-0.8875532150268555,-0.31063222885131836,0
0.6474423408508301,-0.7353620529174805,-0.2348511815071106,0
0.6511118412017822,-0.6596193313598633,-0.16724461317062378,0
0.5037651062011719,-0.543025016784668,-0.22275233268737793,0
0.4067089557647705,-0.5339927673339844,-0.09910112619400024,0
0.33651041984558105,-0.5655689239501953,-0.030148088932037354,0
0.2241051197052002,-0.5946807861328125,-0.07116377353668213,0
0.0916365385055542,-0.5711584091186523,-0.09601134061813354,0
0.09471559524536133,-0.5835323333740234,-0.09579074382781982,0
-0.08029687404632568,-0.6843204498291016,-0.14738696813583374,0
-0.10547828674316406,-0.8232326507568359,-0.2577870488166809,0
0.08136582374572754,-0.6989936828613281,-0.28321945667266846,0
0.03056049346923828,-0.6299762725830078,-0.23797640204429626,0
0.005512595176696777,-0.6113510131835938,-0.2152581363916397,0
-0.039305925369262695,-0.5689201354980469,-0.2005762755870819,0
-0.053666114807128906,-0.6079292297363281,-0.18175071477890015,0
-0.24567031860351562,-0.6541385650634766,-0.17310407757759094,0
0.06433582305908203,-0.5975942611694336,-0.14331825077533722,0
0.260603666305542,-0.41920948028564453,-0.10903452336788177,0
0.3763148784637451,-0.3318796157836914,-0.08699938654899597,0
0.4713059663772583,-0.3307046890258789,0.011537864804267883,0
0.4999748468399048,-0.3199014663696289,0.0957387238740921,0
0.6439183950424194,-0.30901622772216797,0.12733805179595947,0
0.6420390605926514,-0.3458280563354492,0.14701597392559052,0
0.48740923404693604,-0.4207191467285156,0.16450028121471405,0
0.8283804655075073,-0.21324539184570312,0.20119714736938477,0
0.9612319469451904,-0.056110382080078125,0.17800666391849518,0
0.859632134437561,-0.037689208984375,0.27676066756248474,0
0.7726345658302307,-0.054999351501464844,0.3633610010147095,0
0.7936736345291138,-0.05302238464355469,0.3584803342819214,0
0.7886220812797546,-0.055690765380859375,0.27859047055244446,0
0.7264882326126099,-0.06301212310791016,0.18570929765701294,0
0.8176024556159973,-0.04388904571533203,0.08679774403572083,0
0.4684073328971863,-0.12267112731933594,0.013185322284698486,0
0.7726377844810486,-0.026679039001464844,0.08014965802431107,0
0.7198534607887268,0.06219005584716797,0.024707749485969543,0
0.45108699798583984,0.10811614990234375,0.022007137537002563,0
0.3133699297904968,0.22353363037109375,0.06741994619369507,0
0.1634616255760193,0.4202737808227539,0.1344289928674698,0
0.1474447250366211,0.5619115829467773,0.09815536439418793,0
-0.03610491752624512,0.6461000442504883,0.039410918951034546,0
0.14433449506759644,0.813939094543457,0.14206016063690186,0
0.2984408140182495,1.1203022003173828,0.28820133209228516,0
0.40920859575271606,1.306778907775879,0.4537411034107208,0
0.6802610158920288,1.5432729721069336,0.6508750915527344,0
0.9702327251434326,1.7842836380004883,0.7623363733291626,0
1.1854021549224854,1.9939565658569336,0.869583785533905,0
1.5045101642608643,2.174748420715332,0.987177312374115,0
1.927132487297058,2.362563133239746,1.1295782327651978,0
2.242382049560547,2.5573911666870117,1.2249889373779297,0
2.498086452484131,2.546398162841797,1.2973523139953613,0
2.8452157974243164,2.4493722915649414,1.3274224996566772,0
3.0446131229400635,2.2974843978881836,1.2290207147598267,0
3.1612329483032227,2.131436347961426,1.1983410120010376,0
3.3430047035217285,2.0014448165893555,1.1249291896820068,0
3.4052894115448,1.9600725173950195,1.0613106489181519,0
3.4847733974456787,1.8852500915527344,1.009864091873169,0
3.4957447052001953,1.8941736221313477,0.9538757801055908,0
3.527106761932373,1.9867029190063477,0.7872804403305054,0
3.4200005531311035,2.1172714233398438,0.46319741010665894,0
3.3244667053222656,2.3958559036254883,0.4264306426048279,0
3.362326145172119,2.631039619445801,0.49812987446784973,0
3.2772510051727295,2.7536048889160156,0.5764518976211548,0
3.1217610836029053,2.668084144592285,0.3028624951839447,0
3.046354055404663,2.4799928665161133,0.2209586501121521,0
2.8717458248138428,2.375988006591797,-0.21500705182552338,0
2.8474981784820557,2.1264333724975586,-0.5721800327301025,0
2.871062755584717,1.7889280319213867,-0.7580928206443787,0
2.4282381534576416,1.356461524963379,-1.00386643409729,0
2.239762783050537,1.037252426147461,-0.9775271415710449,0
2.083846092224121,0.7021112442016602,-1.043463945388794,0
1.8655686378479004,0.2674598693847656,-1.1346811056137085,0
1.6023207902908325,-0.12061786651611328,-1.2798172235488892,0
1.265937089920044,-0.3592500686645508,-1.3952374458312988,0
0.9482811689376831,-0.37198638916015625,-1.4432182312011719,0
0.40843015909194946,-0.2617607116699219,-1.4508066177368164,0
0.00587889552116394,-0.014187812805175781,-1.4112828969955444,0
-0.5032113790512085,0.26078033447265625,-1.3724405765533447,0
-1.010992407798767,0.5011587142944336,-1.2191904783248901,0
-1.436100959777832,0.5613508224487305,-1.0014758110046387,0
-1.692868709564209,0.5876274108886719,-0.6132297515869141,0
-2.1313652992248535,0.5418424606323242,-0.06711888313293457,0
-2.345449924468994,0.47182464599609375,0.38075876235961914,0
-2.321516275405884,0.3915901184082031,0.68602454662323,0
-2.38409161567688,0.5516605377197266,0.6827785968780518,0
-2.434173583984375,0.7955522537231445,0.322568416595459,0
-2.221205949783325,1.093709945678711,-0.21240007877349854,0
-2.0154199600219727,1.3475103378295898,-0.7013148069381714,0
-1.8353766202926636,1.561574935913086,-1.1785880327224731,0
-1.7119956016540527,1.6164417266845703,-1.4976412057876587,0
-1.7173588275909424,1.5173835754394531,-1.6466162204742432,0
-1.7150092124938965,1.4013652801513672,-1.5998374223709106,0
-1.7404577732086182,1.25238037109375,-1.3586771488189697,0
-1.8408644199371338,1.1668701171875,-0.9267259836196899,0
-2.0157630443573,1.1549901962280273,-0.4645843505859375,0
-2.2217085361480713,1.2361869812011719,0.021750211715698242,0
-2.2499473094940186,1.3626022338867188,0.33877134323120117,0
-2.0618903636932373,1.4576072692871094,0.4706857204437256,0
-2.1343250274658203,1.4923028945922852,0.5149650573730469,0
-1.908034086227417,1.5283327102661133,0.2973902225494385,0
-1.7047936916351318,1.5221500396728516,-0.18449687957763672,0
-1.503726601600647,1.4591379165649414,-0.7929542064666748,0
-1.2788537740707397,1.2602767944335938,-1.359973430633545,0
-1.071378469467163,0.8847074508666992,-1.7243341207504272,0
-0.8110138177871704,0.42823123931884766,-2.1352038383483887,0
-0.7408244609832764,-0.17815208435058594,-2.366448163986206,0
-0.8600409626960754,-0.5823659896850586,-2.404752492904663,0
-0.846373975276947,-0.6626262664794922,-2.252836227416992,0
-0.5270485877990723,-0.8601226806640625,-1.889816403388977,0
-0.4369204640388489,-1.2542009353637695,-1.7069780826568604,0
-0.5098961591720581,-1.7299046516418457,-1.7642236948013306,0
-0.6086511611938477,-2.1388731002807617,-1.7938895225524902,0
-0.6921189427375793,-2.507758140563965,-1.7215428352355957,0
-0.7598960399627686,-2.7913994789123535,-1.484950304031372,0
-0.9195720553398132,-3.0617780685424805,-1.2802867889404297,0
-1.1810426712036133,-3.364257335662842,-1.198669195175171,0
-1.2882637977600098,-3.6268081665039062,-1.259843111038208,0
-1.1091376543045044,-3.7297511100769043,-1.3687305450439453,0
-0.9493781328201294,-3.7951197624206543,-1.6095154285430908,0
-0.8737432956695557,-3.7391982078552246,-1.6857521533966064,0
-0.8606125116348267,-3.7631173133850098,-1.6142001152038574,0
-0.8308908939361572,-3.7689552307128906,-1.4257948398590088,0
-0.7939935326576233,-3.754603862762451,-1.328301191329956,0
-0.7879928946495056,-3.6724801063537598,-1.28544020652771,0
-0.745880126953125,-3.5564141273498535,-1.2440896034240723,0
-0.7758312821388245,-3.4782776832580566,-1.3068106174468994,0
-0.9311206340789795,-3.4930806159973145,-1.2317092418670654,0
-0.977387011051178,-3.5816144943237305,-1.305849552154541,0
-0.9866378307342529,-3.758218288421631,-1.2634704113006592,0
-1.2321032285690308,-3.8242268562316895,-1.2315073013305664,0
-1.1054999828338623,-4.248421669006348,-1.2293140888214111,0
-1.0875380039215088,-4.358607769012451,-1.1586191654205322,0
-1.2288005352020264,-4.351250648498535,-1.0002260208129883,0
-1.1777788400650024,-4.491884708404541,-0.8426971435546875,0
-1.11897611618042,-4.636836051940918,-0.7170841693878174,0
-1.0982720851898193,-4.55185604095459,-0.5799546241760254,0
-0.9366801381111145,-4.3975114822387695,-0.5409717559814453,0
-0.850238561630249,-4.214459419250488,-0.4396822452545166,0
-0.714964747428894,-4.193938732147217,-0.3000016212463379,0
-0.631120502948761,-4.163536071777344,-0.13874554634094238,0
-0.4838408827781677,-4.1970953941345215,0.055538177490234375,0
-0.428918719291687,-4.193792343139648,0.22020483016967773,0
-0.26535099744796753,-4.126945495605469,0.4405786991119385,0
-0.02406919002532959,-4.005826473236084,0.7110133171081543,0
0.25959622859954834,-3.856616973876953,0.997452974319458,0
0.3296304941177368,-3.6670069694519043,1.2775778770446777,0
0.44535624980926514,-3.422372817993164,1.5073535442352295,0
0.8187910318374634,-2.983971118927002,1.824641227722168,0
1.0033472776412964,-2.4353771209716797,2.0081145763397217,0
1.1099917888641357,-1.7189836502075195,2.149934768676758,0
1.2901335954666138,-0.8466033935546875,2.1627883911132812,0
1.5816917419433594,0.17746734619140625,1.9039344787597656,0
1.803533911705017,1.3301820755004883,1.333137035369873,0
2.0800299644470215,2.5886030197143555,0.6373887062072754,0
2.3966774940490723,3.845804214477539,0.27690815925598145,0
2.5929198265075684,5.195296287536621,0.5336065292358398,0
2.6359949111938477,6.497688293457031,1.377845287322998,0
2.255535125732422,7.486305236816406,2.9130241870880127,0
1.6874048709869385,7.713203430175781,4.390386581420898,0
1.230135202407837,7.070871353149414,5.512825965881348,0
0.7733660936355591,6.047074317932129,6.467012882232666,0
0.3878366947174072,4.720005035400391,7.0356597900390625,0
0.2628523111343384,3.079775810241699,6.752097129821777,0
0.447965145111084,1.2890520095825195,5.751199245452881,0
0.7841168642044067,-0.3596668243408203,4.114441871643066,0
0.17207884788513184,-1.278998851776123,1.8140215873718262,0
-0.6875361204147339,-0.4188823699951172,-0.6344537734985352,0
-1.3972656726837158,1.8232202529907227,-2.826990842819214,0
-1.599088191986084,4.386183738708496,-4.443445205688477,0
-1.943913221359253,7.059615135192871,-5.541582107543945,0
-3.506012439727783,10.077747344970703,-6.244317054748535,0
-6.096214294433594,12.917787551879883,-6.4180684089660645,0
-8.90358829498291,14.638091087341309,-5.696316719055176,0
-10.592117309570312,14.59730339050293,-5.088133811950684,0
-10.562541961669922,12.470834732055664,-4.320072174072266,0
-8.578593254089355,8.559359550476074,-3.0457639694213867,0
-7.941658020019531,5.795900344848633,-1.7663018703460693,0
-7.373817443847656,5.5323638916015625,-0.28604602813720703,0
-6.416844844818115,6.43196964263916,0.9089503288269043,0
-5.053171157836914,6.858319282531738,2.020230770111084,0
-3.3558542728424072,5.810459136962891,2.8919425010681152,0
-1.6988811492919922,3.3863649368286133,1.9872615337371826,0
-1.1748563051223755,0.7979297637939453,0.04530835151672363,0
-1.1387509107589722,-1.273275375366211,-1.8874735832214355,0
-1.2537871599197388,-2.6184701919555664,-3.747239589691162,0
-1.4473166465759277,-3.1938719749450684,-5.1065144538879395,0
-1.5867278575897217,-3.274576187133789,-5.5978684425354,0
-1.4976226091384888,-3.2773709297180176,-5.499477863311768,0
-1.2128925323486328,-3.3488306999206543,-5.300052165985107,0
-0.6131908297538757,-3.2864279747009277,-4.922416687011719,0
0.26319408416748047,-3.0260844230651855,-4.740261077880859,0
1.0061709880828857,-2.706486701965332,-4.786715984344482,0
1.5724607706069946,-2.3079543113708496,-4.990867614746094,0
1.8256350755691528,-1.9780302047729492,-5.354184627532959,0
1.9976410865783691,-1.5391483306884766,-5.743560791015625,0
2.0600223541259766,-1.029555320739746,-5.8984456062316895,0
2.121607542037964,-0.5139017105102539,-5.589707374572754,0
1.9134314060211182,-0.00151824951171875,-4.988709449768066,0
1.360016107559204,0.40760135650634766,-4.233671188354492,0
0.5316087007522583,0.6182498931884766,-3.2734031677246094,0
-0.37264299392700195,0.6452474594116211,-2.2574703693389893,0
-0.8453860282897949,0.41971778869628906,-1.4574100971221924,0
-0.9747850298881531,0.042613983154296875,-0.9415450096130371,0
-0.9471204876899719,-0.4378232955932617,-0.6969897747039795,0
-0.7649047374725342,-0.9806203842163086,-0.7583496570587158,0
-0.7489637136459351,-1.425471305847168,-0.7839082479476929,0
-0.6074717044830322,-1.6437029838562012,-0.5313327312469482,0
-0.4087047576904297,-1.8725152015686035,-0.3105647563934326,0
-0.3479433059692383,-2.033111572265625,-0.08197331428527832,0
-0.30691611766815186,-2.075456142425537,-0.002146124839782715,0
-0.267370343208313,-2.093039035797119,-0.06043100357055664,0
-0.09315478801727295,-2.10990047454834,-0.3303176164627075,0
-0.13356554508209229,-2.044867515563965,-0.717749834060669,0
-0.32598984241485596,-1.969876766204834,-1.2174816131591797,0
-0.44241297245025635,-1.8229951858520508,-1.5848413705825806,0
-0.5539948344230652,-1.7097220420837402,-1.824192762374878,0
-0.8041088581085205,-1.6300630569458008,-2.009563684463501,0
-1.041813850402832,-1.4381599426269531,-2.12406063079834,0
-1.2073582410812378,-1.1652555465698242,-2.217733144760132,0
-1.224456548690796,-0.8975162506103516,-2.1230628490448,0
-1.1725854873657227,-0.7448434829711914,-1.9287670850753784,0
-1.112086534500122,-0.5778799057006836,-1.7091290950775146,0
-0.8085730075836182,-0.41571903228759766,-1.4859570264816284,0
-0.7890652418136597,-0.3657522201538086,-1.4225094318389893,0
-0.47199898958206177,-0.35127925872802734,-1.229689598083496,0
-0.04817771911621094,-0.6472415924072266,-1.1380678415298462,0
-0.012699127197265625,-0.6171226501464844,-1.0383586883544922,0
0.08241021633148193,-0.5698328018188477,-0.8805833458900452,0
0.21372449398040771,-0.5269966125488281,-0.7414779663085938,0
0.22124528884887695,-0.5436649322509766,-0.7190718650817871,0
0.2608581781387329,-0.5385465621948242,-0.6791595220565796,0
0.43809616565704346,-0.5763216018676758,-0.7124369740486145,0
0.5807483196258545,-0.6091508865356445,-0.6944069862365723,0
0.6983097791671753,-0.7135858535766602,-0.6941338777542114,0
0.6349809169769287,-0.9062414169311523,-0.6517004370689392,0
0.9791437387466431,-1.065079689025879,-0.676896333694458,0
1.1347541809082031,-1.2666807174682617,-0.5683541297912598,0
1.137314796447754,-1.4966049194335938,-0.5098124742507935,0
0.9361608028411865,-1.6686744689941406,-0.5869290232658386,0
1.170026183128357,-1.8642725944519043,-0.6654124855995178,0
1.1185256242752075,-1.9590253829956055,-0.7425763607025146,0
0.9371793270111084,-1.9649815559387207,-0.7703341245651245,0
0.8632746934890747,-1.8225231170654297,-0.7197149991989136,0
0.9065786600112915,-1.5103302001953125,-0.6315727829933167,0
0.9452722072601318,-1.0836105346679688,-0.4631485939025879,0
0.8361717462539673,-0.5927057266235352,-0.3300105035305023,0
0.7808209657669067,-0.05685615539550781,-0.17301049828529358,0
0.6409906148910522,0.2393045425415039,-0.05761386454105377,0
0.3618217706680298,0.38695240020751953,-0.04700389504432678,0
0.13486838340759277,0.43885326385498047,0.10464857518672943,0
-0.07561838626861572,0.43333911895751953,0.22014226019382477,0
-0.27684450149536133,0.31786060333251953,0.31609204411506653,0
-0.440341055393219,0.19298267364501953,0.32063978910446167,0
-0.49956125020980835,-0.02973461151123047,0.3585892617702484,0
-0.44772666692733765,-0.22342777252197266,0.36836856603622437,0
-0.4024001359939575,-0.37854957580566406,0.3218461573123932,0
-0.31851762533187866,-0.4664182662963867,0.2626648247241974,0
-0.13637083768844604,-0.5684099197387695,0.2560681402683258,0
-0.11005055904388428,-0.6772804260253906,0.1323913335800171,0
0.36631977558135986,-0.5898399353027344,0.1123291477560997,0
0.7212232947349548,-0.46895885467529297,0.17700909078121185,0
0.9161521196365356,-0.3122396469116211,0.26871052384376526,0
0.9582356810569763,-0.007319450378417969,0.3775685429573059,0
0.9957541227340698,0.24237442016601562,0.45754557847976685,0
1.0431363582611084,0.4799318313598633,0.5751627683639526,0
1.0956447124481201,0.7388219833374023,0.6845481395721436,0
1.01686429977417,0.8874931335449219,0.8618224859237671,0
0.9480733275413513,1.012141227722168,1.0516579151153564,0
1.0971721410751343,1.194075584411621,1.083907961845398,0
0.9899619817733765,1.2276086807250977,1.171643614768982,0
1.0383212566375732,1.1966114044189453,1.3320963382720947,0
1.0842335224151611,1.2780895233154297,1.3427103757858276,0
1.1230239868164062,1.4121150970458984,1.4643651247024536,0
1.20022451877594,1.5316553115844727,1.639477014541626,0
1.397205114364624,1.6749563217163086,1.7051029205322266,0
1.591504693031311,1.7989301681518555,1.7062835693359375,0
1.9287135601043701,1.8151063919067383,1.6522001028060913,0
2.188143014907837,1.845536231994629,1.4848437309265137,0
2.567756175994873,1.761073112487793,1.3283202648162842,0
2.9140851497650146,1.6981611251831055,1.3143861293792725,0
3.2054643630981445,1.711777687072754,1.2733395099639893,0
3.4990978240966797,1.7492408752441406,1.2939670085906982,0
3.7325961589813232,1.8201093673706055,1.3216111660003662,0
3.800640821456909,1.8717498779296875,1.377984881401062,0
3.7536780834198,1.8922243118286133,1.417557954788208,0
3.744976282119751,1.8122425079345703,1.5123796463012695,0
3.650230884552002,1.7060718536376953,1.6052963733673096,0
3.606024742126465,1.5928707122802734,1.6316531896591187,0
3.612647771835327,1.455887794494629,1.600753664970398,0
3.5144126415252686,1.4911994934082031,1.2773737907409668,0
3.6173434257507324,1.5312261581420898,1.1110200881958008,0
3.459082841873169,1.843801498413086,0.8475797176361084,0
3.1557490825653076,2.153689384460449,0.6016764044761658,0
3.200545072555542,2.415530204772949,0.7089270353317261,0
3.2734856605529785,2.6891908645629883,0.6143642663955688,0
3.4853711128234863,2.5896835327148438,0.3006160259246826,0
3.4580748081207275,2.430776596069336,-0.010175853967666626,0
3.6039857864379883,1.9854354858398438,-0.2890343964099884,0
3.7176761627197266,1.6031742095947266,-0.9071842432022095,0
3.557279109954834,1.4537925720214844,-1.5822649002075195,0
3.2592616081237793,1.085195541381836,-2.171220541000366,0
2.639922618865967,0.5862369537353516,-2.5955817699432373,0
1.825028657913208,0.11257266998291016,-2.7596516609191895,0
0.9121813178062439,-0.2568788528442383,-2.9010982513427734,0
-0.21411368250846863,-0.5078105926513672,-2.875154495239258,0
-1.2914624214172363,-0.6665353775024414,-2.4750890731811523,0
-2.232408046722412,-0.6995506286621094,-1.773069143295288,0
-3.153553009033203,-0.5352191925048828,-0.9345520734786987,0
-3.8972067832946777,-0.3603372573852539,-0.25052571296691895,0
-4.558013439178467,-0.1223602294921875,-0.05529189109802246,0
-4.910762310028076,0.18572044372558594,-0.3197958469390869,0
-5.055922031402588,0.5420694351196289,-0.5125249624252319,0
-4.952976703643799,0.9200725555419922,-0.6628501415252686,0
-4.577130317687988,1.3912668228149414,-0.6893396377563477,0
-3.9073638916015625,1.8647098541259766,-0.6391196846961975,0
-3.2002220153808594,2.304713249206543,-0.5453250408172607,0
-2.6581485271453857,2.7832765579223633,-0.35914015769958496,0
-2.230154037475586,3.1833906173706055,-0.18431496620178223,0
-1.7874805927276611,3.498027801513672,-0.025788545608520508,0
-1.5352880954742432,3.688990592956543,0.12133502960205078,0
-1.244795560836792,3.816082000732422,0.2908337116241455,0
-1.139248013496399,3.7573471069335938,0.39417314529418945,0
-1.1834406852722168,3.5967397689819336,0.4475975036621094,0
-1.3878413438796997,3.5065526962280273,0.4388387203216553,0
-1.457064151763916,3.4053993225097656,0.3007349967956543,0
-1.8334510326385498,3.358001708984375,-0.0412900447845459,0
-2.102633476257324,3.185124397277832,-0.3867661952972412,0
-2.051034688949585,3.0019216537475586,-0.6744394302368164,0
-1.82615327835083,2.6888370513916016,-0.9307277202606201,0
-1.7225749492645264,2.303295135498047,-1.0975693464279175,0
-1.5239455699920654,1.8377704620361328,-1.3644086122512817,0
-1.19862961769104,1.2800493240356445,-1.7654476165771484,0
-0.7434245944023132,0.7447776794433594,-2.1346077919006348,0
-0.28606435656547546,0.2605428695678711,-2.36411714553833,0
0.0028671622276306152,-0.1705036163330078,-2.379525661468506,0
0.17300570011138916,-0.5655679702758789,-2.2421743869781494,0
0.18147659301757812,-0.9679269790649414,-2.10023832321167,0
-0.06642138957977295,-1.501988410949707,-2.083050489425659,0
-0.263286828994751,-2.0312108993530273,-2.1218066215515137,0
-0.5709572434425354,-2.464566230773926,-2.1885690689086914,0
-0.816498875617981,-2.8403029441833496,-2.150019884109497,0
-1.2031512260437012,-3.2540760040283203,-1.9372360706329346,0
-1.3855774402618408,-3.5244903564453125,-1.6239714622497559,0
-1.465493083000183,-3.774144172668457,-1.4153664112091064,0
-1.4997882843017578,-4.091806888580322,-1.351665735244751,0
-1.6827967166900635,-4.3052239418029785,-1.3705856800079346,0
-1.6893608570098877,-4.555670261383057,-1.5102405548095703,0
-1.6536762714385986,-4.780957221984863,-1.596017837524414,0
-1.5421537160873413,-4.957133769989014,-1.6761510372161865,0
-1.4361529350280762,-5.081859588623047,-1.7245054244995117,0
-1.2328102588653564,-5.104928493499756,-1.83939528465271,0
-1.0511802434921265,-5.083935260772705,-1.836719274520874,0
-1.0300676822662354,-4.98320198059082,-1.7570321559906006,0
-1.1192635297775269,-4.891307830810547,-1.633915901184082,0
-1.1677749156951904,-4.772373199462891,-1.5918941497802734,0
-1.2785271406173706,-4.557178020477295,-1.3916094303131104,0
-1.398929476737976,-4.332030773162842,-1.1597907543182373,0
-1.5435035228729248,-4.130451679229736,-1.0589897632598877,0
-1.6956160068511963,-3.9572181701660156,-1.01246976852417,0
-1.9899654388427734,-3.8506340980529785,-0.9097998142242432,0
-2.003077268600464,-3.9087681770324707,-0.9540798664093018,0
-2.063046932220459,-4.0001606941223145,-0.8671786785125732,0
-2.146857500076294,-4.091485977172852,-0.7753243446350098,0
-2.1689696311950684,-4.235408306121826,-0.6423397064208984,0
-2.0689399242401123,-4.709426403045654,-0.7095000743865967,0
-1.9595175981521606,-5.011290550231934,-0.5597233772277832,0
-1.855745553970337,-5.155603408813477,-0.43915319442749023,0
-1.7604484558105469,-5.211893081665039,-0.3211677074432373,0
-1.647782564163208,-5.19451904296875,-0.22951579093933105,0
-1.455566167831421,-5.179929733276367,-0.13074851036071777,0
-1.2718340158462524,-5.2013750076293945,-0.1327807903289795,0
-1.1007593870162964,-5.134091377258301,-0.1094198226928711,0
-0.9154554605484009,-4.956297397613525,0.12993955612182617,0
-0.705335795879364,-4.698771953582764,0.3855710029602051,0
-0.5361767411231995,-4.353864669799805,0.6775226593017578,0
-0.5554444193840027,-3.7584877014160156,1.0448920726776123,0
-0.30727648735046387,-3.1084089279174805,1.370943546295166,0
-0.13577008247375488,-2.216313362121582,1.4882416725158691,0
0.35340166091918945,-1.1627616882324219,1.434774398803711,0
0.7831273078918457,0.07734012603759766,1.242779016494751,0
1.177842617034912,1.5196599960327148,1.0658009052276611,0
1.768831491470337,3.335186004638672,1.1603717803955078,0
2.3816795349121094,5.295088768005371,1.561546802520752,0
2.9398117065429688,7.47833251953125,2.5585837364196777,0
3.267820358276367,9.716020584106445,4.418398857116699,0
2.8110270500183105,10.99240779876709,6.794277191162109,0
2.903942346572876,10.276776313781738,8.110705375671387,0
2.829127073287964,9.155187606811523,8.953814506530762,0
2.3878016471862793,7.805575370788574,9.722870826721191,0
1.7648566961288452,5.811166763305664,9.860239028930664,0
1.138716697692871,3.706300735473633,8.877488136291504,0
0.4349104166030884,2.530747413635254,6.067314147949219,0
0.004338860511779785,3.4834680557250977,2.8813276290893555,0
-0.1603996753692627,6.417675018310547,0.3346736431121826,0
-0.864368200302124,10.061996459960938,-2.3257851600646973,0
-2.0267930030822754,13.16491985321045,-4.608306884765625,0
-3.8986167907714844,14.920371055603027,-5.473206043243408,0
-6.121608734130859,14.180765151977539,-4.992515563964844,0
-5.2332844734191895,10.651368141174316,-4.489644527435303,0
-3.6958770751953125,5.408681869506836,-4.338161468505859,0
-3.906343460083008,1.202652931213379,-4.2872314453125,0
-4.798649787902832,-0.9953422546386719,-2.696563959121704,0
-5.878931045532227,-1.2560997009277344,-1.6579229831695557,0
-6.198307037353516,-0.9854459762573242,-0.7019491195678711,0
-5.4233903884887695,-0.4432668685913086,1.0635466575622559,0
-3.5713908672332764,-0.27478981018066406,2.378387451171875,0
-1.6608186960220337,-0.46848392486572266,2.039076566696167,0
-0.6445561051368713,-0.7902927398681641,0.09430575370788574,0
-0.5415087342262268,-1.062025547027588,-1.6649377346038818,0
-0.7123827338218689,-1.2382497787475586,-2.490283489227295,0
-0.7496146559715271,-1.158278465270996,-2.822812795639038,0
-0.7018619775772095,-0.5974187850952148,-2.9504239559173584,0
-0.6244849562644958,0.22360610961914062,-3.3025059700012207,0
-0.3499835133552551,1.1489601135253906,-4.021135330200195,0
-0.26954221725463867,2.114089012145996,-4.675143241882324,0
-0.32332801818847656,2.8774490356445312,-4.9103779792785645,0
-0.27171921730041504,3.221414566040039,-4.819687843322754,0
-0.45186012983322144,2.983626365661621,-4.5362467765808105,0
-0.7387667298316956,2.2222280502319336,-4.258397102355957,0
-1.0833427906036377,1.1896324157714844,-4.198208332061768,0
-1.3118902444839478,0.2699775695800781,-4.3564276695251465,0
-1.4086270332336426,-0.29173755645751953,-4.272862434387207,0
-1.401159644126892,-0.4403705596923828,-3.7254483699798584,0
-1.3418545722961426,-0.32700347900390625,-2.8995916843414307,0
-1.3292216062545776,-0.09076595306396484,-2.0488829612731934,0
-1.2586596012115479,0.2058248519897461,-1.3352832794189453,0
-1.0378057956695557,0.2278432846069336,-0.7939572334289551,0
-0.7796313762664795,-0.05785179138183594,-0.5561304092407227,0
-0.5322024822235107,-0.6412744522094727,-0.6024563312530518,0
-0.3385295867919922,-1.3762502670288086,-0.7938746213912964,0
-0.3775697946548462,-2.1169347763061523,-1.0939373970031738,0
-0.5267720222473145,-2.822850227355957,-1.3084660768508911,0
-0.7979971766471863,-3.3172497749328613,-1.5446380376815796,0
-0.8637739419937134,-3.4306654930114746,-1.7662649154663086,0
-0.7103210091590881,-3.2018136978149414,-2.085606098175049,0
-0.5557321310043335,-2.6884636878967285,-2.392556667327881,0
-0.48424506187438965,-2.108419895172119,-2.720797061920166,0
-0.314394474029541,-1.746142864227295,-2.9607789516448975,0
-0.18528318405151367,-1.5079317092895508,-2.986529588699341,0
-0.1354537010192871,-1.4605646133422852,-2.657197952270508,0
-0.25400781631469727,-1.4315986633300781,-2.248020887374878,0
-0.2662280797958374,-1.475987434387207,-1.9143778085708618,0
-0.20100641250610352,-1.557779312133789,-1.7972978353500366,0
-0.11298537254333496,-1.5981016159057617,-1.7076749801635742,0
-0.06868195533752441,-1.5325489044189453,-1.6812984943389893,0
-0.12973344326019287,-1.4689512252807617,-1.7228449583053589,0
-0.11161112785339355,-1.4289512634277344,-1.769681453704834,0
-0.11714351177215576,-1.3576116561889648,-1.7376998662948608,0
-0.06509017944335938,-1.33392333984375,-1.7318661212921143,0
-0.0681377649307251,-1.2956819534301758,-1.6632423400878906,0
-0.1720815896987915,-1.0659074783325195,-1.5963351726531982,0
-0.04944944381713867,-0.8767452239990234,-1.4831923246383667,0
0.1678236722946167,-0.7376260757446289,-1.3433866500854492,0
0.19945192337036133,-0.6507577896118164,-1.222779393196106,0
0.6371424198150635,-0.8552408218383789,-0.9546613693237305,0
0.7591620683670044,-1.0662107467651367,-0.8174949884414673,0
0.7119163274765015,-1.0398063659667969,-0.694072425365448,0
0.5555553436279297,-1.029841423034668,-0.6273411512374878,0
0.5538045167922974,-1.050734519958496,-0.7991573214530945,0
0.5346027612686157,-0.896876335144043,-0.922297477722168,0
0.447676420211792,-0.7646293640136719,-0.8287556171417236,0
0.36977899074554443,-0.7568626403808594,-0.7621557712554932,0
0.2721043825149536,-0.6677894592285156,-0.6552956700325012,0
0.06617271900177002,-0.5931529998779297,-0.5632144808769226,0
-0.02785360813140869,-0.5520486831665039,-0.4933546781539917,0
0.023032069206237793,-0.43201541900634766,-0.5220409631729126,0
0.11808371543884277,-0.37660694122314453,-0.5247353911399841,0
0.051363468170166016,-0.4789571762084961,-0.4990479648113251,0
0.05728018283843994,-0.6097307205200195,-0.44989222288131714,0
0.03786122798919678,-0.7091426849365234,-0.4249865710735321,0
0.015241146087646484,-0.7462339401245117,-0.32117581367492676,0
-0.3311348557472229,-0.8525609970092773,-0.33956843614578247,0
-0.19970393180847168,-0.8869600296020508,-0.4013121724128723,0
-0.03357338905334473,-0.8279743194580078,-0.46355265378952026,0
-0.060207486152648926,-0.6948099136352539,-0.4880901277065277,0
-0.02821481227874756,-0.5808219909667969,-0.47505223751068115,0
-0.06674313545227051,-0.4286069869995117,-0.3620474338531494,0
-0.07302379608154297,-0.2166738510131836,-0.04623415321111679,0
-0.15486633777618408,0.10274791717529297,0.2759113609790802,0
-0.048827409744262695,0.37168025970458984,0.5252373814582825,0
-0.01816093921661377,0.5208425521850586,0.6033927798271179,0
0.022756755352020264,0.4906644821166992,0.7256373167037964,0
0.2531101703643799,0.4344034194946289,0.8824955224990845,0
0.49325472116470337,0.45012760162353516,0.9661272168159485,0
0.6853893995285034,0.41582202911376953,0.9023299217224121,0
0.8390867114067078,0.30524539947509766,0.9020622968673706,0
1.0453119277954102,0.3313007354736328,0.9012705683708191,0
1.1865878105163574,0.32168102264404297,0.8906683921813965,0
1.267143964767456,0.37450599670410156,0.7649738788604736,0
1.1817476749420166,0.4060020446777344,0.6772805452346802,0
1.5477426052093506,0.5309438705444336,0.7901958227157593,0
1.5847649574279785,0.584228515625,0.7876416444778442,0
1.6039927005767822,0.5802726745605469,0.7866877317428589,0
1.579052209854126,0.5669393539428711,0.6241981983184814,0
1.722509741783142,0.6111545562744141,0.48387327790260315,0
1.802154541015625,0.6315240859985352,0.45410653948783875,0
1.7870194911956787,0.8456554412841797,0.43217456340789795,0
1.8470299243927002,1.016587257385254,0.5261732935905457,0
1.73569917678833,1.3117589950561523,0.5593403577804565,0
1.7503278255462646,1.4799270629882812,0.6684156656265259,0
1.7336078882217407,1.6312103271484375,0.8367136120796204,0
1.7653738260269165,1.6675376892089844,0.8821835517883301,0
1.7933334112167358,1.6153316497802734,1.0272231101989746,0
1.7910096645355225,1.4986047744750977,1.1853528022766113,0
1.9421744346618652,1.5254602432250977,1.2534465789794922,0
2.1171493530273438,1.5761537551879883,1.355684518814087,0
2.3873822689056396,1.6673946380615234,1.4848155975341797,0
2.6665751934051514,1.7034740447998047,1.607243537902832,0
2.9519577026367188,1.7657384872436523,1.6341350078582764,0
3.176304817199707,1.8397607803344727,1.682082176208496,0
3.252859354019165,2.028313636779785,1.6596946716308594,0
3.4759650230407715,2.14235782623291,1.784773349761963,0
3.699507236480713,2.1317615509033203,1.7987778186798096,0
3.813331365585327,2.0205631256103516,1.7181344032287598,0
3.8845226764678955,1.9045076370239258,1.5376951694488525,0
3.91278076171875,1.8457517623901367,1.3383419513702393,0
3.7923903465270996,1.894454002380371,1.1078157424926758,0
3.7285220623016357,2.014655113220215,0.8653125762939453,0
3.6272671222686768,2.2374391555786133,0.7621050477027893,0
3.423799514770508,2.342794418334961,0.7296194434165955,0
3.3456578254699707,2.3452844619750977,0.6775157451629639,0
3.3310844898223877,2.127899169921875,0.552933931350708,0
3.2345900535583496,1.8080825805664062,0.2544846534729004,0
3.071070671081543,1.4409818649291992,-0.20920222997665405,0
2.857477903366089,1.0243511199951172,-0.7163337469100952,0
2.6582765579223633,0.6874961853027344,-1.0153582096099854,0
2.4471096992492676,0.43761444091796875,-1.194526195526123,0
2.016146659851074,0.1575460433959961,-1.1935055255889893,0
1.413886308670044,-0.09518814086914062,-1.17436683177948,0
0.7393871545791626,-0.3588266372680664,-1.2683401107788086,0
-0.004168450832366943,-0.5161285400390625,-1.4832396507263184,0
-0.5287566781044006,-0.6006126403808594,-1.681596040725708,0
-1.032123327255249,-0.5357208251953125,-1.7550209760665894,0
-1.5228018760681152,-0.4744873046875,-1.6260769367218018,0
-2.073826789855957,-0.29720020294189453,-1.1917667388916016,0
-2.5526070594787598,-0.13068866729736328,-0.6871656179428101,0
-3.0998141765594482,0.08717727661132812,-0.21979773044586182,0
-3.526364803314209,0.30834197998046875,0.041117191314697266,0
-3.718351125717163,0.6592206954956055,0.0562288761138916,0
-3.7232041358947754,1.1177501678466797,-0.25707781314849854,0
-3.5810201168060303,1.5376348495483398,-0.7654609680175781,0
-3.2762932777404785,1.7992277145385742,-1.1031992435455322,0
-2.9658381938934326,2.0629758834838867,-1.207287073135376,0
-2.6775498390197754,2.3003196716308594,-1.038751482963562,0
-2.4681334495544434,2.556899070739746,-0.6708499193191528,0
-2.0799074172973633,2.821101188659668,-0.24726390838623047,0
-1.8473639488220215,3.0670881271362305,0.19323742389678955,0
-1.7978830337524414,3.2808494567871094,0.6896370649337769,0
-1.793628454208374,3.4577741622924805,1.0811830759048462,0
-1.902701497077942,3.5978078842163086,1.3400461673736572,0
-2.011514186859131,3.7175636291503906,1.2234370708465576,0
-1.9421437978744507,3.630380630493164,0.7684674263000488,0
-1.8801932334899902,3.4272031784057617,-0.133880615234375,0
-1.6793467998504639,3.0746707916259766,-1.1889103651046753,0
-1.5744966268539429,2.5275211334228516,-2.214510440826416,0
-1.4324052333831787,1.8409624099731445,-2.8516969680786133,0
-1.0045480728149414,0.9982767105102539,-3.1171088218688965,0
-0.73243248462677,0.3247871398925781,-3.1517786979675293,0
-0.4570845663547516,-0.26824474334716797,-2.9817874431610107,0
-0.12225699424743652,-0.7069511413574219,-2.4942874908447266,0
0.022358357906341553,-1.1137027740478516,-1.8346831798553467,0
-0.09310203790664673,-1.5677223205566406,-1.2629499435424805,0
-0.4062470495700836,-2.031062602996826,-0.8713114261627197,0
-0.6088200807571411,-2.3940372467041016,-0.7072272300720215,0
-0.9908338189125061,-2.8412795066833496,-0.6696743965148926,0
-1.3309272527694702,-3.171842575073242,-0.8332376480102539,0
-1.4656941890716553,-3.153597831726074,-1.1297640800476074,0
-1.5891108512878418,-3.169322967529297,-1.3064682483673096,0
-1.2661997079849243,-2.934539794921875,-1.4015800952911377,0
-0.9137926697731018,-2.7462897300720215,-1.323866605758667,0
-0.6875646710395813,-2.695430278778076,-1.2839324474334717,0
-0.578669548034668,-2.7293596267700195,-1.168828010559082,0
-0.5757201313972473,-2.8122358322143555,-1.0978436470031738,0
-0.6374228000640869,-3.0134925842285156,-1.034987449645996,0
-0.6937916874885559,-3.2805023193359375,-1.042433261871338,0
-0.8209442496299744,-3.524667739868164,-1.1467499732971191,0
-0.9869039058685303,-3.7794933319091797,-1.3170957565307617,0
-1.1049376726150513,-4.004446506500244,-1.3549294471740723,0
-1.139093279838562,-4.23080587387085,-1.3965072631835938,0
-1.2740347385406494,-4.470726490020752,-1.271575927734375,0
-1.3611679077148438,-4.7697649002075195,-1.2216806411743164,0
-1.4195621013641357,-5.060953617095947,-1.3184585571289062,0
-1.4374421834945679,-5.38975191116333,-1.4564871788024902,0
-1.5011940002441406,-5.777728080749512,-1.5350430011749268,0
-1.733717441558838,-5.928372383117676,-1.4127099514007568,0
-1.780518889427185,-6.425451278686523,-1.7018935680389404,0
-1.5363099575042725,-6.862274646759033,-1.5743215084075928,0
-1.4684914350509644,-7.033445358276367,-1.3192017078399658,0
-1.4888783693313599,-6.87488317489624,-1.0843698978424072,0
-1.4185460805892944,-6.396669387817383,-0.7592940330505371,0
-1.235992670059204,-6.058260440826416,-0.4396653175354004,0
-1.1060676574707031,-6.045860767364502,-0.22367000579833984,0
-0.9924649000167847,-6.15083646774292,-0.0015091896057128906,0
-0.9186956882476807,-6.128918647766113,0.18816828727722168,0
-0.7816996574401855,-5.996781826019287,0.4311950206756592,0
-0.6531622409820557,-5.742378234863281,0.7726564407348633,0
-0.5354996919631958,-5.422738075256348,0.9747769832611084,0
-0.6227392554283142,-4.929531574249268,0.9810643196105957,0
-0.25621962547302246,-4.369904518127441,1.0959670543670654,0
0.13170599937438965,-3.5832009315490723,1.4945745468139648,0
0.3713202476501465,-2.5162854194641113,1.8346583843231201,0
0.7567325830459595,-1.3549699783325195,1.840587854385376,0
1.3180547952651978,0.1480712890625,1.502131462097168,0
1.7946979999542236,1.7331104278564453,0.6581747531890869,0
2.5076980590820312,3.721604347229004,-0.07954144477844238,0
3.1480908393859863,5.96091365814209,-0.5293586254119873,0
3.6277503967285156,8.288166999816895,-0.12454891204833984,0
3.595460891723633,10.486820220947266,1.7935805320739746,0
2.6839141845703125,11.62275218963623,4.681829452514648,0
2.660454273223877,10.840082168579102,6.782526016235352,0
2.5615835189819336,9.684774398803711,8.180232048034668,0
2.0356645584106445,8.62708568572998,9.392974853515625,0
1.5121642351150513,7.123177528381348,10.000116348266602,0
0.8504043817520142,4.896273612976074,9.5645751953125,0
0.4850656986236572,2.4236679077148438,8.238531112670898,0
0.5217880010604858,-0.020643234252929688,5.315973281860352,0
0.30676698684692383,-1.232557773590088,1.3890206813812256,0
-0.2820793390274048,0.15649032592773438,-1.2471559047698975,0
-0.7923556566238403,3.458010673522949,-2.1400368213653564,0
-1.665856122970581,7.010714530944824,-2.8800275325775146,0
-2.3898801803588867,9.80310344696045,-4.841853141784668,0
-3.1013832092285156,10.992944717407227,-6.469545364379883,0
-4.519556045532227,10.965816497802734,-6.785565376281738,0
-6.379534721374512,9.828163146972656,-5.976866722106934,0
-7.572213172912598,8.040879249572754,-4.732968807220459,0
-7.431443214416504,6.127897262573242,-2.743838310241699,0
-7.436789035797119,4.611193656921387,-0.8499765396118164,0
-6.978334426879883,3.4993772506713867,0.5424470901489258,0
-6.068972110748291,3.3074893951416016,1.1733076572418213,0
-5.055884838104248,3.750896453857422,1.217318058013916,0
-4.269613265991211,3.91451358795166,1.1103661060333252,0
-3.654904365539551,3.2517738342285156,0.6728641986846924,0
-3.065948486328125,2.0143089294433594,-0.27661848068237305,0
-2.565366744995117,0.5750503540039062,-1.2785160541534424,0
-2.340333938598633,-0.7063503265380859,-2.383544445037842,0
-2.5008413791656494,-1.4913816452026367,-3.4716415405273438,0
-2.786048412322998,-1.7123384475708008,-4.130849838256836,0
-2.837474822998047,-1.495966911315918,-4.23266077041626,0
-2.6296439170837402,-1.0247840881347656,-4.001737594604492,0
-1.946028470993042,-0.4027214050292969,-3.8847994804382324,0
-0.7642357349395752,0.3834257125854492,-3.9734766483306885,0
0.1329972743988037,0.8548994064331055,-4.227066993713379,0
0.9195096492767334,1.086491584777832,-4.5591139793396,0
1.294114351272583,0.9404993057250977,-5.018599987030029,0
1.4474470615386963,0.6045513153076172,-5.396664142608643,0
1.2832409143447876,0.14651966094970703,-5.69788122177124,0
0.9134804010391235,-0.24392223358154297,-5.635232925415039,0
0.6195007562637329,-0.5903158187866211,-5.165599822998047,0
0.2705836296081543,-0.6486444473266602,-4.3287763595581055,0
0.017824649810791016,-0.5985898971557617,-3.410111904144287,0
-0.20550930500030518,-0.5049467086791992,-2.5436036586761475,0
-0.44940584897994995,-0.3654136657714844,-1.84890615940094,0
-0.5895358920097351,-0.3687763214111328,-1.4030919075012207,0
-0.7600919008255005,-0.5361299514770508,-1.0873744487762451,0
-0.7604010105133057,-0.8790140151977539,-0.8691558837890625,0
-0.6289551258087158,-1.2679872512817383,-0.8447537422180176,0
-0.4808833599090576,-1.6456103324890137,-0.8731462955474854,0
-0.18987417221069336,-2.036011219024658,-0.6570484638214111,0
-0.02472090721130371,-2.353261947631836,-0.46842026710510254,0
0.17877185344696045,-2.576103687286377,-0.35869503021240234,0
0.2953171730041504,-2.630596160888672,-0.4035632610321045,0
0.40812134742736816,-2.6078639030456543,-0.4588348865509033,0
0.5047168731689453,-2.4817633628845215,-0.48089540004730225,0
0.5180345773696899,-2.33612060546875,-0.6825083494186401,0
0.4789309501647949,-2.10874605178833,-0.8315607309341431,0
0.46603941917419434,-1.983778953552246,-1.15787935256958,0
0.40031588077545166,-1.8869695663452148,-1.405350923538208,0
0.4568979740142822,-1.6893038749694824,-1.5258722305297852,0
0.43047332763671875,-1.6206169128417969,-1.4520593881607056,0
0.30470120906829834,-1.6975698471069336,-1.3918524980545044,0
0.27160370349884033,-1.802889347076416,-1.3236881494522095,0
0.19796335697174072,-1.7740535736083984,-1.1733733415603638,0
0.15594542026519775,-1.7308073043823242,-1.1228495836257935,0
0.12859272956848145,-1.615757942199707,-0.9782145023345947,0
0.18767893314361572,-1.493544578552246,-0.8328760862350464,0
0.16514384746551514,-1.364029884338379,-0.8187582492828369,0
0.31195390224456787,-1.1315107345581055,-0.7709620594978333,0
0.8324867486953735,-1.0927581787109375,-0.6803406476974487,0
0.9731305837631226,-0.8912210464477539,-0.5282126069068909,0
1.1768498420715332,-0.6873235702514648,-0.22392404079437256,0
1.1997205018997192,-0.5216865539550781,-0.12925153970718384,0
1.3842921257019043,-0.3249492645263672,-0.23489981889724731,0
1.5730507373809814,-0.14743423461914062,-0.34961897134780884,0
1.7806065082550049,-0.058501243591308594,-0.42349761724472046,0
1.676665186882019,0.044775962829589844,-0.564002513885498,0
1.5557143688201904,0.10248947143554688,-0.5021203756332397,0
1.2936972379684448,-0.03366374969482422,-0.4188542068004608,0
0.9676953554153442,-0.3347892761230469,-0.4626615345478058,0
0.7025144100189209,-0.6548271179199219,-0.5120924711227417,0
0.5530036687850952,-0.9745826721191406,-0.5412960648536682,0
0.3510183095932007,-1.1385488510131836,-0.6173330545425415,0
0.06933951377868652,-1.187474250793457,-0.6151443719863892,0
-0.1512233018875122,-1.2051734924316406,-0.4481208026409149,0
-0.2460823655128479,-1.1391029357910156,-0.24772168695926666,0
-0.39500999450683594,-0.9964933395385742,-0.04747515916824341,0
-0.4738081693649292,-0.8395729064941406,0.08314138650894165,0
-0.5833106637001038,-0.6754827499389648,0.14389020204544067,0
-0.6305696368217468,-0.638092041015625,0.20166456699371338,0
-0.6300547122955322,-0.5646476745605469,0.2563871741294861,0
-0.6345772743225098,-0.5197477340698242,0.41347160935401917,0
-0.5364419221878052,-0.4914207458496094,0.5031050443649292,0
-0.3525336980819702,-0.39595603942871094,0.4700756371021271,0
-0.2456883192062378,-0.34342288970947266,0.39813369512557983,0
-0.026926934719085693,-0.38159847259521484,0.4452357888221741,0
0.085968017578125,-0.3669090270996094,0.422569215297699,0
0.2604195475578308,-0.32811450958251953,0.42359691858291626,0
0.3026955723762512,-0.34415721893310547,0.3789781332015991,0
0.5429551005363464,-0.3599824905395508,0.3175049424171448,0
0.8471896648406982,-0.18192577362060547,0.2750701308250427,0
0.9049800634384155,-0.05894184112548828,0.4532286524772644,0
0.9748941659927368,0.07838058471679688,0.48817309737205505,0
0.8631023168563843,0.2252521514892578,0.4873232841491699,0
1.1082801818847656,0.37205982208251953,0.38104474544525146,0
1.3322755098342896,0.6837673187255859,0.3436271548271179,0
1.2430099248886108,0.9019479751586914,0.26933062076568604,0
1.3384718894958496,1.007563591003418,0.3184277415275574,0
1.467911720275879,1.2541818618774414,0.2751239240169525,0
1.334477186203003,1.4957695007324219,0.2301093488931656,0
1.2039268016815186,1.596029281616211,0.30536237359046936,0
1.1003727912902832,1.6292457580566406,0.400477796792984,0
0.9785346388816833,1.6146173477172852,0.5178478360176086,0
0.8625102639198303,1.5928363800048828,0.5833339691162109,0
0.9409875273704529,1.4132976531982422,0.7431296110153198,0
0.9526472091674805,1.3416328430175781,0.8537299633026123,0
1.0887761116027832,1.4135856628417969,1.003874659538269,0
1.3183059692382812,1.5285425186157227,1.1840684413909912,0
1.7200835943222046,1.562108039855957,1.2005962133407593,0
1.975550651550293,1.5597963333129883,1.1344430446624756,0
2.2802443504333496,1.5670957565307617,1.0836822986602783,0
2.494964122772217,1.5888032913208008,1.015180230140686,0
2.698845386505127,1.6248817443847656,0.9265438914299011,0
2.961266040802002,1.7446136474609375,0.8030330538749695,0
3.2438690662384033,1.799612045288086,0.7566455006599426,0
3.326411008834839,1.892740249633789,0.7701062560081482,0
3.264021873474121,1.9761066436767578,0.8957418203353882,0
3.2914955615997314,1.958836555480957,1.092595100402832,0
3.207758665084839,2.0012311935424805,1.2717061042785645,0
3.0535061359405518,1.947770118713379,1.425525188446045,0
3.0274484157562256,1.741166114807129,1.572837233543396,0
3.034013509750366,1.4294109344482422,1.6247098445892334,0
3.039816379547119,1.0915393829345703,1.6191059350967407,0
3.020554542541504,1.0456132888793945,1.4337928295135498,0
2.908205032348633,1.1454391479492188,1.1236027479171753,0
2.763725757598877,1.4578628540039062,0.8494254350662231,0
2.7202439308166504,1.7962112426757812,0.6648881435394287,0
2.5282585620880127,2.3135499954223633,0.43647903203964233,0
2.4006850719451904,2.6964807510375977,0.36784619092941284,0
2.3524482250213623,2.6989316940307617,0.31032711267471313,0
2.420180320739746,2.3453245162963867,0.08381815254688263,0
2.334019184112549,1.827458381652832,-0.3147810101509094,0
2.3075592517852783,1.2938737869262695,-0.730678141117096,0
2.0369791984558105,0.6299428939819336,-1.1938440799713135,0
1.8816921710968018,0.14682674407958984,-1.4383459091186523,0
1.5957766771316528,-0.05273628234863281,-1.332007884979248,0
1.1991078853607178,-0.12917327880859375,-1.3241639137268066,0
0.776343822479248,-0.1231689453125,-1.3573178052902222,0
0.304465651512146,-0.03708362579345703,-1.3288631439208984,0
-0.1843397617340088,0.09324455261230469,-1.2844626903533936,0
-0.7130264043807983,0.18898868560791016,-1.1381380558013916,0
-1.1562318801879883,0.1738138198852539,-0.9832299947738647,0
-1.5829637050628662,0.1460580825805664,-0.7551704049110413,0
-1.8806613683700562,0.1297588348388672,-0.34327828884124756,0
-2.2841897010803223,0.17029953002929688,-0.01595139503479004,0
-2.560018301010132,0.27922630310058594,0.23314130306243896,0
-2.7406489849090576,0.47735023498535156,0.22689545154571533,0
-2.808842897415161,0.8236513137817383,0.019433259963989258,0
-2.7323105335235596,1.2623729705810547,-0.3346242904663086,0
-2.628920316696167,1.6400489807128906,-0.7610225081443787,0
-2.496507406234741,1.968764305114746,-1.1899285316467285,0
-2.2708165645599365,2.2512645721435547,-1.3514361381530762,0
-2.1027185916900635,2.3852033615112305,-1.1865038871765137,0
-1.9398996829986572,2.483673095703125,-0.7437700033187866,0
-1.7752048969268799,2.5376367568969727,-0.06407737731933594,0
-1.5581682920455933,2.636012077331543,0.6379244327545166,0
-1.4871227741241455,2.7216310501098633,1.28731107711792,0
-1.61664617061615,2.823330879211426,1.6689152717590332,0
-1.5273396968841553,2.883650779724121,1.8051881790161133,0
-1.4796810150146484,2.7733325958251953,1.568401575088501,0
-1.2409014701843262,2.635687828063965,0.9772355556488037,0
-1.0546116828918457,2.417783737182617,0.12187337875366211,0
-1.0262808799743652,2.0930585861206055,-0.7785224914550781,0
-1.074958324432373,1.5562734603881836,-1.5536413192749023,0
-0.9327133297920227,0.9725618362426758,-2.088697910308838,0
-0.7716825008392334,0.32274818420410156,-2.410216808319092,0
-0.5506693124771118,-0.26432323455810547,-2.4722578525543213,0
-0.4685153067111969,-0.7816295623779297,-2.499880075454712,0
-0.32715147733688354,-1.0832767486572266,-2.4337995052337646,0
-0.3541741967201233,-1.4658613204956055,-2.3464179039001465,0
-0.4203660190105438,-1.8025026321411133,-2.147122859954834,0
-0.5669345259666443,-2.117490291595459,-1.9785982370376587,0
-0.6518901586532593,-2.4229159355163574,-1.9412704706192017,0
-0.6929762363433838,-2.376570224761963,-2.165377616882324,0
-0.7328460216522217,-2.3829312324523926,-2.316211223602295,0
-0.6755791902542114,-2.344013214111328,-2.4415597915649414,0
-0.6121358275413513,-2.277050495147705,-2.435281753540039,0
-0.6407933831214905,-2.254240036010742,-2.3826723098754883,0
-0.6497616767883301,-2.357059955596924,-2.316683292388916,0
-0.6728823184967041,-2.580839157104492,-2.138758897781372,0
-0.6882482767105103,-2.944790840148926,-1.961150050163269,0
-0.7360920906066895,-3.472774028778076,-1.8388686180114746,0
-0.9749315977096558,-3.7007784843444824,-1.7285947799682617,0
-1.0574052333831787,-3.8898391723632812,-1.683115005493164,0
-1.1190129518508911,-4.032825469970703,-1.6310358047485352,0
-1.3264553546905518,-4.1823410987854,-1.6445529460906982,0
-1.3895998001098633,-4.383608818054199,-1.7793018817901611,0
-1.4876925945281982,-4.6173529624938965,-1.815483570098877,0
-1.5824494361877441,-4.823831081390381,-1.8152804374694824,0
-1.6502630710601807,-4.967277526855469,-1.7809364795684814,0
-1.7540000677108765,-5.064541816711426,-1.740941047668457,0
-1.820054292678833,-5.1730756759643555,-1.6736128330230713,0
-1.9260916709899902,-5.250011920928955,-1.4491217136383057,0
-2.0514731407165527,-5.183152198791504,-1.1579158306121826,0
-2.054872512817383,-5.496344089508057,-1.0559210777282715,0
-2.075087070465088,-5.6439995765686035,-0.7768857479095459,0
-2.1551320552825928,-5.6216583251953125,-0.4641609191894531,0
-2.093883514404297,-5.451171875,-0.14377427101135254,0
-1.9702036380767822,-5.271475791931152,0.07450389862060547,0
-1.7579363584518433,-5.302606582641602,0.24371600151062012,0
-1.471551775932312,-5.367360591888428,0.30916500091552734,0
-1.2351598739624023,-5.412960052490234,0.2923731803894043,0
-1.0627648830413818,-5.348331451416016,0.30309343338012695,0
-0.8127102255821228,-5.189946174621582,0.2998228073120117,0
-0.5491822361946106,-4.93262243270874,0.3531811237335205,0
-0.24819421768188477,-4.532748699188232,0.4280819892883301,0
0.0067615509033203125,-4.035287857055664,0.6926608085632324,0
0.4578862190246582,-3.3610501289367676,1.200427770614624,0
0.8017336130142212,-2.411865234375,1.8781743049621582,0
1.2157790660858154,-1.3644285202026367,2.487067461013794,0
1.677816390991211,-0.04543304443359375,2.5548808574676514,0
2.1342954635620117,1.622903823852539,2.1324756145477295,0
2.6674647331237793,3.665586471557617,1.552990198135376,0
3.5252928733825684,5.934993743896484,1.3231253623962402,0
4.1837477684021,8.301889419555664,1.8521087169647217,0
4.571104049682617,10.248763084411621,3.454214334487915,0
4.318829536437988,11.11956787109375,5.782082557678223,0
4.192224502563477,10.068254470825195,6.946075439453125,0
3.5848615169525146,8.653068542480469,7.398758888244629,0
3.0580601692199707,7.129085540771484,8.073858261108398,0
2.5710105895996094,5.2393293380737305,8.70149040222168,0
2.0483250617980957,2.737107276916504,8.626201629638672,0
1.7655304670333862,-0.013806343078613281,6.966584205627441,0
1.6864129304885864,-2.5799713134765625,3.9918768405914307,0
1.4259792566299438,-4.320183277130127,0.6730108261108398,0
0.5154143571853638,-4.333887577056885,-1.8671635389328003,0
-0.6409885287284851,-1.9327545166015625,-3.330610752105713,0
-1.2913100719451904,1.5230083465576172,-4.340444087982178,0
-1.9071638584136963,4.600467681884766,-5.459292411804199,0
-2.376267433166504,7.131744384765625,-6.575761795043945,0
-3.5521974563598633,9.262310981750488,-7.007543563842773,0
-5.6651763916015625,11.074606895446777,-5.899565696716309,0
-8.094094276428223,12.422659873962402,-3.9527461528778076,0
-9.975854873657227,12.838469505310059,-2.204054355621338,0
-9.691360473632812,11.858441352844238,-0.28682422637939453,0
-8.083365440368652,9.825556755065918,1.548769235610962,0
-6.658203601837158,8.181952476501465,2.2852554321289062,0
-5.312406539916992,7.543696403503418,2.563809871673584,0
-4.262035369873047,7.038789749145508,2.7152247428894043,0
-3.3840560913085938,5.601222991943359,2.773240327835083,0
-2.796563148498535,3.037825584411621,1.4737589359283447,0
-2.6829638481140137,0.44153499603271484,-0.34996724128723145,0
-2.8512163162231445,-1.769956111907959,-2.346170663833618,0
-3.0506978034973145,-3.2588376998901367,-4.1633172035217285,0
-3.365225076675415,-3.729990005493164,-5.310759544372559,0
-3.614948034286499,-3.262084484100342,-5.268301486968994,0
-3.4544169902801514,-2.5657501220703125,-4.7189788818359375,0
-2.9638519287109375,-1.9761362075805664,-4.193786144256592,0
-2.2788777351379395,-1.4650306701660156,-3.840252161026001,0
-1.4854967594146729,-1.126199722290039,-3.869863748550415,0
-0.44067978858947754,-0.6325397491455078,-3.6692545413970947,0
0.44515740871429443,-0.11831283569335938,-3.531543254852295,0
0.738336443901062,0.10383796691894531,-3.952453374862671,0
0.9944585561752319,0.17841529846191406,-4.466533660888672,0
1.0735191106796265,0.11790657043457031,-4.799694538116455,0
1.0750343799591064,0.0016927719116210938,-4.692587852478027,0
1.0428197383880615,0.002471923828125,-4.214132785797119,0
0.9220569133758545,0.04641151428222656,-3.4497203826904297,0
1.0186936855316162,0.2342243194580078,-2.704268455505371,0
1.097750186920166,0.501399040222168,-2.035670280456543,0
1.1043039560317993,0.8528356552124023,-1.6598222255706787,0
1.3139708042144775,1.0662574768066406,-1.572686791419983,0
1.4020498991012573,0.9075098037719727,-1.4492976665496826,0
1.3164948225021362,0.45600223541259766,-1.3405426740646362,0
1.0580350160598755,-0.0655679702758789,-1.3161885738372803,0
1.0387197732925415,-0.7624349594116211,-1.2639575004577637,0
0.8902567625045776,-1.4360027313232422,-1.2963924407958984,0
0.7346770763397217,-2.052879810333252,-1.3823519945144653,0
0.5667862892150879,-2.562964916229248,-1.5120222568511963,0
0.3908618688583374,-2.944974422454834,-1.558042287826538,0
0.2762722969055176,-3.1682052612304688,-1.452710509300232,0
0.11052083969116211,-3.309478759765625,-1.3536040782928467,0
-0.07999908924102783,-3.380932331085205,-1.4230215549468994,0
-0.4150562286376953,-3.3205742835998535,-1.3923439979553223,0
-0.703064501285553,-3.138230800628662,-1.3832186460494995,0
-0.9107391834259033,-2.8196616172790527,-1.489005208015442,0
-1.1246058940887451,-2.446239471435547,-1.5065606832504272,0
-1.242154836654663,-2.010758399963379,-1.4817935228347778,0
-1.3570774793624878,-1.5801753997802734,-1.3313099145889282,0
-1.323939561843872,-1.2596330642700195,-1.0362502336502075,0
-1.3037042617797852,-1.0154800415039062,-0.6086058020591736,0
-1.2443772554397583,-0.9432277679443359,-0.22051513195037842,0
-1.0341496467590332,-0.9159517288208008,0.09509670734405518,0
-0.644849956035614,-1.0244770050048828,0.17374467849731445,0
-0.23711669445037842,-0.9769487380981445,0.13088274002075195,0
0.28060734272003174,-1.1897172927856445,0.031333088874816895,0
0.775101900100708,-1.2392902374267578,-0.13236010074615479,0
1.0793853998184204,-1.080439567565918,-0.09749579429626465,0
1.2465585470199585,-0.8377695083618164,0.03496134281158447,0
1.2746267318725586,-0.604640007019043,0.05894589424133301,0
1.4414294958114624,-0.2734956741333008,0.09178614616394043,0
1.5557140111923218,-0.009534835815429688,0.177076518535614,0
1.4907541275024414,0.20166397094726562,0.21927541494369507,0
1.5103580951690674,0.10906219482421875,0.06733924150466919,0
1.4502856731414795,-0.07901573181152344,0.048650264739990234,0
1.3995424509048462,-0.28838443756103516,0.10306298732757568,0
1.3033006191253662,-0.7007589340209961,0.06287789344787598,0
1.0658986568450928,-1.0959043502807617,-0.1555325984954834,0
0.9507673978805542,-1.5050048828125,-0.13528764247894287,0
0.9270262718200684,-1.7320427894592285,-0.18000662326812744,0
0.7072021961212158,-1.6576309204101562,-0.33021971583366394,0
0.5493990182876587,-1.6670703887939453,-0.2938016653060913,0
0.35990965366363525,-1.590449333190918,-0.2905922830104828,0
0.2961907386779785,-1.4063119888305664,-0.2961946129798889,0
0.2451152801513672,-1.1960086822509766,-0.25543397665023804,0
0.1563342809677124,-0.9762840270996094,-0.18258732557296753,0
0.13499975204467773,-0.7542858123779297,-0.08754074573516846,0
-0.0298311710357666,-0.5681991577148438,-0.004224002361297607,0
-0.06299245357513428,-0.4657926559448242,0.0670279711484909,0
-0.11530429124832153,-0.48042964935302734,0.2000390589237213,0
-0.12479674816131592,-0.4206523895263672,0.28681862354278564,0
-0.11255335807800293,-0.3966093063354492,0.45673027634620667,0
-0.18825078010559082,-0.31504249572753906,0.5326936841011047,0
-0.150995671749115,-0.17841148376464844,0.5626198649406433,0
-0.1370394229888916,-0.02028179168701172,0.5177792310714722,0
-0.03387570381164551,0.19517135620117188,0.5128157734870911,0
0.11780351400375366,0.32201290130615234,0.5359068512916565,0
0.27257782220840454,0.4272956848144531,0.5870069265365601,0
0.33957141637802124,0.46561431884765625,0.5871795415878296,0
0.40032124519348145,0.4944286346435547,0.6680948734283447,0
0.4308432340621948,0.49463462829589844,0.7580874562263489,0
0.49814629554748535,0.542790412902832,0.8142068386077881,0
0.6573368906974792,0.7081756591796875,0.8701367974281311,0
0.8247884511947632,0.8376083374023438,1.0430965423583984,0
0.8593401312828064,1.1152572631835938,1.141424536705017,0
0.9475626945495605,1.373551368713379,1.0810043811798096,0
0.9027736186981201,1.552724838256836,0.9835233688354492,0
0.9638720154762268,1.5118122100830078,0.9515528678894043,0
1.2619917392730713,1.6838855743408203,0.9636023640632629,0
1.2869514226913452,1.573746681213379,0.878624439239502,0
1.3665175437927246,1.4710721969604492,0.852290153503418,0
1.4265327453613281,1.4547548294067383,0.8727292418479919,0
1.4329921007156372,1.328603744506836,0.7745827436447144,0
1.6439260244369507,1.3605432510375977,0.7036685347557068,0
1.7508435249328613,1.3997087478637695,0.7054363489151001,0
1.8593974113464355,1.4675769805908203,0.7295522093772888,0
1.9339356422424316,1.5210399627685547,0.747136116027832,0
1.9866397380828857,1.7202777862548828,0.6957074403762817,0
1.9601608514785767,1.6513938903808594,0.6919645667076111,0
2.074456214904785,1.6494884490966797,0.8771820068359375,0
2.178203821182251,1.6475210189819336,0.9856656789779663,0
2.299572706222534,1.63592529296875,1.074932336807251,0
2.431359052658081,1.5525312423706055,1.2359035015106201,0
2.6668848991394043,1.4715452194213867,1.423152208328247,0
2.8481616973876953,1.3140544891357422,1.6439414024353027,0
3.0563783645629883,1.2140579223632812,1.8074597120285034,0
3.219682216644287,1.1069059371948242,1.8801910877227783,0
3.2684261798858643,1.1264867782592773,1.8930473327636719,0
3.288775682449341,1.1865434646606445,1.8889756202697754,0
3.3361656665802,1.119612693786621,1.810145378112793,0
3.3319525718688965,1.1027374267578125,1.5122443437576294,0
3.1632652282714844,1.2433767318725586,0.98223876953125,0
2.920520067214966,1.4672183990478516,0.6002873778343201,0
2.763389825820923,1.8483409881591797,0.24695178866386414,0
2.516418695449829,2.4392566680908203,-0.06244468688964844,0
2.3299331665039062,2.979166030883789,-0.40119266510009766,0
2.0862200260162354,3.408402442932129,-0.7357512712478638,0
2.0606119632720947,3.3852195739746094,-0.9324386119842529,0
2.129081964492798,3.0202150344848633,-1.1140334606170654,0
2.1414339542388916,2.493215560913086,-1.1232092380523682,0
2.1195950508117676,1.9336233139038086,-1.1496798992156982,0
1.9681981801986694,1.3846254348754883,-1.2227083444595337,0
1.9247208833694458,0.8367700576782227,-1.3809497356414795,0
1.83919358253479,0.3906230926513672,-1.694600224494934,0
1.5471386909484863,0.055800437927246094,-1.7859179973602295,0
1.2145171165466309,-0.021787643432617188,-1.623702883720398,0
0.6744539737701416,0.14815807342529297,-1.3394296169281006,0
0.12168613076210022,0.34311866760253906,-1.0255687236785889,0
-0.34232428669929504,0.3742542266845703,-0.872018575668335,0
-0.9057701826095581,0.42589378356933594,-0.6853987574577332,0
-1.4482226371765137,0.3353433609008789,-0.523795485496521,0
-1.9738932847976685,0.3059053421020508,-0.4336092472076416,0
-2.3516244888305664,0.40909862518310547,-0.38957637548446655,0
-2.5683658123016357,0.49160194396972656,-0.3739504814147949,0
-2.611201286315918,0.6775970458984375,-0.2803175449371338,0
-2.4983534812927246,0.9954156875610352,-0.11232447624206543,0
-2.3674733638763428,1.3275489807128906,0.027624011039733887,0
-2.3012044429779053,1.7312841415405273,0.1537266969680786,0
-2.020537853240967,2.1826372146606445,0.28908205032348633,0
-1.748528003692627,2.621922492980957,0.491965651512146,0
-1.4371998310089111,2.984807014465332,0.7750110626220703,0
-1.291871428489685,3.17836856842041,1.0362157821655273,0
-1.3168765306472778,3.301018714904785,1.2628566026687622,0
-1.1713248491287231,3.3265419006347656,1.4094934463500977,0
-1.100642204284668,3.209610939025879,1.3781845569610596,0
-1.0394188165664673,3.086728096008301,1.1809141635894775,0
-1.080302357673645,2.8193225860595703,0.7121646404266357,0
-1.0889980792999268,2.4530887603759766,0.0891883373260498,0
-0.9813673496246338,2.012070655822754,-0.6997829675674438,0
-0.8796718716621399,1.5632867813110352,-1.362525224685669,0
-0.6354689598083496,1.1638851165771484,-1.8407906293869019,0
-0.4095657169818878,0.6390399932861328,-2.2032477855682373,0
-0.2648635804653168,0.18969345092773438,-2.5548529624938965,0
-0.07277137041091919,-0.2488231658935547,-2.8094124794006348,0
-0.11890214681625366,-0.6884775161743164,-2.8927063941955566,0
-0.21200478076934814,-1.1963682174682617,-2.7948830127716064,0
-0.3593727946281433,-1.6722064018249512,-2.534641981124878,0
-0.6324862837791443,-2.1137962341308594,-2.3677423000335693,0
-0.8794517517089844,-2.478363037109375,-2.203000545501709,0
-1.2530460357666016,-2.878908634185791,-1.9292141199111938,0
-1.580151081085205,-3.303842544555664,-1.6726105213165283,0
-1.7591686248779297,-3.339508056640625,-1.6178438663482666,0
-1.8882168531417847,-3.3163366317749023,-1.6455159187316895,0
-1.7792115211486816,-3.248981475830078,-1.5397570133209229,0
-1.6489434242248535,-3.058696746826172,-1.4605555534362793,0
-1.4600074291229248,-3.0541272163391113,-1.3742985725402832,0
-1.3105262517929077,-3.0844945907592773,-1.3981242179870605,0
-1.1526440382003784,-3.0708189010620117,-1.465183973312378,0
-1.017290711402893,-3.1207237243652344,-1.5278739929199219,0
-0.9808796644210815,-3.1552562713623047,-1.4571435451507568,0
-0.9636396169662476,-3.279712677001953,-1.4589717388153076,0
-0.952663242816925,-3.5370726585388184,-1.478536605834961,0
-1.0351780652999878,-3.824317455291748,-1.4876933097839355,0
-1.0088272094726562,-4.000304698944092,-1.5062041282653809,0
-1.153336524963379,-4.187129020690918,-1.3763809204101562,0
-1.2536720037460327,-4.41583251953125,-1.3088510036468506,0
-1.3028148412704468,-4.571664333343506,-1.2005841732025146,0
-1.2886601686477661,-4.788603782653809,-1.2813324928283691,0
-1.362308144569397,-4.803650856018066,-1.249267339706421,0
-1.5153652429580688,-4.78693962097168,-1.0560576915740967,0
-1.5473079681396484,-4.822218894958496,-1.1177864074707031,0
-1.4871318340301514,-5.134284019470215,-1.1062774658203125,0
-1.5723050832748413,-5.172961235046387,-1.116758108139038,0
-1.5111979246139526,-5.235326766967773,-0.9835424423217773,0
-1.4383106231689453,-5.1637372970581055,-0.8257098197937012,0
-1.4256391525268555,-5.0587968826293945,-0.678952693939209,0
-1.413377285003662,-5.0973968505859375,-0.5265798568725586,0
-1.4349154233932495,-5.186032295227051,-0.3327677249908447,0
-1.4038623571395874,-5.283935546875,-0.10238265991210938,0
-1.3823888301849365,-5.333599090576172,0.12143087387084961,0
-1.2746232748031616,-5.306204795837402,0.2929716110229492,0
-1.2117598056793213,-5.254251956939697,0.4477865695953369,0
-1.1910403966903687,-5.148853302001953,0.62613844871521,0
-1.1429024934768677,-4.956179618835449,0.810380220413208,0
-1.2011241912841797,-4.527501583099365,0.8723735809326172,0
-0.9174770712852478,-4.056454181671143,1.1961219310760498,0
-0.6146183609962463,-3.5211167335510254,1.5933825969696045,0
-0.14127254486083984,-2.7033653259277344,2.0118277072906494,0
0.25116217136383057,-1.61692476272583,2.116105079650879,0
0.770208477973938,-0.22270774841308594,1.8886847496032715,0
1.376345157623291,1.3365612030029297,1.4484319686889648,0
2.038498878479004,3.3224611282348633,1.0099482536315918,0
2.929797649383545,5.620701789855957,0.8961734771728516,0
3.541578769683838,8.094840049743652,1.4394776821136475,0
3.847439765930176,10.255951881408691,3.1785762310028076,0
3.651625156402588,10.888466835021973,5.6093621253967285,0
3.782564640045166,10.096296310424805,7.08061408996582,0
3.7248177528381348,9.18553638458252,8.208349227905273,0
3.315972089767456,8.051933288574219,9.138139724731445,0
2.4798855781555176,6.247649192810059,9.359045028686523,0
1.8129591941833496,3.981435775756836,8.609031677246094,0
1.2042732238769531,1.5389814376831055,6.965919494628906,0
0.6612948179244995,-0.4039754867553711,4.0916290283203125,0
0.15491390228271484,-0.6130695343017578,0.7288956642150879,0
0.12487530708312988,1.8012933731079102,-1.2793936729431152,0
-0.30328798294067383,5.448339462280273,-1.8884479999542236,0
-1.277003526687622,9.00638198852539,-2.807548999786377,0
-1.9794635772705078,11.629380226135254,-4.749285697937012,0
-2.79837703704834,12.945759773254395,-5.944329261779785,0
-4.2530083656311035,12.854913711547852,-5.928132057189941,0
-5.401102066040039,11.171307563781738,-5.376616954803467,0
-5.27419376373291,7.7868242263793945,-4.030117511749268,0
-5.088983535766602,3.691971778869629,-2.0487072467803955,0
-5.593870162963867,0.9784326553344727,-0.20020532608032227,0
-6.302078723907471,0.052692413330078125,0.9998571872711182,0
-6.557400226593018,0.0744171142578125,2.4522910118103027,0
-5.780459403991699,0.28803348541259766,3.5813937187194824,0
-4.3019328117370605,-0.15997982025146484,2.51566743850708,0
-2.979238510131836,-0.9359378814697266,0.4422488212585449,0
-2.5825388431549072,-1.6035146713256836,-1.1837220191955566,0
-2.472080707550049,-2.1207327842712402,-2.5394959449768066,0
-2.4862990379333496,-2.3372135162353516,-3.171778917312622,0
-2.535390853881836,-2.022446632385254,-3.329263687133789,0
-2.295285701751709,-1.1601853370666504,-3.3665239810943604,0
-1.6923506259918213,0.02828693389892578,-3.4462037086486816,0
-1.034809947013855,1.2215051651000977,-3.8065154552459717,0
-0.013422250747680664,2.2989063262939453,-3.9456629753112793,0
1.072427749633789,3.0565996170043945,-4.214737892150879,0
1.6711677312850952,3.382242202758789,-4.504204750061035,0
1.7207263708114624,3.2188329696655273,-4.714969158172607,0
1.274718999862671,2.610356330871582,-5.060355186462402,0
0.6801038980484009,1.67779541015625,-5.614452362060547,0
0.09571337699890137,0.8770675659179688,-6.1516265869140625,0
-0.4017982482910156,0.4124317169189453,-6.257715225219727,0
-0.7659230828285217,0.2291402816772461,-5.6298041343688965,0
-0.8989770412445068,0.27910709381103516,-4.491619110107422,0
-1.0868066549301147,0.4709815979003906,-3.151426076889038,0
-1.2703248262405396,0.5341482162475586,-1.983919620513916,0
-1.194326400756836,0.48067474365234375,-1.1224437952041626,0
-1.1106936931610107,0.1841259002685547,-0.5956442356109619,0
-0.8261474370956421,-0.22353649139404297,-0.2552940845489502,0
-0.5663804411888123,-0.6584405899047852,-0.007864236831665039,0
-0.30104005336761475,-1.1683158874511719,-0.06358790397644043,0
-0.12364590167999268,-1.6407184600830078,-0.33826780319213867,0
0.10930216312408447,-1.8630256652832031,-0.6255214214324951,0
0.45973217487335205,-1.9672632217407227,-0.9029781818389893,0
0.6839826107025146,-1.9442858695983887,-1.119567632675171,0
0.8592506647109985,-1.87333345413208,-1.2390334606170654,0
0.6987684965133667,-1.718632698059082,-1.3665165901184082,0
0.4445303678512573,-1.5662918090820312,-1.571610927581787,0
0.10181581974029541,-1.4999208450317383,-1.7925453186035156,0
-0.14457905292510986,-1.505030632019043,-1.9676414728164673,0
-0.2680637836456299,-1.5168876647949219,-2.1263277530670166,0
-0.5055719614028931,-1.4899520874023438,-2.190263271331787,0
-0.5842829942703247,-1.5151195526123047,-2.12394642829895,0
-0.6669604778289795,-1.4584178924560547,-1.8894885778427124,0
-0.7633969187736511,-1.5255470275878906,-1.6642274856567383,0
-0.7440264821052551,-1.4892959594726562,-1.4194658994674683,0
-0.7352181673049927,-1.3713922500610352,-1.329925298690796,0
-0.7106712460517883,-1.262838363647461,-1.3356170654296875,0
-0.7304548621177673,-1.154104232788086,-1.2686549425125122,0
-0.6560821533203125,-1.0189895629882812,-1.1594637632369995,0
-0.47850096225738525,-0.953221321105957,-1.1150468587875366,0
-0.35380375385284424,-0.8825531005859375,-1.1828221082687378,0
-0.0406571626663208,-0.8859243392944336,-1.1948071718215942,0
0.2167884111404419,-0.7935018539428711,-1.1388161182403564,0
0.3946467638015747,-0.6412315368652344,-1.1202768087387085,0
0.5340158939361572,-0.5654811859130859,-1.1562211513519287,0
0.5972877740859985,-0.4322929382324219,-1.1895313262939453,0
0.5392580032348633,-0.39237403869628906,-1.1988621950149536,0
0.47000277042388916,-0.34755611419677734,-1.1891144514083862,0
0.5190011262893677,-0.3720083236694336,-1.1460717916488647,0
0.5339514017105103,-0.5828952789306641,-1.0463097095489502,0
0.40281224250793457,-0.7576122283935547,-0.9717580676078796,0
0.16634607315063477,-0.829228401184082,-0.7959479093551636,0
0.04015517234802246,-0.9796438217163086,-0.6219075918197632,0
-0.08340680599212646,-1.0342397689819336,-0.5189509391784668,0
-0.10179722309112549,-1.0098466873168945,-0.3960871994495392,0
-0.017792701721191406,-0.8897867202758789,-0.399348646402359,0
0.005410909652709961,-0.6740942001342773,-0.4811684489250183,0
-0.013369083404541016,-0.37006282806396484,-0.33001866936683655,0
-0.03609740734100342,-0.20502376556396484,0.045807719230651855,0
-0.2685094475746155,-0.10230255126953125,0.4864407777786255,0
-0.13351953029632568,-0.2029104232788086,0.3978968560695648,0
-0.10019946098327637,-0.17417240142822266,0.15033802390098572,0
-0.039717912673950195,-0.32704925537109375,0.14331060647964478,0
-0.06500256061553955,-0.35042858123779297,-0.13010218739509583,0
0.04636180400848389,-0.4190492630004883,-0.17623840272426605,0
0.00970470905303955,-0.4085426330566406,-0.11190806329250336,0
-0.08871608972549438,-0.3979158401489258,-0.023088812828063965,0
0.06700372695922852,-0.3847827911376953,0.09725376963615417,0
0.18005657196044922,-0.24240493774414062,0.210537388920784,0
0.2981144189834595,-0.11437416076660156,0.2566419541835785,0
0.4089354872703552,-0.07716083526611328,0.31208813190460205,0
0.47426825761795044,-0.08043766021728516,0.41991233825683594,0
0.44377803802490234,-0.1767416000366211,0.3980417251586914,0
0.6212153434753418,-0.2153148651123047,0.41855189204216003,0
0.6786845326423645,-0.2823171615600586,0.4167139530181885,0
0.7096838355064392,-0.29882335662841797,0.4810445010662079,0
0.6614981889724731,-0.2888059616088867,0.5110422372817993,0
0.6584775447845459,-0.1829547882080078,0.5689830780029297,0
0.7368709444999695,-0.04121208190917969,0.714751124382019,0
0.7149924039840698,0.05506420135498047,0.7663267254829407,0
0.8773301243782043,0.18483924865722656,0.7569588422775269,0
1.070723056793213,0.32175731658935547,0.739335834980011,0
1.1635942459106445,0.3558082580566406,0.687164306640625,0
1.2373807430267334,0.28233814239501953,0.7154707908630371,0
1.2822351455688477,0.20669269561767578,0.6063341498374939,0
1.4797941446304321,0.3082084655761719,0.570345401763916,0
1.585978388786316,0.4097166061401367,0.6506649255752563,0
1.5960073471069336,0.5446920394897461,0.7349251508712769,0
1.5696632862091064,0.6509256362915039,0.7992627620697021,0
1.5118730068206787,0.7069215774536133,0.8198661804199219,0
1.3989300727844238,0.5884017944335938,0.9236949682235718,0
1.5702849626541138,0.5418682098388672,1.0245994329452515,0
1.4323091506958008,0.3520374298095703,1.0771445035934448,0
1.5237888097763062,0.16971588134765625,1.1844950914382935,0
1.6512277126312256,0.030745506286621094,1.2963413000106812,0
1.7211488485336304,-0.06493473052978516,1.3215506076812744,0
1.943877935409546,-0.12694835662841797,1.3796191215515137,0
2.1180832386016846,-0.07883453369140625,1.4272944927215576,0
2.4015390872955322,0.033832550048828125,1.445310115814209,0
2.8157060146331787,0.23009395599365234,1.455310344696045,0
3.123600721359253,0.3854808807373047,1.4019770622253418,0
3.3825058937072754,0.5215377807617188,1.308821201324463,0
3.648064613342285,0.6358718872070312,1.3120932579040527,0
3.723921060562134,0.7404489517211914,1.294240951538086,0
3.7654757499694824,0.9380731582641602,1.293189525604248,0
3.8063032627105713,1.1688232421875,1.3300633430480957,0
3.8322391510009766,1.1672325134277344,1.4979329109191895,0
3.814392566680908,1.1128854751586914,1.4827337265014648,0
3.67842698097229,1.1636295318603516,1.2935895919799805,0
3.4696593284606934,1.3934497833251953,1.0643315315246582,0
3.3501200675964355,1.5343255996704102,0.6992835998535156,0
3.1537177562713623,1.8302984237670898,0.4262792468070984,0
2.7719385623931885,2.1210060119628906,0.22171378135681152,0
2.455152750015259,2.5810375213623047,0.1265389621257782,0
2.2604167461395264,2.813286781311035,0.1168813407421112,0
2.0778303146362305,2.8467493057250977,0.010402262210845947,0
2.008408546447754,2.6075668334960938,-0.07411634922027588,0
1.966191291809082,2.1917724609375,-0.1972583532333374,0
1.925461769104004,1.728775978088379,-0.350228488445282,0
1.6012009382247925,1.355031967163086,-0.5766822099685669,0
1.5963884592056274,1.1901273727416992,-0.6989246010780334,0
1.507771611213684,1.0043888092041016,-0.9177843928337097,0
1.259286880493164,0.9629631042480469,-1.1136093139648438,0
0.8058074712753296,0.9414854049682617,-1.1742658615112305,0
0.3250883221626282,0.9974746704101562,-1.114224910736084,0
-0.10776183009147644,1.0664291381835938,-1.0413808822631836,0
-0.5585379600524902,1.1795654296875,-0.9150733947753906,0
-1.0164258480072021,1.0595808029174805,-0.7229716777801514,0
-1.4926059246063232,1.0272836685180664,-0.48848894238471985,0
-1.9890729188919067,1.0204477310180664,-0.2128661870956421,0
-2.434006452560425,1.0151071548461914,0.045762479305267334,0
-2.983362913131714,1.0876836776733398,0.37770599126815796,0
-3.3624513149261475,1.216379165649414,0.5862928628921509,0
-3.471527099609375,1.3649816513061523,0.728645920753479,0
-3.6275250911712646,1.70050048828125,0.8857309818267822,0
-3.5053906440734863,2.109983444213867,0.7717639207839966,0
-3.2971317768096924,2.5476694107055664,0.43759703636169434,0
-2.9749786853790283,2.8293161392211914,-0.016518473625183105,0
-2.542022466659546,2.993396759033203,-0.35229742527008057,0
-2.1450297832489014,3.1407012939453125,-0.5596903562545776,0
-1.6839655637741089,3.1400299072265625,-0.47568953037261963,0
-1.2090293169021606,3.1114301681518555,-0.31996893882751465,0
-0.8683077692985535,3.0432281494140625,-0.04595494270324707,0
-0.6543615460395813,2.9881677627563477,0.2742471694946289,0
-0.5091481804847717,2.922299385070801,0.5451712608337402,0
-0.4606906771659851,2.8958473205566406,0.642589807510376,0
-0.5103250741958618,2.841782569885254,0.5141470432281494,0
-0.43414294719696045,2.755314826965332,0.1361069679260254,0
-0.5160460472106934,2.5623559951782227,-0.4028754234313965,0
-0.7514363527297974,2.3132686614990234,-1.0379384756088257,0
-0.9187057018280029,2.0175743103027344,-1.5171607732772827,0
-1.1191298961639404,1.6226072311401367,-1.765964388847351,0
-1.1427786350250244,1.0517616271972656,-1.800522804260254,0
-1.2149772644042969,0.5083236694335938,-1.7448265552520752,0
-1.209059715270996,0.032596588134765625,-1.6506894826889038,0
-1.1246895790100098,-0.3399639129638672,-1.6417858600616455,0
-1.131605863571167,-0.7411727905273438,-1.6818856000900269,0
-1.2443523406982422,-1.0777912139892578,-1.782892107963562,0
-1.2699306011199951,-1.342597484588623,-2.007260799407959,0
-1.2299851179122925,-1.4782228469848633,-2.211733818054199,0
-1.1332958936691284,-1.7480359077453613,-2.257533073425293,0
-1.1777222156524658,-1.883993148803711,-2.279296875,0
-1.1067215204238892,-2.0441360473632812,-2.2006568908691406,0
-1.079984188079834,-2.1712703704833984,-2.0979995727539062,0
-0.9700133204460144,-2.3662896156311035,-2.047152519226074,0
-1.0640395879745483,-2.528977870941162,-1.9924371242523193,0
-1.1470452547073364,-2.7192306518554688,-2.034153461456299,0
-1.1400675773620605,-3.0732622146606445,-2.079246759414673,0
-1.0146636962890625,-3.248976707458496,-2.0416550636291504,0
-0.9784306287765503,-3.524001121520996,-2.0030016899108887,0
-0.9032092094421387,-4.1038384437561035,-2.0451555252075195,0
-1.1490063667297363,-4.110572338104248,-2.04337477684021,0
-1.2690043449401855,-4.07827091217041,-1.834670066833496,0
-1.3155689239501953,-4.0644121170043945,-1.7302501201629639,0
-1.39337956905365,-4.0640764236450195,-1.5990056991577148,0
-1.509552240371704,-4.0508036613464355,-1.5202698707580566,0
-1.5902464389801025,-4.050713062286377,-1.5517551898956299,0
-1.642868995666504,-4.006399631500244,-1.4900498390197754,0
-1.7180440425872803,-3.9896435737609863,-1.4021365642547607,0
-1.7900867462158203,-3.993283748626709,-1.2925341129302979,0
-1.8117547035217285,-4.005446434020996,-1.1154069900512695,0
-1.8506114482879639,-4.057279109954834,-1.0378739833831787,0
-1.8783249855041504,-4.17269229888916,-0.9663128852844238,0
-1.842695951461792,-4.346980571746826,-0.9097661972045898,0
-1.8108158111572266,-4.563518047332764,-0.8390209674835205,0
-1.7778326272964478,-4.64786434173584,-0.7895309925079346,0
-1.6957879066467285,-4.6839823722839355,-0.7250902652740479,0
-1.7415704727172852,-4.693359851837158,-0.633875846862793,0
-1.6539690494537354,-4.7739481925964355,-0.5831365585327148,0
-1.5189383029937744,-4.896885871887207,-0.544243335723877,0
-1.4344666004180908,-4.990199565887451,-0.4983551502227783,0
-1.3643684387207031,-4.991629123687744,-0.4193873405456543,0
-1.3346298933029175,-4.8963470458984375,-0.30529260635375977,0
-1.280448317527771,-4.721052646636963,-0.18507790565490723,0
-1.2255170345306396,-4.448960304260254,-0.00641322135925293,0
-1.107183575630188,-4.103769302368164,0.17714548110961914,0
-1.020828127861023,-3.7257437705993652,0.34755754470825195,0
-0.887127161026001,-3.218836784362793,0.5537207126617432,0
-0.6363359689712524,-2.494426727294922,0.8016622066497803,0
-0.37869083881378174,-1.6528339385986328,0.9610388278961182,0
-0.05719649791717529,-0.7102928161621094,0.9008686542510986,0
0.5286062955856323,0.5178804397583008,0.7793307304382324,0
1.2365580797195435,2.0178966522216797,0.4978907108306885,0
2.208670139312744,3.8884544372558594,0.3740372657775879,0
2.975546360015869,5.721015930175781,0.6424355506896973,0
3.378870725631714,7.234044075012207,1.4046473503112793,0
3.3328988552093506,7.949941635131836,2.892352819442749,0
3.16434907913208,7.477120399475098,4.738810062408447,0
3.034087657928467,6.841641426086426,6.218522071838379,0
2.342616081237793,6.31484317779541,7.088122367858887,0
1.7037129402160645,5.69439697265625,7.561861515045166,0
1.413335919380188,4.831310272216797,7.68167781829834,0
1.2060998678207397,3.55084228515625,7.397906303405762,0
