AccX,AccY,AccZ,stepCount
0.6516621112823486,2.081075668334961,0.6983109712600708,1.0380338430404663
0.8172666430473328,1.8622016906738281,0.8392291069030762,-1.25899338722229
1.1079328060150146,1.7130022048950195,1.0166497230529785,2.6657674312591553
1.3535330295562744,1.549713134765625,1.1995737552642822,-3.0019776821136475
1.7883334159851074,1.460810661315918,1.373917579650879,1.340818166732788
2.230510711669922,1.3529376983642578,1.4345327615737915,-2.2762601375579834
2.6416821479797363,1.2022066116333008,1.4339909553527832,1.8103235960006714
2.9762420654296875,1.080404281616211,1.338804006576538,-9.285008430480957
3.2269184589385986,1.0783309936523438,1.249261736869812,3.0343899726867676
3.371980905532837,1.2005910873413086,1.13387131690979,1.1548188924789429
3.5812630653381348,1.4278755187988281,1.0859063863754272,-1.468418836593628
3.677445888519287,1.6500511169433594,0.951851487159729,3.223112106323242
3.720191717147827,1.7786331176757812,0.7335625886917114,2.4778966903686523
3.678097724914551,2.0240936279296875,0.37992942333221436,0
3.648773431777954,2.281055450439453,0.06495845317840576,0
3.5097649097442627,2.5542984008789062,-0.13721102476119995,0
3.277573585510254,2.8844804763793945,-0.22630512714385986,0
3.0479719638824463,3.1448421478271484,-0.168337881565094,0
2.6990408897399902,3.3044090270996094,-0.17134994268417358,0
2.376837730407715,3.341792106628418,-0.24279865622520447,0
2.1124420166015625,3.290616989135742,-0.35202646255493164,0
1.898537039756775,3.1725263595581055,-0.4708358943462372,0
1.6871728897094727,3.1286792755126953,-0.6477705240249634,0
1.4567842483520508,3.0561904907226562,-0.8882765769958496,0
1.288949728012085,3.1559715270996094,-1.034862756729126,0
1.042781949043274,3.1959543228149414,-1.0398125648498535,0
0.8072107434272766,3.145230293273926,-0.9387584924697876,0
0.6475147604942322,2.9561853408813477,-0.8702408075332642,0
0.43780726194381714,2.5382070541381836,-1.0761380195617676,0
0.1000092625617981,1.9825468063354492,-1.458547830581665,0
-0.3536355495452881,1.260843276977539,-1.8163557052612305,0
-0.7623901963233948,0.516911506652832,-2.142491102218628,0
-1.1255515813827515,-0.055426597595214844,-2.4492199420928955,0
-1.4879865646362305,-0.4681968688964844,-2.626546621322632,0
-1.8875977993011475,-0.7597179412841797,-2.54701566696167,0
-2.1873340606689453,-0.9013767242431641,-2.245314836502075,0
-2.718968391418457,-0.9866209030151367,-1.951667308807373,0
-3.072906970977783,-1.005976676940918,-1.6598998308181763,0
-3.4331705570220947,-0.9356317520141602,-1.4146203994750977,0
-3.634817600250244,-0.758906364440918,-1.124913215637207,0
-3.64308500289917,-0.49739646911621094,-0.7640179395675659,0
-3.417262315750122,-0.15604400634765625,-0.32093411684036255,0
-3.020033359527588,0.1764059066772461,0.03644275665283203,0
-2.4348957538604736,0.44708919525146484,0.3338683843612671,0
-1.8239085674285889,0.6103649139404297,0.476823091506958,0
-1.3005582094192505,0.7642459869384766,0.31711316108703613,0
-0.9845283031463623,0.813023567199707,0.024251222610473633,0
-0.8512687683105469,0.9099531173706055,-0.39829492568969727,0
-0.784314751625061,1.0360498428344727,-0.9067914485931396,0
-0.8390368223190308,1.2012224197387695,-1.367277979850769,0
-1.1835331916809082,1.3222522735595703,-1.6532177925109863,0
-1.682295799255371,1.3302955627441406,-1.8071707487106323,0
-2.1378602981567383,1.3428955078125,-1.8298709392547607,0
-2.364941358566284,1.3050212860107422,-1.6203892230987549,0
-2.3747503757476807,1.2093172073364258,-1.3019040822982788,0
-2.1575450897216797,1.0005607604980469,-0.9399348497390747,0
-2.061185359954834,0.7671270370483398,-0.7413103580474854,0
-1.8693580627441406,0.42752933502197266,-0.7286882400512695,0
-1.6893620491027832,0.2351856231689453,-0.8724470138549805,0
-1.3295304775238037,0.30669403076171875,-1.1377840042114258,0
-0.7955492734909058,0.4499225616455078,-1.6571528911590576,0
-0.41151124238967896,0.4303169250488281,-2.193450450897217,0
-0.20938706398010254,0.4514331817626953,-2.484309196472168,0
-0.0245770663022995,0.1497640609741211,-2.4059104919433594,0
-0.08903016895055771,-0.23308944702148438,-2.1542258262634277,0
-0.31116896867752075,-0.8503646850585938,-1.913041353225708,0
-0.3933871388435364,-1.6088213920593262,-1.5527539253234863,0
-0.4801216125488281,-2.125734329223633,-1.499429702758789,0
-0.5151410102844238,-2.714390277862549,-1.6053364276885986,0
-0.4831353425979614,-3.104372501373291,-1.6580579280853271,0
-0.47901421785354614,-3.487179756164551,-1.7368578910827637,0
-0.40647009015083313,-3.757693290710449,-1.8967108726501465,0
-0.3846726417541504,-4.222208023071289,-2.0298688411712646,0
-0.45396748185157776,-4.5912089347839355,-2.1005568504333496,0
-0.42283278703689575,-4.812124252319336,-2.123537302017212,0
-0.5836457014083862,-4.825518608093262,-2.0388550758361816,0
-0.5588448643684387,-4.335468292236328,-1.8748064041137695,0
-0.6124253869056702,-3.565423011779785,-1.6043720245361328,0
-0.6348108053207397,-2.9512858390808105,-1.3944108486175537,0
-0.757906436920166,-2.521699905395508,-1.2255511283874512,0
-0.7446922063827515,-2.121062755584717,-1.0714876651763916,0
-0.8174792528152466,-1.9837331771850586,-0.8987226486206055,0
-0.9572475552558899,-2.0089292526245117,-0.8126211166381836,0
-1.0419496297836304,-2.0313549041748047,-0.8253271579742432,0
-1.0575580596923828,-2.1084656715393066,-0.7740490436553955,0
-1.1476448774337769,-2.259413242340088,-0.8189470767974854,0
-1.1592156887054443,-2.5463318824768066,-0.9215679168701172,0
-1.1878862380981445,-2.830465316772461,-0.92626953125,0
-1.2385084629058838,-3.171649932861328,-0.9406781196594238,0
-1.1486444473266602,-3.5674796104431152,-0.9694385528564453,0
-1.0600831508636475,-3.8959527015686035,-0.9909336566925049,0
-0.925635814666748,-4.166816234588623,-0.952293872833252,0
-0.8150568008422852,-4.428018569946289,-1.006425142288208,0
-0.7715740203857422,-4.650933265686035,-1.0501680374145508,0
-0.7117395401000977,-4.883378028869629,-1.0547850131988525,0
-0.697968602180481,-5.010463714599609,-0.9916436672210693,0
-0.5771667957305908,-5.127849578857422,-0.884772539138794,0
-0.5909396409988403,-5.139693260192871,-0.7631113529205322,0
-0.5787643790245056,-5.031589508056641,-0.5766148567199707,0
-0.6863855123519897,-4.793880939483643,-0.34712791442871094,0
-0.8031690716743469,-4.4192705154418945,-0.10136127471923828,0
-0.9737598896026611,-3.9434494972229004,0.24617767333984375,0
-1.0200324058532715,-3.3327183723449707,0.6372900009155273,0
-1.0020172595977783,-2.7182064056396484,0.9991505146026611,0
-0.7318660020828247,-1.9725465774536133,1.2465324401855469,0
-0.6079314351081848,-1.1165294647216797,1.3150737285614014,0
-0.3754853308200836,-0.1564769744873047,1.2954909801483154,0
-0.11731058359146118,0.7914085388183594,1.2755107879638672,0
0.3035902976989746,1.8407268524169922,1.213209867477417,0
0.9090164303779602,3.090696334838867,1.1691882610321045,0
1.3252676725387573,4.44428825378418,1.213895559310913,0
1.601686716079712,5.995319366455078,1.6753668785095215,0
1.2784829139709473,7.169558525085449,2.754995584487915,0
1.1118214130401611,7.50943660736084,4.848464488983154,0
0.8731057047843933,7.262950897216797,6.754486083984375,0
0.6773947477340698,6.809211730957031,8.14816951751709,0
0.6028350591659546,6.074740409851074,8.786216735839844,0
0.4120248556137085,4.907316207885742,9.027610778808594,0
0.34984952211380005,3.4018287658691406,8.928061485290527,0
0.3872010111808777,1.496230125427246,8.416696548461914,0
0.7534355521202087,-0.6432437896728516,7.138246536254883,0
1.2862744331359863,-2.3359508514404297,5.607044219970703,0
1.6464345455169678,-3.430532932281494,4.018965244293213,0
1.753006935119629,-3.6874780654907227,1.9723248481750488,0
1.5171644687652588,-2.5450472831726074,-0.5506243705749512,0
1.1973227262496948,-0.02210521697998047,-2.0299270153045654,0
1.0003230571746826,3.292843818664551,-2.4004173278808594,0
0.4790683388710022,6.766757965087891,-3.0338826179504395,0
0.14731508493423462,9.239612579345703,-4.062727451324463,0
-0.8095436692237854,10.37330150604248,-5.044187068939209,0
-1.8042107820510864,10.168355941772461,-4.924574375152588,0
-2.7575817108154297,8.682565689086914,-4.559610843658447,0
-4.160580158233643,6.562160491943359,-4.519016265869141,0
-5.260091304779053,4.976279258728027,-4.434000015258789,0
-5.81443452835083,4.60749626159668,-4.408665180206299,0
-6.0413384437561035,5.4709625244140625,-3.913332223892212,0
-5.624245643615723,6.593829154968262,-2.2484607696533203,0
-5.0533857345581055,7.187835693359375,0.4883265495300293,0
-4.334502220153809,6.311511993408203,2.000565528869629,0
-2.9188835620880127,4.545146942138672,2.669466495513916,0
-1.3906798362731934,2.2564468383789062,2.671773910522461,0
-0.5589165687561035,-0.08678531646728516,1.0970039367675781,0
-0.8383861184120178,-2.101773738861084,-1.4845082759857178,0
-1.5971542596817017,-3.42172908782959,-3.6146066188812256,0
-2.182863235473633,-3.5837864875793457,-4.797694206237793,0
-2.3654274940490723,-3.056851387023926,-5.201261520385742,0
-2.2332603931427,-2.4435067176818848,-5.295196533203125,0
-1.7816011905670166,-1.694514274597168,-5.044832229614258,0
-1.2539312839508057,-0.8603076934814453,-4.638665676116943,0
-0.5613596439361572,0.09367942810058594,-4.188071250915527,0
0.2706175446510315,1.0314245223999023,-3.6160166263580322,0
0.7669535875320435,1.5206727981567383,-3.2162671089172363,0
0.9919126033782959,1.4197568893432617,-3.2671260833740234,0
0.9468282461166382,0.7744274139404297,-3.754241466522217,0
0.550208330154419,-0.019873619079589844,-4.33234167098999,0
0.22308385372161865,-0.7397241592407227,-5.01483678817749,0
-0.288677453994751,-1.0418939590454102,-5.479981899261475,0
-0.8507473468780518,-0.7821016311645508,-5.495491027832031,0
-1.3777533769607544,-0.15832138061523438,-5.221569061279297,0
-1.860795021057129,0.41598987579345703,-4.582354545593262,0
-1.9986546039581299,0.85955810546875,-3.5021438598632812,0
-1.6999949216842651,0.9235944747924805,-2.346405029296875,0
-1.261536717414856,0.8165102005004883,-1.3990051746368408,0
-0.8352112770080566,0.4692363739013672,-0.7337465286254883,0
-0.46912533044815063,0.06146430969238281,-0.32179999351501465,0
-0.2707545757293701,-0.5045719146728516,-0.3167457580566406,0
-0.18232619762420654,-1.1543540954589844,-0.4704294204711914,0
-0.030921578407287598,-1.8806238174438477,-0.7306188344955444,0
0.0026750564575195312,-2.618913173675537,-1.0926028490066528,0
0.03882646560668945,-3.285714626312256,-1.3769445419311523,0
0.1449652910232544,-3.7785725593566895,-1.5570449829101562,0
0.03859567642211914,-4.093209743499756,-1.6440340280532837,0
-0.024352192878723145,-3.998157501220703,-1.6467145681381226,0
-0.12075638771057129,-3.7332496643066406,-1.686234712600708,0
-0.22960162162780762,-3.356245994567871,-1.6922465562820435,0
-0.39243316650390625,-2.7285008430480957,-1.8009357452392578,0
-0.36094343662261963,-2.2399816513061523,-1.9644831418991089,0
-0.3985182046890259,-1.5270471572875977,-2.1876094341278076,0
-0.436090350151062,-0.9175472259521484,-2.309807300567627,0
-0.4742041826248169,-0.3276033401489258,-2.567782163619995,0
-0.3672499656677246,0.1662139892578125,-2.688106060028076,0
-0.04285788536071777,0.20775699615478516,-2.6739683151245117,0
0.2717059850692749,-0.039608001708984375,-2.423964738845825,0
0.3561539649963379,-0.2957792282104492,-1.665493369102478,0
0.27071189880371094,-0.5392942428588867,-1.123533844947815,0
0.2791804075241089,-0.7104415893554688,-0.8579131960868835,0
0.422560453414917,-0.7758188247680664,-0.8235668540000916,0
0.5120440721511841,-0.7714395523071289,-0.814913809299469,0
0.581252932548523,-0.7070293426513672,-0.628480076789856,0
0.6325027942657471,-0.6903285980224609,-0.4553738236427307,0
0.7157078981399536,-0.5060386657714844,-0.41040271520614624,0
0.6535942554473877,-0.26435375213623047,-0.507563054561615,0
0.577995777130127,-0.20456504821777344,-0.542891800403595,0
0.517879843711853,-0.1591482162475586,-0.6573004722595215,0
0.4110919237136841,-0.17109012603759766,-0.7601743340492249,0
0.3057156801223755,-0.2738332748413086,-0.7152898907661438,0
0.2881737947463989,-0.5103645324707031,-0.6424254179000854,0
0.2363290786743164,-0.7920160293579102,-0.5896404385566711,0
0.061342716217041016,-0.8867578506469727,-0.6786690950393677,0
-0.007473587989807129,-0.9741153717041016,-0.7680860757827759,0
-0.08525288105010986,-0.9919195175170898,-0.6830514669418335,0
-0.08611786365509033,-0.933100700378418,-0.42807501554489136,0
-0.08686065673828125,-0.9244651794433594,-0.10356193780899048,0
-0.2624657154083252,-0.6525583267211914,-0.3419153392314911,0
-0.24671554565429688,-0.5672597885131836,-0.27214792370796204,0
-0.17082250118255615,-0.4843597412109375,-0.1810351014137268,0
-0.18278276920318604,-0.4613056182861328,-0.12335890531539917,0
-0.2987241744995117,-0.4455099105834961,-0.051124513149261475,0
-0.3792794942855835,-0.5087623596191406,0.02110844850540161,0
-0.5007916688919067,-0.5912027359008789,0.12419635057449341,0
-0.5649410486221313,-0.6808719635009766,0.16704022884368896,0
-0.5452632904052734,-0.6941080093383789,0.16181212663650513,0
-0.43219244480133057,-0.7314472198486328,0.08724230527877808,0
-0.36956846714019775,-0.7282552719116211,-0.032446712255477905,0
-0.33602678775787354,-0.780177116394043,-0.16370832920074463,0
-0.21918582916259766,-0.7125740051269531,-0.23940381407737732,0
-0.2631947994232178,-0.5829496383666992,-0.1971101611852646,0
-0.24812591075897217,-0.2861146926879883,-0.07507000863552094,0
-0.17882215976715088,0.07253360748291016,0.10751941800117493,0
-0.07215642929077148,0.3829669952392578,0.24038152396678925,0
0.021255016326904297,0.7242317199707031,0.3156720995903015,0
0.13461339473724365,0.8404922485351562,0.44768738746643066,0
0.19587326049804688,0.9161834716796875,0.575969934463501,0
0.2814851999282837,0.8676738739013672,0.6402329802513123,0
0.3098968267440796,0.8194656372070312,0.649676501750946,0
0.2951470613479614,0.7644033432006836,0.5658184289932251,0
0.4259452819824219,0.7072772979736328,0.5012275576591492,0
0.5129648447036743,0.6385288238525391,0.4753154516220093,0
0.6062818765640259,0.6346864700317383,0.45246970653533936,0
0.7297800183296204,0.7052202224731445,0.45946043729782104,0
0.8474733233451843,0.7543916702270508,0.5444852113723755,0
0.9663699865341187,0.8491840362548828,0.5810004472732544,0
1.2204110622406006,0.8795413970947266,0.6962581872940063,0
1.4205718040466309,0.8957490921020508,0.8568936586380005,0
1.5955623388290405,0.83087158203125,1.0198909044265747,0
1.8341059684753418,0.7208452224731445,1.2137787342071533,0
2.0550856590270996,0.6613359451293945,1.378511667251587,0
2.2540884017944336,0.6833200454711914,1.5258135795593262,0
2.4264116287231445,0.7316970825195312,1.7250995635986328,0
2.5174107551574707,0.8805255889892578,1.8136966228485107,0
2.704441547393799,1.0459699630737305,1.88254976272583,0
2.8081846237182617,1.1682195663452148,1.9005413055419922,0
2.8598196506500244,1.2544937133789062,1.9488357305526733,0
2.837702751159668,1.3191823959350586,1.8812780380249023,0
2.830146551132202,1.455571174621582,1.8509931564331055,0
2.7028324604034424,1.5153446197509766,1.7814794778823853,0
2.7740049362182617,1.4914140701293945,1.7420979738235474,0
2.833221912384033,1.3718996047973633,1.6083204746246338,0
2.8299665451049805,1.305124282836914,1.307551622390747,0
2.828540563583374,1.3077049255371094,0.8940103054046631,0
2.6993789672851562,1.4918947219848633,0.46275219321250916,0
2.5949058532714844,1.6398897171020508,0.16676607728004456,0
2.2822561264038086,1.9645862579345703,-0.06294047832489014,0
2.275832176208496,2.6738014221191406,-0.2762323021888733,0
2.1180202960968018,2.911065101623535,-0.34121954441070557,0
2.1677157878875732,3.4182090759277344,-0.36789119243621826,0
2.0852949619293213,3.451202392578125,-0.5508223176002502,0
2.040637254714966,3.1755895614624023,-0.51990807056427,0
1.9138946533203125,3.02213191986084,-0.3957368731498718,0
1.714480996131897,2.7156858444213867,-0.35633647441864014,0
1.6223772764205933,2.440542221069336,-0.26610612869262695,0
1.468116044998169,2.1703920364379883,-0.23806527256965637,0
1.2426186800003052,1.9722108840942383,-0.447759211063385,0
1.1783511638641357,1.7551298141479492,-0.5966668128967285,0
0.9456310272216797,1.3399591445922852,-0.7834430932998657,0
0.7484629154205322,1.0116548538208008,-0.852678656578064,0
0.5345844626426697,0.7200984954833984,-0.8712695240974426,0
0.28739115595817566,0.5252494812011719,-0.8434469103813171,0
-0.06924068927764893,0.47502708435058594,-0.7153840661048889,0
-0.3387479782104492,0.3709745407104492,-0.6320000886917114,0
-0.7892261147499084,0.3879117965698242,-0.7437314987182617,0
-1.0520968437194824,0.3106679916381836,-0.8322166204452515,0
-1.3184888362884521,0.22078895568847656,-0.7602226734161377,0
-1.5548244714736938,0.163848876953125,-0.5894951224327087,0
-1.708616018295288,0.19971084594726562,-0.4871126711368561,0
-1.897458553314209,0.2326812744140625,-0.5165533423423767,0
-2.062346935272217,0.4204750061035156,-0.5008074641227722,0
-2.159203052520752,0.6859645843505859,-0.3593272566795349,0
-2.1703953742980957,0.8993110656738281,-0.27947676181793213,0
-2.0850610733032227,1.1795358657836914,-0.34237468242645264,0
-1.8889721632003784,1.447279930114746,-0.6289243698120117,0
-1.7301944494247437,1.5639686584472656,-1.0720915794372559,0
-1.5983002185821533,1.6116151809692383,-1.4370402097702026,0
-1.448676586151123,1.531296730041504,-1.5615851879119873,0
-1.3177030086517334,1.453202247619629,-1.3840296268463135,0
-1.3322546482086182,1.4163017272949219,-1.0824311971664429,0
-1.3975470066070557,1.3945121765136719,-0.602086067199707,0
-1.7164239883422852,1.3255043029785156,-0.06068587303161621,0
-1.8893146514892578,1.362025260925293,0.2527003288269043,0
-2.0174200534820557,1.312159538269043,0.4560267925262451,0
-2.187918186187744,1.2376108169555664,0.49956178665161133,0
-2.092482566833496,1.1330537796020508,0.3472411632537842,0
-1.9201395511627197,1.1365442276000977,-0.0036191940307617188,0
-1.6977245807647705,1.0849637985229492,-0.5902590751647949,0
-1.397325873374939,0.732060432434082,-1.1114821434020996,0
-1.0748944282531738,0.5499038696289062,-1.7035424709320068,0
-0.8680381774902344,0.5414113998413086,-2.100694179534912,0
-0.7587577104568481,0.35054779052734375,-2.1894874572753906,0
-0.583800196647644,0.15950298309326172,-1.9777406454086304,0
-0.24690231680870056,-0.04623985290527344,-1.335902214050293,0
-0.01461118459701538,-0.47756195068359375,-0.7054567337036133,0
0.12782162427902222,-0.8456211090087891,-0.17069697380065918,0
0.18677544593811035,-1.3258442878723145,0.011731624603271484,0
0.09502381086349487,-1.837425708770752,-0.24057388305664062,0
-0.09231111407279968,-2.320842742919922,-0.8075840473175049,0
-0.12918037176132202,-3.003483295440674,-1.4046247005462646,0
-0.10470426082611084,-4.069213390350342,-2.0634069442749023,0
-0.12976619601249695,-5.271245956420898,-2.5501179695129395,0
0.052350640296936035,-6.554460525512695,-2.8198354244232178,0
-0.08288317918777466,-7.30656099319458,-2.985480785369873,0
-0.2880868911743164,-7.0692925453186035,-2.879408836364746,0
-0.1383553147315979,-6.052443027496338,-2.5656068325042725,0
-0.1043441891670227,-5.379589080810547,-2.164428472518921,0
-0.3556232750415802,-4.3998332023620605,-1.9606528282165527,0
0.04912227392196655,-3.3138742446899414,-1.648763656616211,0
0.22851485013961792,-2.6622672080993652,-1.5350403785705566,0
-0.012000679969787598,-2.535688877105713,-1.5926246643066406,0
-0.2780601978302002,-2.5991244316101074,-1.7611701488494873,0
-0.6090741157531738,-2.895787239074707,-1.9516105651855469,0
-0.9258852005004883,-3.227125644683838,-2.1086771488189697,0
-1.0782321691513062,-3.705688953399658,-2.1651182174682617,0
-1.3009504079818726,-4.21203088760376,-2.0798890590667725,0
-1.4248244762420654,-4.652935981750488,-1.8792645931243896,0
-1.4508955478668213,-5.100198745727539,-1.632622241973877,0
-1.4087519645690918,-5.498676776885986,-1.3185763359069824,0
-1.3420498371124268,-5.788478851318359,-1.0353660583496094,0
-1.222357988357544,-5.97662878036499,-0.8119630813598633,0
-1.1048879623413086,-6.0389814376831055,-0.6319751739501953,0
-1.027877926826477,-5.992107391357422,-0.3952674865722656,0
-0.8479501008987427,-5.795128345489502,-0.15491771697998047,0
-0.7304722666740417,-5.541130065917969,0.11261510848999023,0
-0.5871717929840088,-5.342161178588867,0.40445375442504883,0
-0.5808322429656982,-5.030188083648682,0.5164752006530762,0
-0.5773884057998657,-4.7074875831604,0.617581844329834,0
-0.535881519317627,-4.236964225769043,0.6799983978271484,0
-0.5370876789093018,-3.6035585403442383,0.7426056861877441,0
-0.4769148826599121,-2.8138680458068848,0.7486205101013184,0
-0.3275038003921509,-1.9722237586975098,0.5328564643859863,0
-0.20411567389965057,-1.0513334274291992,0.2552952766418457,0
-0.1459989845752716,-0.03117656707763672,0.03985738754272461,0
-0.030471116304397583,1.015172004699707,-0.1312575340270996,0
0.17411920428276062,2.442807197570801,-0.17081856727600098,0
0.2686912417411804,4.790207862854004,0.19333100318908691,0
-0.17967037856578827,7.520844459533691,1.3693268299102783,0
-0.9166077971458435,9.875367164611816,3.6937479972839355,0
-0.7255508303642273,9.973225593566895,6.263134002685547,0
-0.0529789924621582,8.84156608581543,8.02876091003418,0
-0.0566888153553009,7.71430778503418,9.30137825012207,0
-0.12720678746700287,6.417824745178223,9.535123825073242,0
0.178615003824234,4.463386535644531,9.085174560546875,0
0.1965242624282837,1.5501985549926758,8.093873977661133,0
-0.25168895721435547,-1.2793617248535156,5.875481128692627,0
-0.9979085326194763,-2.187204360961914,2.3056259155273438,0
-1.3279792070388794,0.0774993896484375,0.35984182357788086,0
-1.8991999626159668,3.9028749465942383,-0.040392398834228516,0
-2.201286792755127,7.849184989929199,-0.10700798034667969,0
-1.9367846250534058,11.469161987304688,-1.2837224006652832,0
-1.8349403142929077,14.024131774902344,-3.3339877128601074,0
-1.7340608835220337,14.628952980041504,-4.743157863616943,0
-1.8290773630142212,12.814605712890625,-5.063729286193848,0
-3.331918478012085,9.702535629272461,-4.797183990478516,0
-5.229233741760254,5.904600143432617,-3.9843766689300537,0
-5.687169075012207,2.4741783142089844,-3.133805751800537,0
-5.00253963470459,-0.05819416046142578,-2.3229851722717285,0
-4.281004428863525,-0.361053466796875,-0.06818628311157227,0
-3.3018929958343506,0.6291933059692383,0.3038907051086426,0
-2.7418906688690186,1.4002304077148438,-1.043144941329956,0
-3.074418306350708,1.577387809753418,-3.0478453636169434,0
-3.607262372970581,1.147965431213379,-4.710529327392578,0
-3.653686761856079,0.8090152740478516,-5.356199741363525,0
-3.159952402114868,0.9307146072387695,-4.801243782043457,0
-2.6738979816436768,1.5979108810424805,-3.918520212173462,0
-2.169078826904297,2.4162111282348633,-3.6305501461029053,0
-1.2800663709640503,3.141510009765625,-3.4557039737701416,0
-0.5128210783004761,3.7687854766845703,-3.294687271118164,0
0.2919640839099884,4.165633201599121,-3.121126651763916,0
1.2804255485534668,4.232995986938477,-3.2836029529571533,0
1.6135313510894775,3.9324216842651367,-3.839887857437134,0
1.4369298219680786,3.309854507446289,-4.021547317504883,0
1.3720706701278687,2.4071884155273438,-3.863713502883911,0
1.3219789266586304,1.4152069091796875,-3.8692593574523926,0
1.1533455848693848,0.5865755081176758,-3.902092218399048,0
0.9584755897521973,0.041717529296875,-4.107866287231445,0
1.021843433380127,-0.39362430572509766,-4.413906574249268,0
0.969571053981781,-0.5710697174072266,-4.653687000274658,0
0.898733377456665,-0.6462030410766602,-4.84002685546875,0
0.6118378043174744,-0.6215057373046875,-4.777458667755127,0
0.2585204839706421,-0.6527681350708008,-4.526007175445557,0
-0.13448631763458252,-0.8263444900512695,-3.982599973678589,0
-0.509984016418457,-1.0397281646728516,-3.182387351989746,0
-0.8067618608474731,-1.2549066543579102,-2.4858901500701904,0
-0.8515965342521667,-1.4670453071594238,-2.0028958320617676,0
-0.6985485553741455,-1.673567295074463,-1.6210647821426392,0
-0.6484493613243103,-1.6828627586364746,-1.3217264413833618,0
-0.5760183334350586,-1.7722477912902832,-1.004913568496704,0
-0.2522580027580261,-1.673788070678711,-0.7352526187896729,0
0.013940811157226562,-1.5838871002197266,-0.5291645526885986,0
0.14582794904708862,-1.4523568153381348,-0.5346601009368896,0
0.19817835092544556,-1.5135688781738281,-0.5744631290435791,0
0.10902178287506104,-1.6169285774230957,-0.5590963363647461,0
-0.11147886514663696,-1.8223977088928223,-0.7795724868774414,0
-0.33780378103256226,-2.206533432006836,-1.1611071825027466,0
-0.5618398189544678,-2.6088294982910156,-1.6538245677947998,0
-0.6773442029953003,-2.9645819664001465,-2.0862808227539062,0
-0.8439260721206665,-3.0083627700805664,-2.2536001205444336,0
-0.862005889415741,-2.862610340118408,-2.3356800079345703,0
-0.9754879474639893,-2.448732852935791,-2.3516929149627686,0
-1.1391164064407349,-2.125809669494629,-2.3827037811279297,0
-1.1235072612762451,-1.8746209144592285,-2.4740169048309326,0
-0.9670228958129883,-1.7141518592834473,-2.5423195362091064,0
-0.6863354444503784,-1.6870708465576172,-2.3931689262390137,0
-0.3589005470275879,-1.757065773010254,-2.0591626167297363,0
-0.19116461277008057,-1.7877740859985352,-1.3512933254241943,0
-0.14528179168701172,-1.678938865661621,-0.6782113313674927,0
0.0681452751159668,-1.6986680030822754,-0.3287085294723511,0
0.4849303960800171,-1.6914458274841309,-0.23778676986694336,0
0.8798902034759521,-1.5640630722045898,-0.24494647979736328,0
1.173774003982544,-1.4578313827514648,-0.289658784866333,0
1.4718754291534424,-1.2916555404663086,-0.2820775508880615,0
1.7148045301437378,-1.027547836303711,-0.2357271909713745,0
1.8914076089859009,-0.6586294174194336,-0.12143874168395996,0
2.002453327178955,-0.3835468292236328,-0.1212613582611084,0
2.0194642543792725,-0.2045001983642578,-0.15673863887786865,0
2.045058012008667,-0.12367820739746094,-0.1468290090560913,0
1.9450712203979492,-0.18396568298339844,-0.12028169631958008,0
1.7269185781478882,-0.24652385711669922,-0.0985875129699707,0
1.5993016958236694,-0.3975238800048828,-0.014664173126220703,0
1.3615610599517822,-0.5627346038818359,-0.11043703556060791,0
1.0782768726348877,-0.6870479583740234,-0.40794485807418823,0
0.9191924333572388,-0.7657232284545898,-0.4622545838356018,0
0.8194674253463745,-0.8323240280151367,-0.3211647868156433,0
0.7118014097213745,-0.9107532501220703,-0.14498108625411987,0
0.6532086133956909,-1.0440044403076172,0.020965516567230225,0
0.705501914024353,-1.0957021713256836,0.1793401837348938,0
0.6937786340713501,-1.080277442932129,0.28008514642715454,0
0.6633760929107666,-1.1627779006958008,0.31847620010375977,0
0.7147184610366821,-1.2522258758544922,0.28996533155441284,0
0.7044054269790649,-1.157327651977539,0.16572219133377075,0
0.6375695466995239,-1.0768108367919922,0.10129296779632568,0
0.5525437593460083,-1.1876001358032227,0.09184086322784424,0
0.5811262130737305,-1.2001705169677734,0.09437793493270874,0
0.4935896396636963,-1.0739860534667969,0.1327589750289917,0
0.474573016166687,-0.9455509185791016,0.27618032693862915,0
0.39993715286254883,-0.6212120056152344,0.43837666511535645,0
0.3557014465332031,-0.2589998245239258,0.559374213218689,0
0.31759321689605713,-0.13390350341796875,0.6609897613525391,0
0.3405792713165283,-0.14041519165039062,0.6980074644088745,0
0.3311110734939575,-0.17790985107421875,0.6395128965377808,0
0.29142510890960693,-0.25349998474121094,0.6102896928787231,0
0.283547043800354,-0.29776763916015625,0.5866296291351318,0
0.2187950611114502,-0.27484989166259766,0.527664065361023,0
0.24782085418701172,-0.1895885467529297,0.5766636729240417,0
0.25357675552368164,0.0033483505249023438,0.7599760293960571,0
0.2553502321243286,0.34208202362060547,0.8570107817649841,0
0.3558562397956848,0.6901588439941406,0.8241125345230103,0
0.4163500666618347,0.9232158660888672,0.7758500576019287,0
0.4556322693824768,1.1131610870361328,0.6737739443778992,0
0.5191074013710022,1.1739568710327148,0.5655875205993652,0
0.5709114074707031,1.2085628509521484,0.45111221075057983,0
0.5392360091209412,1.0711450576782227,0.4642011523246765,0
0.47687864303588867,0.8312454223632812,0.549926221370697,0
0.46777820587158203,0.6946029663085938,0.7012114524841309,0
0.5286417603492737,0.6921586990356445,0.7409180402755737,0
0.6210603713989258,0.7543973922729492,0.72412109375,0
0.8619706034660339,0.8119106292724609,0.7731550931930542,0
1.0380338430404663,0.7834415435791016,0.8525522351264954,0
1.3212476968765259,0.8340930938720703,0.9337378144264221,0
1.534328579902649,0.8729162216186523,0.9713903665542603,0
1.811040997505188,0.9716577529907227,1.063521146774292,0
2.1010379791259766,1.19000244140625,1.135790467262268,0
2.3228328227996826,1.4512672424316406,1.1616365909576416,0
2.5266401767730713,1.6286535263061523,1.2222621440887451,0
2.7602744102478027,1.6505022048950195,1.3389267921447754,0
2.875436305999756,1.6054468154907227,1.3940794467926025,0
2.850393056869507,1.4720239639282227,1.4305164813995361,0
2.8140196800231934,1.4153356552124023,1.4986064434051514,0
2.8522398471832275,1.3205013275146484,1.5386481285095215,0
2.9385647773742676,1.3716621398925781,1.4501575231552124,0
3.0029852390289307,1.5064411163330078,1.1850683689117432,0
2.96085524559021,1.7725229263305664,0.8768834471702576,0
2.8835959434509277,2.262955665588379,0.6829469203948975,0
2.826066017150879,2.7646350860595703,0.6556000113487244,0
2.6832611560821533,3.1770925521850586,0.6341926455497742,0
2.6756083965301514,3.47171688079834,0.6016114950180054,0
2.7627339363098145,3.5386571884155273,0.5984528064727783,0
2.9377362728118896,3.4451494216918945,0.4738074541091919,0
3.2057769298553467,3.2941951751708984,0.1747646927833557,0
3.3926615715026855,3.0858659744262695,-0.23428350687026978,0
3.51796293258667,2.9517574310302734,-0.6388359069824219,0
3.498593330383301,2.901355743408203,-1.0202659368515015,0
3.2731025218963623,2.7480697631835938,-1.386409044265747,0
2.825204372406006,2.5303287506103516,-1.766767144203186,0
2.220175266265869,2.2650184631347656,-2.130971908569336,0
1.5041357278823853,1.9690380096435547,-2.4411768913269043,0
0.9387627840042114,1.7692766189575195,-2.601827621459961,0
0.031240850687026978,1.8499135971069336,-2.7158944606781006,0
-0.6434144377708435,2.0410003662109375,-2.7643322944641113,0
-1.1562645435333252,2.0365209579467773,-2.7689106464385986,0
-1.811110019683838,2.169339179992676,-2.636472225189209,0
-2.248939037322998,2.186079978942871,-2.3424034118652344,0
-2.6707777976989746,1.9532079696655273,-1.9428037405014038,0
-3.0813181400299072,1.6265983581542969,-1.5027376413345337,0
-3.46389102935791,1.2159671783447266,-1.0701388120651245,0
-3.6488265991210938,0.931757926940918,-0.6138472557067871,0
-3.79009747505188,0.6875514984130859,-0.169746994972229,0
-3.9275870323181152,0.6958608627319336,0.2571451663970947,0
-3.80511474609375,0.8579368591308594,0.6647014617919922,0
-3.4846224784851074,1.0415563583374023,0.9071887731552124,0
-2.9167914390563965,1.2056331634521484,0.7846438884735107,0
-2.355027914047241,1.2687864303588867,0.33660387992858887,0
-2.009138584136963,1.233729362487793,-0.26502013206481934,0
-1.775589942932129,1.1941604614257812,-0.8054627180099487,0
-1.6518625020980835,1.0404987335205078,-1.1130658388137817,0
-1.558960199356079,0.8593807220458984,-1.159369707107544,0
-1.4340739250183105,0.7229337692260742,-0.9368566274642944,0
-1.2063815593719482,0.7485742568969727,-0.6647061109542847,0
-1.177610158920288,0.8119688034057617,-0.5157183408737183,0
-1.397005558013916,0.9156179428100586,-0.5160536766052246,0
-1.4433867931365967,0.9424200057983398,-0.6053980588912964,0
-1.4868751764297485,0.8016948699951172,-0.7879798412322998,0
-1.3669779300689697,0.6466608047485352,-1.125033974647522,0
-1.1752026081085205,0.6446037292480469,-1.5937609672546387,0
-0.8842347264289856,0.7041511535644531,-2.120539665222168,0
-0.72529137134552,0.7123870849609375,-2.7488386631011963,0
-0.5578653812408447,0.8147468566894531,-3.4124042987823486,0
-0.5836915373802185,0.8840303421020508,-3.947702169418335,0
-0.5782091617584229,0.6787033081054688,-4.264145374298096,0
-0.631980299949646,0.3760261535644531,-4.297695159912109,0
-0.8166767358779907,-0.3348684310913086,-3.940960168838501,0
-1.0845054388046265,-1.1428909301757812,-3.4282491207122803,0
-1.2132171392440796,-2.1440744400024414,-2.6654114723205566,0
-1.0429062843322754,-3.1860194206237793,-1.428457498550415,0
-0.9711578488349915,-4.185673713684082,-0.2403395175933838,0
-1.0552173852920532,-4.784475803375244,0.23389101028442383,0
-0.9593738317489624,-4.918015480041504,0.07270359992980957,0
-1.0252833366394043,-4.904470920562744,-0.5810062885284424,0
-0.9118759632110596,-4.746214389801025,-1.1128830909729004,0
-0.869292140007019,-4.742276191711426,-1.4229860305786133,0
-0.8543147444725037,-4.667497158050537,-1.7322113513946533,0
-0.797857403755188,-4.4523024559021,-1.9218354225158691,0
-0.7002645134925842,-4.350024700164795,-2.0405666828155518,0
-0.6760169863700867,-4.20749044418335,-2.0455238819122314,0
-0.6025617718696594,-3.8791561126708984,-1.9363572597503662,0
-0.6740254759788513,-3.55208683013916,-1.741271734237671,0
-0.6895913481712341,-3.2433223724365234,-1.4741699695587158,0
-0.630506157875061,-2.9460678100585938,-1.151146411895752,0
-0.6337490081787109,-2.7514286041259766,-0.8794379234313965,0
-0.5942458510398865,-2.559234619140625,-0.6726627349853516,0
-0.6318193078041077,-2.5466418266296387,-0.525632381439209,0
-0.7055703401565552,-2.5842795372009277,-0.49103283882141113,0
-0.695513129234314,-2.760679244995117,-0.4824962615966797,0
-0.6472877264022827,-2.8987436294555664,-0.5693473815917969,0
-0.5827662348747253,-3.029458999633789,-0.6800549030303955,0
-0.5568019151687622,-3.344179630279541,-0.7690656185150146,0
-0.6293376684188843,-3.82354736328125,-0.8220541477203369,0
-0.6140683889389038,-4.063002109527588,-0.8586699962615967,0
-0.5993703603744507,-4.246888637542725,-0.7833974361419678,0
-0.6091469526290894,-4.3131489753723145,-0.6297223567962646,0
-0.5504136681556702,-4.450897693634033,-0.4644775390625,0
-0.468975305557251,-4.5477094650268555,-0.2492213249206543,0
-0.480104923248291,-4.675379753112793,-0.048426151275634766,0
-0.43558114767074585,-4.7740702629089355,0.12367725372314453,0
-0.5100107192993164,-4.815077781677246,0.3389315605163574,0
-0.4738037884235382,-4.834336280822754,0.5855131149291992,0
-0.4492069482803345,-4.826942443847656,0.7891793251037598,0
-0.493558406829834,-4.670827388763428,0.9977211952209473,0
-0.44138073921203613,-4.428025722503662,1.2226266860961914,0
-0.41183075308799744,-4.091084957122803,1.3795437812805176,0
-0.37832915782928467,-3.587855339050293,1.522552728652954,0
-0.32796430587768555,-2.9467363357543945,1.8084166049957275,0
-0.03704416751861572,-2.33473539352417,2.226083755493164,0
0.2800089716911316,-1.6336932182312012,2.457308292388916,0
0.7939388751983643,-0.767822265625,1.9715583324432373,0
1.4598846435546875,0.4611368179321289,0.8085336685180664,0
1.7999897003173828,2.0214710235595703,-0.47306084632873535,0
1.9387006759643555,3.7896480560302734,-0.6860396862030029,0
1.7565871477127075,5.801373481750488,0.42148828506469727,0
0.8843110203742981,7.885437965393066,3.0214638710021973,0
0.19154715538024902,9.269902229309082,6.369713306427002,0
0.11076653003692627,9.697538375854492,9.25958251953125,0
-0.0873422920703888,9.747597694396973,11.952924728393555,0
-0.20622605085372925,9.625580787658691,12.826070785522461,0
-0.2278299331665039,7.792236328125,11.681442260742188,0
0.2504870891571045,4.148828506469727,10.273656845092773,0
0.5328859090805054,-0.36534786224365234,8.109453201293945,0
0.6390928030014038,-4.323298931121826,6.160122871398926,0
1.1142489910125732,-5.862364768981934,4.158236980438232,0
1.6167047023773193,-5.382381439208984,1.2145113945007324,0
1.2052923440933228,-3.2345662117004395,-1.1751961708068848,0
-0.06178721785545349,-0.015230178833007812,-2.5153279304504395,0
-1.217747688293457,3.5361557006835938,-3.658543348312378,0
-1.25899338722229,7.021716117858887,-5.214841365814209,0
-1.2684365510940552,10.214654922485352,-6.958922386169434,0
-2.4618940353393555,12.179916381835938,-8.11842155456543,0
-4.300586223602295,12.710868835449219,-7.912550926208496,0
-7.500832557678223,11.620442390441895,-7.5149970054626465,0
-9.328036308288574,9.279903411865234,-6.465112686157227,0
-8.073817253112793,7.01728630065918,-2.860299587249756,0
-6.991024017333984,4.932284355163574,-0.4324650764465332,0
-5.038431644439697,3.975752830505371,0.7125463485717773,0
-3.9813923835754395,5.176857948303223,0.6673626899719238,0
-3.5667340755462646,5.963820457458496,0.4064645767211914,0
-2.9826912879943848,4.691764831542969,-0.1096658706665039,0
-2.879035472869873,2.280266761779785,-1.6556894779205322,0
-2.9250850677490234,0.33109092712402344,-3.266118049621582,0
-2.6620640754699707,-0.8823776245117188,-4.348501205444336,0
-2.397927761077881,-1.037093162536621,-4.8246965408325195,0
-2.2787792682647705,-0.3517646789550781,-4.777369976043701,0
-2.10207462310791,0.5136318206787109,-4.68044376373291,0
-1.810068130493164,1.3198919296264648,-4.670578479766846,0
-1.1577038764953613,2.0596418380737305,-4.570007801055908,0
-0.46887797117233276,2.567376136779785,-4.338894367218018,0
0.23677963018417358,2.6966676712036133,-4.089795112609863,0
0.8122391104698181,2.5765371322631836,-4.091172695159912,0
1.1066757440567017,2.080500602722168,-4.105306625366211,0
1.2782870531082153,1.331583023071289,-4.243049621582031,0
1.2650549411773682,0.5750207901000977,-4.310117244720459,0
1.13662850856781,-0.008653640747070312,-4.333077907562256,0
1.00687575340271,-0.3565206527709961,-4.2905073165893555,0
0.9307560920715332,-0.5805540084838867,-4.2587971687316895,0
0.7717387676239014,-0.5467643737792969,-4.179355621337891,0
0.3674648404121399,-0.33197593688964844,-4.086073398590088,0
0.0646941065788269,-0.07764053344726562,-3.8807668685913086,0
-0.25178655982017517,0.09650897979736328,-3.565812587738037,0
-0.487032413482666,0.06369209289550781,-3.0668821334838867,0
-0.4338771104812622,-0.17586612701416016,-2.716524839401245,0
-0.38565999269485474,-0.4784526824951172,-2.3088436126708984,0
-0.12550213932991028,-0.8082113265991211,-1.9632165431976318,0
0.32445287704467773,-1.260824203491211,-1.6793909072875977,0
0.6429525017738342,-1.525345802307129,-1.4762372970581055,0
0.7932860255241394,-1.8530488014221191,-1.3010174036026,0
0.9474968314170837,-1.997706413269043,-0.9523293972015381,0
1.137235403060913,-2.1629395484924316,-0.7312699556350708,0
1.1980540752410889,-2.2698874473571777,-0.604074239730835,0
1.2433745861053467,-2.44309139251709,-0.4483916759490967,0
1.0276718139648438,-2.649167060852051,-0.42154645919799805,0
0.7789053916931152,-2.8929052352905273,-0.5161237716674805,0
0.6077585816383362,-3.1216940879821777,-0.7319889068603516,0
0.5150765776634216,-3.24947452545166,-0.9760669469833374,0
0.6089650392532349,-3.3957929611206055,-1.2492551803588867,0
0.7003742456436157,-3.2329254150390625,-1.4518568515777588,0
0.6981249451637268,-2.8903989791870117,-1.4428422451019287,0
0.5995038151741028,-2.4976091384887695,-1.4397751092910767,0
0.5670109987258911,-2.104919910430908,-1.2891919612884521,0
0.4350164532661438,-1.7242765426635742,-1.1848304271697998,0
0.29379886388778687,-1.4440526962280273,-1.114866018295288,0
0.28201740980148315,-1.3238449096679688,-1.0007638931274414,0
0.28961437940597534,-1.253434181213379,-0.840583324432373,0
0.25202882289886475,-1.096491813659668,-0.5650702118873596,0
0.31501561403274536,-1.1065731048583984,-0.35387659072875977,0
0.5095494985580444,-1.0730648040771484,-0.20466125011444092,0
0.6005725264549255,-1.1705904006958008,-0.019021987915039062,0
0.8027660846710205,-1.0905933380126953,0.19422507286071777,0
1.1381855010986328,-1.3115339279174805,0.3867166042327881,0
1.3080552816390991,-1.342844009399414,0.6512446403503418,0
1.2577970027923584,-1.3738126754760742,1.043622612953186,0
1.195803165435791,-1.4763002395629883,1.2178750038146973,0
1.2490230798721313,-1.4733457565307617,1.248832106590271,0
1.3362452983856201,-1.4368782043457031,1.1561967134475708,0
1.426560401916504,-1.3430824279785156,1.0577071905136108,0
1.558401346206665,-1.2279224395751953,0.8865872621536255,0
1.6771043539047241,-1.0244770050048828,0.6905707120895386,0
1.6681921482086182,-0.8165750503540039,0.560697078704834,0
1.7093749046325684,-0.6521215438842773,0.5115891098976135,0
1.619560718536377,-0.5311050415039062,0.39235711097717285,0
1.5261728763580322,-0.4199810028076172,0.2741374373435974,0
1.4605388641357422,-0.36411380767822266,0.2468830943107605,0
1.2282333374023438,-0.511570930480957,0.28129255771636963,0
1.1163302659988403,-0.6444606781005859,0.22836685180664062,0
1.0071730613708496,-0.8870687484741211,0.14957264065742493,0
0.7019177675247192,-1.0479297637939453,-0.04155546426773071,0
0.1887776255607605,-0.971745491027832,-0.21311572194099426,0
-0.18749207258224487,-0.8788690567016602,0.08073925971984863,0
-0.3047384023666382,-1.0132780075073242,0.3574821650981903,0
-0.4385412633419037,-1.0948686599731445,0.4132969081401825,0
-0.5941617488861084,-1.1427593231201172,0.4246353507041931,0
-0.5881487131118774,-0.9871549606323242,0.2454136461019516,0
-0.6221427917480469,-0.8817424774169922,0.11833281815052032,0
-0.6010950803756714,-0.7499008178710938,0.0033294185996055603,0
-0.7123293876647949,-0.3285808563232422,-0.28648510575294495,0
-0.45600566267967224,-0.06528663635253906,-0.06209751218557358,0
-0.31596681475639343,0.09279441833496094,0.14947408437728882,0
-0.14409291744232178,0.10992908477783203,0.3837766945362091,0
-0.021799027919769287,0.05800342559814453,0.563971757888794,0
-0.03245168924331665,0.0016222000122070312,0.637656033039093,0
-0.03216606378555298,-0.009027481079101562,0.6267824769020081,0
-0.0805540680885315,0.05706310272216797,0.6515675783157349,0
0.009362280368804932,0.2643404006958008,0.6502960324287415,0
0.03936105966567993,0.5241365432739258,0.6351866722106934,0
0.17719513177871704,0.7742061614990234,0.6204743385314941,0
0.29853472113609314,0.9547691345214844,0.5292066335678101,0
0.42987456917762756,1.030024528503418,0.4853903651237488,0
0.5901763439178467,1.0407543182373047,0.5389916896820068,0
0.7243719100952148,1.042038917541504,0.6159939765930176,0
0.9787113666534424,1.1510448455810547,0.7380438446998596,0
1.2958511114120483,1.355682373046875,0.8572918176651001,0
1.6157872676849365,1.500406265258789,0.904233992099762,0
2.0076191425323486,1.5948610305786133,0.9410673379898071,0
2.3417794704437256,1.7036628723144531,0.8599141836166382,0
2.6657674312591553,1.9224395751953125,0.7302356958389282,0
2.9173057079315186,2.210399627685547,0.6932224035263062,0
3.1394503116607666,2.4550580978393555,0.7031470537185669,0
3.2292630672454834,2.675558090209961,0.7356019616127014,0
3.2730770111083984,2.864710807800293,0.8068406581878662,0
3.2519774436950684,2.8288230895996094,0.9952645301818848,0
3.192465305328369,2.7331161499023438,1.17123281955719,0
3.118345022201538,2.5728368759155273,1.3677998781204224,0
2.9434545040130615,2.469967842102051,1.5869519710540771,0
2.7511515617370605,2.331157684326172,1.8667738437652588,0
2.5698888301849365,2.2066545486450195,2.185676097869873,0
2.341799736022949,2.101207733154297,2.407294511795044,0
2.2818288803100586,2.084136962890625,2.577338695526123,0
2.075608491897583,2.260540008544922,2.447299003601074,0
1.9971723556518555,2.5153932571411133,2.180162191390991,0
2.1318275928497314,2.745779037475586,1.941162109375,0
2.2929389476776123,2.9756059646606445,1.619692087173462,0
2.4544520378112793,3.302837371826172,1.2001806497573853,0
2.5688283443450928,3.548006057739258,1.016729712486267,0
2.739297866821289,3.505634307861328,0.9470235705375671,0
2.9612233638763428,3.228778839111328,0.8454543948173523,0
3.2566802501678467,2.8971519470214844,0.48254653811454773,0
3.3555071353912354,2.482168197631836,-0.06581687927246094,0
3.480553388595581,2.027052879333496,-0.6136598587036133,0
3.3903253078460693,1.6276273727416992,-1.1206386089324951,0
3.3868701457977295,1.0137968063354492,-1.5194895267486572,0
3.176776885986328,0.475311279296875,-2.1186418533325195,0
2.8139660358428955,0.17960834503173828,-2.6692235469818115,0
2.359769582748413,-0.007365226745605469,-2.9821555614471436,0
1.751165509223938,0.0028600692749023438,-3.0159647464752197,0
0.9895133376121521,0.0642852783203125,-2.8461568355560303,0
0.06590414047241211,0.1697397232055664,-2.6414954662323,0
-0.6649757623672485,0.25226688385009766,-2.5567784309387207,0
-1.2821627855300903,0.32385826110839844,-2.408851385116577,0
-1.8083326816558838,0.27208709716796875,-2.0689778327941895,0
-2.163782835006714,0.2117443084716797,-1.6762707233428955,0
-2.4057791233062744,0.2861490249633789,-1.2341434955596924,0
-2.392072916030884,0.47827625274658203,-0.8333600759506226,0
-2.2745347023010254,0.761627197265625,-0.4003632664680481,0
-2.193065881729126,1.1360359191894531,0.028601408004760742,0
-2.2245638370513916,1.6085643768310547,0.34037327766418457,0
-2.322976589202881,1.9735727310180664,0.45462584495544434,0
-2.6112492084503174,2.3247432708740234,0.43837010860443115,0
-2.934791326522827,2.595531463623047,0.38244104385375977,0
-3.2537264823913574,2.7552270889282227,0.4554018974304199,0
-3.5618889331817627,2.842349052429199,0.592566967010498,0
-3.8032732009887695,2.868971824645996,0.5841375589370728,0
-3.8309719562530518,2.847100257873535,0.31879961490631104,0
-3.4822845458984375,2.6883058547973633,-0.11149561405181885,0
-2.9623610973358154,2.770486831665039,-0.614656925201416,0
-2.270940065383911,2.438065528869629,-1.1585242748260498,0
-1.7038918733596802,2.071619987487793,-1.7542387247085571,0
-1.315146565437317,1.5803098678588867,-2.2629082202911377,0
-0.8853974938392639,1.0671510696411133,-2.7374320030212402,0
-0.6335221529006958,0.7473535537719727,-3.0295751094818115,0
-0.6040539145469666,0.3291177749633789,-3.1114342212677,0
-0.47607097029685974,-0.18018817901611328,-2.9476213455200195,0
-0.47886189818382263,-0.8164892196655273,-2.664499044418335,0
-0.5117332339286804,-1.6325626373291016,-2.2802817821502686,0
-0.4377484917640686,-2.3801774978637695,-1.7429553270339966,0
-0.5461460947990417,-3.289867401123047,-1.1221237182617188,0
-0.6392470598220825,-4.0153117179870605,-0.8901546001434326,0
-0.8219265937805176,-4.508825778961182,-0.8991129398345947,0
-0.6916952133178711,-4.352052211761475,-1.0133936405181885,0
-0.5327876806259155,-4.481100559234619,-1.1342401504516602,0
-0.390816330909729,-4.582604885101318,-1.3547308444976807,0
-0.21764017641544342,-4.97710657119751,-1.5624947547912598,0
-0.0964406207203865,-5.329408168792725,-1.8058853149414062,0
-0.14373254776000977,-5.644354820251465,-2.0636003017425537,0
-0.06761787831783295,-5.733067512512207,-2.1828994750976562,0
0.10340821743011475,-5.799108982086182,-2.1712703704833984,0
0.07038252055644989,-5.653682231903076,-2.181939125061035,0
0.02730279043316841,-5.187142372131348,-2.1287989616394043,0
0.012025130912661552,-4.589049339294434,-1.9613163471221924,0
-0.047570519149303436,-4.058278560638428,-1.7127399444580078,0
-0.077415831387043,-3.618844985961914,-1.5503110885620117,0
-0.09658783674240112,-3.4022746086120605,-1.4881384372711182,0
-0.23943307995796204,-3.317474365234375,-1.483078956604004,0
-0.37682393193244934,-3.4837827682495117,-1.5806987285614014,0
-0.4733923375606537,-3.6977601051330566,-1.5535483360290527,0
-0.5610847473144531,-3.7204132080078125,-1.489959955215454,0
-0.5951130986213684,-3.793689250946045,-1.3680839538574219,0
-0.666827917098999,-3.908224105834961,-1.2711730003356934,0
-0.6832391619682312,-4.061679363250732,-1.1272377967834473,0
-0.8477294445037842,-4.222995281219482,-0.9217839241027832,0
-0.8639235496520996,-4.294239044189453,-0.6784756183624268,0
-0.7896808385848999,-4.364008903503418,-0.46652984619140625,0
-0.7877679467201233,-4.432157039642334,-0.24297785758972168,0
-0.7573826909065247,-4.476851463317871,-0.013031482696533203,0
-0.7247137427330017,-4.481065273284912,0.2778816223144531,0
-0.6347841620445251,-4.504255294799805,0.5430903434753418,0
-0.5569727420806885,-4.404868125915527,0.750838041305542,0
-0.4768757224082947,-4.225560188293457,0.8931021690368652,0
-0.4875843822956085,-3.9992318153381348,1.0069150924682617,0
-0.6510119438171387,-3.648803234100342,1.2129883766174316,0
-0.6102079153060913,-3.255263328552246,1.660820722579956,0
-0.40795964002609253,-2.755847454071045,2.152458906173706,0
-0.012316018342971802,-2.19992733001709,2.369631767272949,0
0.29051971435546875,-1.4645204544067383,2.4243032932281494,0
0.769700288772583,-0.5514049530029297,2.428752899169922,0
1.1104298830032349,0.6570758819580078,2.3470983505249023,0
1.6724773645401,2.0150747299194336,2.2687132358551025,0
2.0583088397979736,3.393599510192871,2.245004892349243,0
2.332972526550293,4.912528038024902,2.451918363571167,0
2.2592477798461914,6.538453102111816,3.0466721057891846,0
1.612334966659546,7.4891767501831055,4.041833877563477,0
1.2458455562591553,7.355924606323242,5.291238784790039,0
0.9443979859352112,6.796526908874512,6.501499176025391,0
0.3944644629955292,6.264606475830078,7.090264320373535,0
-0.08422839641571045,5.565049171447754,7.1405792236328125,0
-0.41124486923217773,4.361547470092773,6.864948272705078,0
-0.5787537097930908,2.371151924133301,6.381270408630371,0
-1.1049211025238037,0.666346549987793,4.507512092590332,0
-1.6276129484176636,0.3958559036254883,1.7728948593139648,0
-1.499438762664795,2.553755760192871,0.2105565071105957,0
-1.945815920829773,5.478697776794434,-0.6897644996643066,0
-3.0019776821136475,8.725934982299805,-1.3650238513946533,0
-3.6897594928741455,12.29508113861084,-2.7040278911590576,0
-4.234887599945068,14.955765724182129,-3.5891072750091553,0
-3.9222168922424316,15.509173393249512,-3.5220727920532227,0
-3.4810824394226074,13.81175422668457,-3.209768533706665,0
-4.110800743103027,10.848527908325195,-2.929530143737793,0
-4.9972028732299805,7.363093376159668,-2.3558969497680664,0
-5.747368335723877,3.6411123275756836,-2.1626477241516113,0
-6.1712212562561035,1.1981925964355469,-2.735633611679077,0
-6.059741497039795,0.27156829833984375,-2.803256034851074,0
-4.875475883483887,0.7026405334472656,-1.3247954845428467,0
-3.546652317047119,0.6819906234741211,-1.225949764251709,0
-2.7712674140930176,-0.016979217529296875,-2.0485689640045166,0
-2.2786266803741455,-0.8929166793823242,-2.8465240001678467,0
-1.9410221576690674,-1.3437690734863281,-3.5110063552856445,0
-1.5443216562271118,-1.0970573425292969,-3.8495543003082275,0
-1.0815069675445557,-0.30728816986083984,-4.000191688537598,0
-0.6277077198028564,0.8479537963867188,-4.082729816436768,0
0.09526655077934265,2.096865653991699,-4.089914321899414,0
1.0175260305404663,3.095996856689453,-3.9301071166992188,0
2.0348076820373535,3.75115966796875,-3.774963855743408,0
2.9814436435699463,3.949488639831543,-3.80370831489563,0
3.278151750564575,3.5836668014526367,-4.2086029052734375,0
3.1007461547851562,2.7240447998046875,-4.6114325523376465,0
2.6826772689819336,1.5918149948120117,-4.819180488586426,0
2.3579390048980713,0.3915271759033203,-4.967576503753662,0
1.8291493654251099,-0.6339731216430664,-5.087885856628418,0
1.3019875288009644,-1.4213733673095703,-5.21441125869751,0
0.8168085217475891,-1.747267723083496,-5.250296592712402,0
0.40387147665023804,-1.4750466346740723,-4.906783103942871,0
0.061526358127593994,-0.9254398345947266,-4.37026834487915,0
-0.38997751474380493,-0.350067138671875,-3.389862060546875,0
-0.7368744015693665,-0.005405426025390625,-2.2993075847625732,0
-0.9563723206520081,-0.023450851440429688,-1.26149582862854,0
-1.0417871475219727,-0.4258289337158203,-0.645294189453125,0
-0.9405093193054199,-1.0234241485595703,-0.3034992218017578,0
-0.7482673525810242,-1.7107691764831543,-0.1305713653564453,0
-0.5253293514251709,-2.379812240600586,-0.14878320693969727,0
-0.31726551055908203,-2.8842926025390625,-0.4048013687133789,0
-0.18844002485275269,-3.1835689544677734,-0.5979520082473755,0
0.0147627592086792,-3.4333906173706055,-0.7164719104766846,0
0.1706397533416748,-3.445159912109375,-0.826836347579956,0
0.20775210857391357,-3.4466872215270996,-0.93266761302948,0
0.1720883846282959,-3.3713631629943848,-1.2265305519104004,0
0.10689866542816162,-3.2241787910461426,-1.6240425109863281,0
0.024352312088012695,-3.1963863372802734,-2.0921616554260254,0
0.05881667137145996,-2.9960174560546875,-2.473681926727295,0
0.04521739482879639,-2.663738250732422,-2.8415064811706543,0
0.10312974452972412,-2.2617082595825195,-3.0962700843811035,0
0.07676315307617188,-1.7254419326782227,-3.104435443878174,0
0.016152143478393555,-1.3253898620605469,-2.930548667907715,0
-0.19325679540634155,-0.7962465286254883,-2.5258586406707764,0
-0.40543878078460693,-0.5856008529663086,-2.0732009410858154,0
-0.6156860589981079,-0.568903923034668,-1.7100613117218018,0
-0.7383228540420532,-0.6192073822021484,-1.509753704071045,0
-0.538752019405365,-0.8008747100830078,-1.436942458152771,0
-0.21001625061035156,-1.3263092041015625,-1.2451728582382202,0
-0.2211819291114807,-1.4345035552978516,-0.8093782663345337,0
-0.2591937184333801,-1.5013399124145508,-0.13242769241333008,0
-0.17613738775253296,-1.5795259475708008,0.35537731647491455,0
0.020794987678527832,-1.508932113647461,0.5661070346832275,0
0.2334669828414917,-1.3137006759643555,0.5695297122001648,0
0.40910911560058594,-1.1972455978393555,0.4066362977027893,0
0.6625411510467529,-0.9610300064086914,0.10156035423278809,0
0.7639815807342529,-0.882624626159668,-0.19665217399597168,0
0.9504917860031128,-0.9188899993896484,-0.3842209279537201,0
1.0238256454467773,-0.9262714385986328,-0.6473249793052673,0
0.9891784191131592,-0.7541847229003906,-1.0670275688171387,0
0.8942538499832153,-0.8332061767578125,-1.4013910293579102,0
0.6983679533004761,-0.9358158111572266,-1.7796928882598877,0
0.45641374588012695,-0.9997482299804688,-1.9988210201263428,0
0.24739885330200195,-1.0799903869628906,-2.067005157470703,0
-0.05543583631515503,-1.0951919555664062,-1.9470223188400269,0
-0.41141629219055176,-1.0238838195800781,-1.6186506748199463,0
-0.703509509563446,-0.7585630416870117,-1.239112138748169,0
-1.0879340171813965,-0.31857967376708984,-0.9482857584953308,0
-1.182306170463562,0.006481170654296875,-0.29159075021743774,0
-1.255046010017395,0.1401958465576172,0.4679669737815857,0
-1.2539315223693848,0.2884092330932617,1.005479097366333,0
-1.1363227367401123,0.31957149505615234,1.386375904083252,0
-0.99122554063797,0.35337257385253906,1.5273717641830444,0
-0.7616456747055054,0.3228464126586914,1.4264734983444214,0
-0.540669322013855,0.21607303619384766,1.3118964433670044,0
-0.30433472990989685,0.09052181243896484,1.1293498277664185,0
0.028595387935638428,-0.05138969421386719,0.9442099928855896,0
0.3672811985015869,-0.14029979705810547,0.728486955165863,0
0.6589650511741638,-0.2695016860961914,0.5714126825332642,0
0.951655387878418,-0.35285282135009766,0.41117599606513977,0
1.2027628421783447,-0.26369190216064453,0.25996407866477966,0
1.4150161743164062,-0.08831119537353516,0.12738415598869324,0
1.488286018371582,0.07513999938964844,0.03481227159500122,0
1.6140528917312622,0.25058650970458984,0.07015836238861084,0
1.6655157804489136,0.47623538970947266,0.16794613003730774,0
1.702779769897461,0.6539478302001953,0.3442246615886688,0
1.7621510028839111,0.9080677032470703,0.5147489309310913,0
1.6258478164672852,1.142822265625,0.6383832097053528,0
1.564347743988037,1.312739372253418,0.7240321636199951,0
1.479849100112915,1.5039091110229492,0.7521075010299683,0
1.4897804260253906,1.692336082458496,0.8298940062522888,0
1.3931851387023926,1.8588857650756836,0.8833967447280884,0
1.340818166732788,1.967759132385254,0.9706707000732422,0
1.2726967334747314,2.0931777954101562,0.9748494625091553,0
1.2581404447555542,2.208828926086426,0.9464343786239624,0
1.3255658149719238,2.257354736328125,0.9860246777534485,0
1.4100269079208374,2.277118682861328,1.0722253322601318,0
1.4895256757736206,2.1725387573242188,1.11907958984375,0
1.637763261795044,2.103978157043457,1.088404893875122,0
1.718111276626587,2.0427093505859375,1.066519021987915,0
1.864420771598816,2.0078630447387695,1.0894800424575806,0
1.9501280784606934,1.970712661743164,1.1119236946105957,0
2.0565037727355957,1.8786306381225586,1.1671264171600342,0
2.1309375762939453,1.6958017349243164,1.2621392011642456,0
2.171328067779541,1.5203571319580078,1.415961742401123,0
2.1537795066833496,1.3833551406860352,1.5734374523162842,0
2.138339042663574,1.2082271575927734,1.844585657119751,0
2.1418421268463135,1.0691442489624023,2.0762686729431152,0
2.1451141834259033,0.9708175659179688,2.2348623275756836,0
2.207900285720825,0.8940296173095703,2.3512251377105713,0
2.306105136871338,0.8315277099609375,2.3675880432128906,0
2.4299466609954834,0.7712774276733398,2.3816165924072266,0
2.4881067276000977,0.8328037261962891,2.2568228244781494,0
2.638211965560913,0.8556737899780273,2.1003355979919434,0
2.7266852855682373,1.0024528503417969,1.7656620740890503,0
2.7171735763549805,1.2538042068481445,1.3051700592041016,0
2.7145822048187256,1.5139350891113281,0.8742741346359253,0
2.5149593353271484,1.7708606719970703,0.4152677655220032,0
2.343017578125,2.1441402435302734,0.04998880624771118,0
2.225471258163452,2.49501895904541,-0.10655856132507324,0
2.0097949504852295,2.7638206481933594,-0.08298671245574951,0
1.8523075580596924,2.845489501953125,0.012871325016021729,0
1.724821925163269,2.479654312133789,0.18298864364624023,0
1.5247224569320679,2.137929916381836,0.3931792974472046,0
1.381551742553711,1.7150602340698242,0.5154181122779846,0
1.4364593029022217,1.50048828125,0.4887816309928894,0
1.6942452192306519,1.321868896484375,0.3124595880508423,0
1.9779253005981445,1.296462059020996,0.0719251036643982,0
2.1729719638824463,1.4123077392578125,-0.17842990159988403,0
2.074066162109375,1.5212574005126953,-0.344987690448761,0
1.7701290845870972,1.623642921447754,-0.40015652775764465,0
1.2540125846862793,1.5428152084350586,-0.5220953822135925,0
0.5999915599822998,1.3605384826660156,-0.6716368794441223,0
0.15067413449287415,1.1584510803222656,-0.7188647985458374,0
-0.2252141237258911,0.8195819854736328,-0.7366759777069092,0
-0.563636302947998,0.5617494583129883,-0.8370531797409058,0
-0.9628680348396301,0.28665733337402344,-0.9462080597877502,0
-1.396713376045227,0.12307548522949219,-1.103003978729248,0
-1.8172558546066284,-0.07781219482421875,-1.4843945503234863,0
-1.9896478652954102,-0.2588968276977539,-1.922696590423584,0
-2.291797637939453,-0.5709228515625,-2.2695767879486084,0
-2.456035852432251,-0.7769041061401367,-2.2244937419891357,0
-2.485363721847534,-0.9006814956665039,-1.7525403499603271,0
-2.579163074493408,-0.8583393096923828,-1.1441810131072998,0
-2.5003888607025146,-0.5611972808837891,-0.5530639290809631,0
-2.1480906009674072,0.009953498840332031,0.02612936496734619,0
-1.8595856428146362,0.5536890029907227,0.5743814706802368,0
-1.761911153793335,0.9982233047485352,1.0363069772720337,0
-2.0417516231536865,1.3816614151000977,1.2998006343841553,0
-2.444870710372925,1.777923583984375,1.3646522760391235,0
-2.76438307762146,2.244283676147461,1.0236091613769531,0
-2.819972276687622,2.720974922180176,0.4010024070739746,0
-2.7690775394439697,3.0958023071289062,-0.28368496894836426,0
-2.3891355991363525,3.2160911560058594,-0.9570294618606567,0
-2.0642409324645996,3.0606460571289062,-1.487288236618042,0
-1.75300931930542,2.579500198364258,-1.9003803730010986,0
-1.3848179578781128,1.9331378936767578,-2.2222139835357666,0
-1.1306333541870117,1.2697839736938477,-2.483206272125244,0
-1.1531119346618652,0.9309415817260742,-2.593730926513672,0
-0.8627356886863708,0.6572084426879883,-2.7192790508270264,0
-0.7243975400924683,0.28553295135498047,-2.8305201530456543,0
-0.7040141820907593,-0.39681148529052734,-2.822610855102539,0
-0.7635130882263184,-1.0160703659057617,-2.7639408111572266,0
-1.1099162101745605,-1.6177301406860352,-2.508955717086792,0
-1.2759685516357422,-2.5155105590820312,-2.0663530826568604,0
-1.2087757587432861,-3.319817066192627,-1.724528431892395,0
-1.1108580827713013,-4.033617973327637,-1.4633255004882812,0
-0.9794204831123352,-4.501864910125732,-1.4306154251098633,0
-0.8149034976959229,-4.897091388702393,-1.3944342136383057,0
-0.6156038641929626,-5.161827087402344,-1.4082024097442627,0
-0.32635271549224854,-5.482688903808594,-1.3718287944793701,0
-0.09927771985530853,-5.833270072937012,-1.4410574436187744,0
0.07592172920703888,-6.038898944854736,-1.5754764080047607,0
0.019968479871749878,-6.001590728759766,-1.773094892501831,0
0.14240428805351257,-5.7718634605407715,-1.840285301208496,0
0.19219805300235748,-5.503229141235352,-1.760063886642456,0
0.14770762622356415,-5.062168121337891,-1.6109344959259033,0
0.16688746213912964,-4.619042873382568,-1.423375129699707,0
0.07504798471927643,-4.305592060089111,-1.3262088298797607,0
0.04390154778957367,-3.9807772636413574,-1.295123815536499,0
-0.008378848433494568,-3.8407087326049805,-1.3109686374664307,0
-0.022504478693008423,-3.8063035011291504,-1.2875776290893555,0
-0.04193335771560669,-3.884644031524658,-1.198667049407959,0
-0.12681779265403748,-4.066073894500732,-1.0083646774291992,0
-0.24890457093715668,-4.23092794418335,-0.7526319026947021,0
-0.3440489172935486,-4.427140712738037,-0.42415428161621094,0
-0.4892798960208893,-4.551931858062744,-0.03713560104370117,0
-0.579486608505249,-4.636446475982666,0.35102224349975586,0
-0.6696755886077881,-4.718875885009766,0.6541571617126465,0
-0.7715510129928589,-4.763155937194824,0.8817052841186523,0
-0.8636072278022766,-4.706912040710449,1.1003739833831787,0
-0.9151421785354614,-4.540437698364258,1.3026340007781982,0
-1.1442830562591553,-4.270631790161133,1.3969495296478271,0
-1.0317447185516357,-4.019043445587158,1.5044384002685547,0
-0.9960803985595703,-3.7181005477905273,1.6980230808258057,0
-0.924368143081665,-3.3313021659851074,1.892380952835083,0
-0.8308988809585571,-2.9441261291503906,2.150385618209839,0
-0.624321460723877,-2.4818811416625977,2.441795825958252,0
-0.17711636424064636,-1.9704256057739258,2.6861472129821777,0
0.4351235032081604,-1.3444595336914062,2.6157307624816895,0
1.1027432680130005,-0.6127071380615234,2.1849186420440674,0
1.9915993213653564,0.5844297409057617,1.6251592636108398,0
2.7312417030334473,2.2114181518554688,1.103435754776001,0
2.980910539627075,4.306601524353027,0.9597361087799072,0
2.9828436374664307,6.630205154418945,1.526310682296753,0
2.4109838008880615,8.79361629486084,3.0826478004455566,0
1.4807913303375244,9.494865417480469,5.256369590759277,0
0.9560848474502563,8.918436050415039,7.417304039001465,0
0.4332190752029419,8.040349006652832,8.652854919433594,0
0.21503031253814697,6.981877326965332,8.509861946105957,0
0.4380148649215698,5.368896484375,8.267125129699707,0
0.7931751608848572,3.002735137939453,7.41472053527832,0
1.5706303119659424,-0.5418720245361328,6.439809799194336,0
2.5467028617858887,-4.880568981170654,5.0688323974609375,0
2.4723081588745117,-7.796695232391357,3.566831588745117,0
1.3939909934997559,-8.348583221435547,1.7716822624206543,0
0.25258347392082214,-6.101322174072266,-0.7604975700378418,0
-0.27583611011505127,-2.4965829849243164,-4.008850574493408,0
0.3046276867389679,1.422903060913086,-6.219406604766846,0
0.20404091477394104,5.55345344543457,-7.643350601196289,0
-2.2762601375579834,9.517401695251465,-9.059024810791016,0
-6.083013534545898,13.575970649719238,-9.953689575195312,0
-10.3931884765625,17.095260620117188,-9.300700187683105,0
-13.156037330627441,19.666690826416016,-7.936873435974121,0
-12.287578582763672,20.443954467773438,-6.232757091522217,0
-9.087446212768555,18.32592010498047,-3.268217086791992,0
-6.8771467208862305,13.282175064086914,-0.1976635456085205,0
-6.2882466316223145,8.956345558166504,1.7534990310668945,0
-6.307782173156738,5.638986587524414,1.5872328281402588,0
-5.363986968994141,2.657931327819824,1.4298830032348633,0
-3.772472381591797,0.16591835021972656,1.8611955642700195,0
-3.5210537910461426,-2.001189708709717,0.598416805267334,0
-3.7646055221557617,-3.7025809288024902,-1.5365808010101318,0
-3.159238815307617,-4.734010219573975,-3.562159538269043,0
-2.5930328369140625,-4.419917106628418,-4.8556013107299805,0
-2.248122215270996,-3.4456586837768555,-5.2688307762146,0
-1.715770959854126,-2.4187135696411133,-5.079796314239502,0
-0.8312733173370361,-1.3562302589416504,-4.752301216125488,0
0.2467050850391388,-0.30688953399658203,-4.195831775665283,0
1.1288988590240479,0.5033912658691406,-3.4600179195404053,0
2.09570574760437,0.9753789901733398,-2.5839474201202393,0
3.015409231185913,1.015263557434082,-2.4207491874694824,0
3.573521375656128,0.6785116195678711,-2.937507390975952,0
3.8475213050842285,-0.041228294372558594,-3.7531723976135254,0
3.5338187217712402,-0.9636945724487305,-4.594974040985107,0
2.930084466934204,-1.8390746116638184,-5.069867134094238,0
2.293583631515503,-2.158876419067383,-5.199272155761719,0
1.9550702571868896,-1.936380386352539,-4.826452732086182,0
1.7281663417816162,-1.3987741470336914,-4.086326599121094,0
1.2978310585021973,-0.907628059387207,-3.345534324645996,0
0.8649004697799683,-0.5420761108398438,-2.74951171875,0
0.5199918746948242,-0.4289865493774414,-2.3692128658294678,0
0.2796599268913269,-0.5419797897338867,-2.0771896839141846,0
0.20336389541625977,-0.8354301452636719,-1.8637611865997314,0
0.29991835355758667,-1.1894798278808594,-1.657606840133667,0
0.5993372797966003,-1.5369062423706055,-1.3688255548477173,0
0.885451078414917,-2.0426840782165527,-0.8567506074905396,0
1.1093952655792236,-2.5680036544799805,-0.3031306266784668,0
1.1864588260650635,-2.9909915924072266,0.2924964427947998,0
1.1805915832519531,-3.4553661346435547,0.7681385278701782,0
1.2063281536102295,-3.903881072998047,1.0890387296676636,0
1.1080846786499023,-4.104788303375244,1.0793588161468506,0
0.9915434122085571,-4.233186721801758,0.9152772426605225,0
0.8908637762069702,-4.3300652503967285,0.5863151550292969,0
0.787461519241333,-4.204280853271484,0.06464803218841553,0
0.7755800485610962,-3.8943886756896973,-0.44874000549316406,0
0.8894368410110474,-3.2163610458374023,-1.0578125715255737,0
0.9525821208953857,-2.2734313011169434,-1.5119924545288086,0
1.1405659914016724,-1.3648443222045898,-1.7952933311462402,0
1.4331004619598389,-0.8252420425415039,-1.804671287536621,0
1.1129567623138428,-0.020540237426757812,-1.4119787216186523,0
0.4243438243865967,0.6519231796264648,-0.8777928352355957,0
0.10401856899261475,0.9484357833862305,-0.6332170963287354,0
-0.15906143188476562,1.2974920272827148,-0.6957939863204956,0
-0.4494144320487976,1.4217300415039062,-0.7237708568572998,0
-0.5592495203018188,1.2280960083007812,-0.5613312125205994,0
-0.6439723372459412,0.6523494720458984,-0.33320727944374084,0
-0.7553831338882446,0.008091926574707031,-0.27935388684272766,0
-1.0336048603057861,-0.5827693939208984,-0.28780943155288696,0
-1.2200137376785278,-1.1323347091674805,-0.12401601672172546,0
-1.4184340238571167,-1.6621713638305664,-0.045207858085632324,0
-1.1869562864303589,-2.0432114601135254,0.09363505244255066,0
-0.9287847280502319,-2.249272346496582,0.07831326127052307,0
-0.6813516020774841,-2.213496685028076,-0.003613114356994629,0
-0.32713061571121216,-1.7901511192321777,-0.05757170915603638,0
0.09846895933151245,-1.2664909362792969,-0.20232321321964264,0
0.5081663131713867,-0.5110244750976562,-0.36578524112701416,0
0.8345814347267151,0.2536468505859375,-0.5244225859642029,0
0.9962993860244751,0.8290929794311523,-0.5715166330337524,0
1.0893707275390625,1.1031560897827148,-0.5630254149436951,0
1.0473870038986206,0.9637899398803711,-0.32992005348205566,0
0.9335458278656006,0.6074914932250977,-0.14067304134368896,0
0.6579865217208862,0.18986034393310547,-0.041024163365364075,0
0.432140588760376,-0.23173236846923828,0.004937756806612015,0
0.23050349950790405,-0.5162935256958008,0.011573776602745056,0
0.05624443292617798,-0.6736469268798828,0.024251535534858704,0
-0.14980167150497437,-0.7374935150146484,-0.02174776792526245,0
-0.1935899257659912,-0.7510347366333008,-0.11695897579193115,0
-0.2112523317337036,-0.6880779266357422,-0.20409861207008362,0
-0.09973716735839844,-0.587000846862793,-0.27580586075782776,0
0.018611371517181396,-0.5339136123657227,-0.35588696599006653,0
0.13640755414962769,-0.4641895294189453,-0.45404720306396484,0
0.3305068612098694,-0.3611488342285156,-0.48913639783859253,0
0.3474315404891968,-0.20569896697998047,-0.4251631796360016,0
0.3499269485473633,0.049935340881347656,-0.31699058413505554,0
0.3978784680366516,0.40085411071777344,-0.21958622336387634,0
0.4193693995475769,0.9115123748779297,-0.07559549808502197,0
0.3972436785697937,1.3521966934204102,0.1530500054359436,0
0.4080890417098999,1.7062969207763672,0.4237935543060303,0
0.3870662450790405,1.8568124771118164,0.6126936078071594,0
0.41012755036354065,1.5816869735717773,0.7823176383972168,0
0.5386115908622742,1.0560216903686523,0.6835516691207886,0
0.7764765024185181,0.4881172180175781,0.4879852533340454,0
1.0151958465576172,-0.026360511779785156,0.30504488945007324,0
1.1706502437591553,-0.44683170318603516,0.3309825658798218,0
1.2955095767974854,-0.6036262512207031,0.42988377809524536,0
1.4400724172592163,-0.5448493957519531,0.5762183666229248,0
1.4849488735198975,-0.32335376739501953,0.5840135216712952,0
1.5783740282058716,-0.04690742492675781,0.6500163078308105,0
1.694014072418213,0.18401432037353516,0.6668999195098877,0
1.8103235960006714,0.3383922576904297,0.761616051197052,0
1.980207920074463,0.3039398193359375,0.93654465675354,0
2.3457911014556885,0.2482318878173828,1.0597747564315796,0
2.450998544692993,0.1735830307006836,1.0657633543014526,0
2.4831535816192627,0.2353496551513672,1.0756913423538208,0
2.478320360183716,0.3926677703857422,1.2062172889709473,0
2.434051513671875,0.7290439605712891,1.1720330715179443,0
2.4484808444976807,1.2012243270874023,1.2580385208129883,0
2.406364679336548,1.6584291458129883,1.3758875131607056,0
2.388549327850342,1.8352327346801758,1.501374363899231,0
2.425586700439453,2.033228874206543,1.4979398250579834,0
2.514784097671509,2.2093238830566406,1.530621886253357,0
2.5336899757385254,2.2343788146972656,1.4628232717514038,0
2.573070764541626,2.2735366821289062,1.5288468599319458,0
2.632683277130127,2.2478456497192383,1.692570686340332,0
2.7267398834228516,2.231471061706543,1.896266222000122,0
2.7879087924957275,2.3988752365112305,2.08914852142334,0
2.8755407333374023,2.811857223510742,2.1314432621002197,0
2.996068000793457,3.391066551208496,2.1490368843078613,0
3.191581964492798,4.203177452087402,2.134284257888794,0
3.329943895339966,5.102038383483887,1.9197725057601929,0
3.5136823654174805,5.76243782043457,1.7837207317352295,0
3.6208722591400146,5.993527412414551,1.7293992042541504,0
3.7985315322875977,5.659714698791504,1.6762909889221191,0
3.7602736949920654,4.819116592407227,1.5068020820617676,0
3.8180322647094727,4.2853899002075195,1.376103401184082,0
3.7589941024780273,3.5990428924560547,1.1945549249649048,0
3.6256721019744873,2.9395809173583984,0.9369854927062988,0
3.6241631507873535,2.467283248901367,0.6699009537696838,0
3.5609641075134277,2.0409679412841797,0.23012873530387878,0
3.4843008518218994,1.7157878875732422,-0.2214333713054657,0
3.164811134338379,1.2574548721313477,-0.9843200445175171,0
2.696262836456299,0.7811307907104492,-1.54637610912323,0
2.1055586338043213,0.22971343994140625,-1.782498836517334,0
1.5156506299972534,-0.31038665771484375,-2.040921449661255,0
0.853377103805542,-0.6237888336181641,-2.344982385635376,0
0.19189566373825073,-0.7847213745117188,-2.8485491275787354,0
-0.34298765659332275,-0.8959903717041016,-2.88641095161438,0
-1.0709742307662964,-0.7782020568847656,-2.3756237030029297,0
-1.7592941522598267,-0.8692197799682617,-1.7515685558319092,0
-2.541965961456299,-0.9130582809448242,-1.0476895570755005,0
-3.139307975769043,-0.7570028305053711,-0.4694347381591797,0
-3.5212831497192383,-0.5068492889404297,-0.059902191162109375,0
-3.5556137561798096,-0.32334232330322266,0.242928147315979,0
-3.4478864669799805,-0.1254596710205078,0.47569894790649414,0
-3.154146909713745,0.007800102233886719,0.5984750986099243,0
-2.7687575817108154,0.1676349639892578,0.6029620170593262,0
-2.372116804122925,0.41175365447998047,0.5623942613601685,0
-1.9079052209854126,0.6398992538452148,0.5847607851028442,0
-1.5490295886993408,0.8116445541381836,0.6522009372711182,0
-1.3715918064117432,0.8052310943603516,0.6975023746490479,0
-1.4150887727737427,0.9294147491455078,0.6228241920471191,0
-1.5173730850219727,1.1026744842529297,0.5272518396377563,0
-1.800942063331604,1.3798322677612305,0.26117217540740967,0
-2.082120180130005,1.6555147171020508,-0.19154751300811768,0
-2.3402516841888428,1.8342180252075195,-0.8287402391433716,0
-2.5702662467956543,1.8803815841674805,-1.4834314584732056,0
-2.5094895362854004,1.7655105590820312,-1.9785584211349487,0
-2.270761489868164,1.5542821884155273,-2.373532295227051,0
-2.0272810459136963,1.2992849349975586,-2.6200268268585205,0
-1.7808506488800049,1.0361623764038086,-2.858335494995117,0
-1.353245735168457,0.8650722503662109,-3.0230824947357178,0
-0.6944591403007507,0.6995267868041992,-3.0442276000976562,0
-0.23080326616764069,0.666264533996582,-3.048964262008667,0
-0.11883023381233215,0.5859222412109375,-2.9376063346862793,0
-0.20412778854370117,0.0784158706665039,-2.5886998176574707,0
-0.166582852602005,-0.44936656951904297,-1.9592431783676147,0
-0.012230485677719116,-1.0146293640136719,-1.3281421661376953,0
0.08328916132450104,-1.9552512168884277,-0.5739986896514893,0
0.3106631636619568,-2.489442825317383,-0.14278221130371094,0
0.36977261304855347,-2.8905763626098633,-0.20823335647583008,0
0.1610129177570343,-3.393354892730713,-0.5448019504547119,0
-0.019992277026176453,-3.6727118492126465,-0.9103622436523438,0
-0.15077969431877136,-4.063732147216797,-1.4605128765106201,0
-0.3288441002368927,-4.592343807220459,-2.0882816314697266,0
-0.20878778398036957,-5.157773017883301,-2.442723512649536,0
-0.19196370244026184,-5.6617112159729,-2.6540136337280273,0
-0.40739718079566956,-5.896036624908447,-2.8065876960754395,0
-0.4337855577468872,-5.925605297088623,-2.7620677947998047,0
-0.6087069511413574,-5.705502510070801,-2.6422083377838135,0
-0.6862883567810059,-5.222071647644043,-2.3436119556427,0
-0.7653131484985352,-4.583539009094238,-1.9401228427886963,0
-0.915418267250061,-4.043824672698975,-1.6824846267700195,0
-1.0457921028137207,-3.657918930053711,-1.4675579071044922,0
-1.077892780303955,-3.4400172233581543,-1.2785470485687256,0
-1.2608200311660767,-3.356441020965576,-1.1417675018310547,0
-1.3794087171554565,-3.337578296661377,-0.9641516208648682,0
-1.4386907815933228,-3.4836697578430176,-0.7842288017272949,0
-1.5246165990829468,-3.6844358444213867,-0.6045513153076172,0
-1.5819352865219116,-3.977950096130371,-0.473146915435791,0
-1.491246223449707,-4.2898783683776855,-0.24903392791748047,0
-1.348698377609253,-4.591437339782715,-0.006530284881591797,0
-1.3199846744537354,-4.82762336730957,0.2734980583190918,0
-1.235584020614624,-4.974832534790039,0.6131167411804199,0
-1.0428310632705688,-5.033445358276367,0.9460320472717285,0
-0.8972155451774597,-5.101640701293945,1.1936070919036865,0
-0.8445368409156799,-5.100372314453125,1.293724536895752,0
-0.6022661328315735,-5.117977142333984,1.2845876216888428,0
-0.4955498278141022,-5.036777019500732,1.2372069358825684,0
-0.3802245557308197,-4.853835105895996,1.0427029132843018,0
-0.38043212890625,-4.544670581817627,0.8336813449859619,0
-0.345158189535141,-4.065792083740234,0.7952778339385986,0
-0.32401031255722046,-3.560577869415283,1.0317449569702148,0
-0.05128735303878784,-2.956658363342285,1.1440575122833252,0
0.41056084632873535,-2.138300895690918,0.8974573612213135,0
1.022280216217041,-1.059117317199707,0.3987538814544678,0
1.5245143175125122,0.6260271072387695,-0.011029958724975586,0
1.7158608436584473,2.8671436309814453,0.07854247093200684,0
1.543647289276123,5.80006217956543,1.1394574642181396,0
0.7786094546318054,8.564925193786621,3.131671667098999,0
-0.03788326680660248,9.680403709411621,5.692418098449707,0
0.16530746221542358,8.776582717895508,7.868316650390625,0
0.3584158718585968,7.204282760620117,8.40513801574707,0
0.42887625098228455,5.402520179748535,7.578106880187988,0
1.0107135772705078,3.4223060607910156,6.752881050109863,0
1.8406773805618286,1.1205692291259766,6.034514427185059,0
2.299436330795288,-1.24662446975708,5.050746917724609,0
1.449862003326416,-3.0764389038085938,3.3452517986297607,0
-0.30050763487815857,-2.7847418785095215,0.9089760780334473,0
-1.164860725402832,0.682830810546875,-1.096055269241333,0
-0.7970234155654907,4.829998970031738,-2.8847742080688477,0
-0.36705130338668823,8.868942260742188,-4.869621276855469,0
-1.462965488433838,12.333331108093262,-7.030981063842773,0
-4.0114240646362305,14.501154899597168,-8.610675811767578,0
-6.948735237121582,15.86905288696289,-8.380615234375,0
-9.285008430480957,15.743651390075684,-7.299952030181885,0
-9.729273796081543,13.856754302978516,-5.452296257019043,0
-7.936121463775635,9.93765926361084,-2.1011924743652344,0
-7.358216285705566,7.164573669433594,0.6542794704437256,0
-6.645320892333984,5.575272560119629,2.34727144241333,0
-5.157597541809082,3.7526092529296875,2.5962371826171875,0
-3.411069393157959,1.564497947692871,1.7367095947265625,0
-2.7652039527893066,-0.3315763473510742,0.2548809051513672,0
-2.7756450176239014,-1.6920418739318848,-1.4927845001220703,0
-1.8798818588256836,-2.3901782035827637,-3.0016090869903564,0
-1.2230432033538818,-1.9541287422180176,-3.7550148963928223,0
-1.1442196369171143,-0.7924156188964844,-3.8057520389556885,0
-0.7704125642776489,0.402862548828125,-3.9218831062316895,0
-0.030613064765930176,1.4373455047607422,-4.058813571929932,0
0.9483233690261841,2.399019241333008,-3.9038405418395996,0
2.1580774784088135,2.993124008178711,-3.5268423557281494,0
3.291001796722412,3.18344783782959,-3.186168670654297,0
3.894214153289795,2.831254005432129,-3.247799873352051,0
4.172045707702637,1.9349994659423828,-3.6436946392059326,0
3.9795384407043457,0.6874017715454102,-4.142424583435059,0
3.3482553958892822,-0.6063604354858398,-4.865405559539795,0
2.541670083999634,-1.5404367446899414,-5.385858058929443,0
1.9969005584716797,-1.805067539215088,-5.7305755615234375,0
1.5361099243164062,-1.519479751586914,-5.533400535583496,0
0.8453866243362427,-1.0213794708251953,-4.746180057525635,0
-0.011013388633728027,-0.5817584991455078,-3.846846103668213,0
-0.6516222357749939,-0.2898263931274414,-2.826058864593506,0
-1.010256052017212,-0.15569114685058594,-2.0476226806640625,0
-1.0129191875457764,-0.33014965057373047,-1.4599698781967163,0
-0.8488941192626953,-0.5616006851196289,-1.149420976638794,0
-0.5287516117095947,-0.7417545318603516,-1.0577818155288696,0
-0.2621738314628601,-0.9129705429077148,-1.058075189590454,0
0.02103567123413086,-1.096360206604004,-0.9292539358139038,0
0.4725889563560486,-0.9451570510864258,-0.6358295679092407,0
0.7348880171775818,-0.6392803192138672,-0.4547877311706543,0
0.8817230463027954,-0.35376548767089844,-0.4088616371154785,0
0.8080710172653198,-0.06511592864990234,-0.3121587038040161,0
0.6655217409133911,-0.22565650939941406,-0.3283649682998657,0
0.41712528467178345,-0.5793170928955078,-0.46826672554016113,0
0.018257856369018555,-0.9514369964599609,-0.690687894821167,0
-0.22178399562835693,-1.4256277084350586,-1.0485997200012207,0
-0.3452754020690918,-1.8270807266235352,-1.3540246486663818,0
-0.45914578437805176,-2.2873306274414062,-1.5457334518432617,0
-0.5152792930603027,-2.4572176933288574,-1.4854533672332764,0
-0.49214231967926025,-2.6360549926757812,-1.3121204376220703,0
-0.4520961046218872,-2.668449878692627,-1.0999126434326172,0
-0.49361950159072876,-2.4517970085144043,-0.8127787709236145,0
-0.5477585792541504,-2.2398786544799805,-0.6490514278411865,0
-0.5838796496391296,-1.8844432830810547,-0.5748931765556335,0
-0.5090736150741577,-1.5626211166381836,-0.5230709910392761,0
-0.44343602657318115,-1.2360858917236328,-0.479198157787323,0
-0.29640233516693115,-0.9359102249145508,-0.3978050947189331,0
-0.10898792743682861,-0.788787841796875,-0.3242897391319275,0
0.09681344032287598,-0.6319465637207031,-0.38261353969573975,0
0.4096606373786926,-0.6591100692749023,-0.4936414957046509,0
0.7178055644035339,-0.9345674514770508,-0.4909524917602539,0
0.9044680595397949,-1.1877756118774414,-0.2750537395477295,0
0.9053755402565002,-1.5216856002807617,-0.022588610649108887,0
1.003350019454956,-1.7593636512756348,0.027710437774658203,0
1.121924877166748,-1.9966797828674316,-0.025101304054260254,0
1.2681822776794434,-2.1140623092651367,-0.3149144649505615,0
1.2674747705459595,-2.035081386566162,-0.839653491973877,0
1.4185168743133545,-1.9130001068115234,-0.9891276359558105,0
1.5172178745269775,-1.7765541076660156,-0.9593735933303833,0
1.5653784275054932,-1.618596076965332,-0.7282608151435852,0
1.5769562721252441,-1.5324039459228516,-0.4723840653896332,0
1.5615007877349854,-1.3361778259277344,-0.21529269218444824,0
1.526058554649353,-1.2069711685180664,0.019238710403442383,0
1.449173927307129,-1.0849227905273438,0.23145216703414917,0
1.3815085887908936,-1.0178556442260742,0.39987802505493164,0
1.2424218654632568,-0.8861618041992188,0.45965975522994995,0
1.0393178462982178,-0.8859624862670898,0.44887009263038635,0
0.942505955696106,-0.7684192657470703,0.42446932196617126,0
0.7922854423522949,-0.6365127563476562,0.3548087179660797,0
0.7853807210922241,-0.4448528289794922,0.32052212953567505,0
0.6658861041069031,-0.3130607604980469,0.24429163336753845,0
0.5440497398376465,-0.17890357971191406,0.17367233335971832,0
0.47544020414352417,0.10581016540527344,0.16097696125507355,0
0.42187368869781494,0.37110424041748047,0.17956964671611786,0
0.2708508372306824,0.4854917526245117,0.2412521094083786,0
0.1992749571800232,0.5567655563354492,0.3197844922542572,0
0.06067299842834473,0.4726276397705078,0.3529312014579773,0
0.02485370635986328,0.4317340850830078,0.46758610010147095,0
0.019679486751556396,0.4149188995361328,0.6496086120605469,0
-0.01516813039779663,0.34088993072509766,0.8203074336051941,0
0.03952556848526001,0.2862567901611328,1.0517886877059937,0
0.08740812540054321,0.15538501739501953,1.2128162384033203,0
0.08739626407623291,0.044036865234375,1.3611027002334595,0
0.13244149088859558,-0.0669260025024414,1.4514613151550293,0
0.20056027173995972,-0.16553878784179688,1.5152448415756226,0
0.29627710580825806,-0.14182186126708984,1.5670368671417236,0
0.43387866020202637,-0.0628805160522461,1.5712398290634155,0
0.5893896222114563,0.08794784545898438,1.5591340065002441,0
0.798576831817627,0.25080108642578125,1.5238120555877686,0
1.059012532234192,0.3587026596069336,1.3504736423492432,0
1.2368309497833252,0.46909427642822266,1.1036409139633179,0
1.5020989179611206,0.6130332946777344,0.8166098594665527,0
1.677886724472046,0.6924285888671875,0.6350884437561035,0
1.6973040103912354,0.6380090713500977,0.47757336497306824,0
1.7568591833114624,0.624476432800293,0.3989192247390747,0
1.8496698141098022,0.6708841323852539,0.3963474631309509,0
2.0000157356262207,0.8082160949707031,0.5411859750747681,0
2.1122055053710938,0.8665714263916016,0.7039663791656494,0
2.339164972305298,0.9344892501831055,0.8413065671920776,0
2.525486707687378,0.9521503448486328,1.0127462148666382,0
2.766979217529297,1.0008735656738281,1.2250229120254517,0
2.9055230617523193,0.9705715179443359,1.377089023590088,0
3.0343899726867676,0.9162931442260742,1.4543449878692627,0
3.0984609127044678,0.8356485366821289,1.5762948989868164,0
3.0591683387756348,0.6736526489257812,1.6089918613433838,0
2.980525493621826,0.6048974990844727,1.5689480304718018,0
2.9294681549072266,0.5838117599487305,1.6020357608795166,0
2.9249069690704346,0.6318111419677734,1.559607982635498,0
2.7938973903656006,0.8395843505859375,1.266567587852478,0
2.686256170272827,1.0944633483886719,0.8207125663757324,0
2.399672031402588,1.494339942932129,0.1716250777244568,0
2.0861759185791016,2.122696876525879,-0.4315541982650757,0
1.8601266145706177,2.74019718170166,-0.7178796529769897,0
1.5347107648849487,3.3397722244262695,-0.7178308963775635,0
1.395270824432373,3.658505439758301,-0.589167594909668,0
1.5265626907348633,3.6657238006591797,-0.38023483753204346,0
1.6305776834487915,3.3283653259277344,-0.23074400424957275,0
1.7105398178100586,2.8788185119628906,-0.18715375661849976,0
1.714085340499878,2.513307571411133,-0.30321580171585083,0
1.7181718349456787,2.2580909729003906,-0.5750727653503418,0
1.6491363048553467,1.8788337707519531,-0.8139252662658691,0
