AccX,AccY,AccZ,stepCount
0.23328101634979248,-0.4633674621582031,0.13702550530433655,-1.7629226446151733
0.23886489868164062,-0.4326953887939453,0.21940940618515015,1.8040951490402222
0.2659423351287842,-0.39279937744140625,0.2964463531970978,-3.008017063140869
0.31671905517578125,-0.336639404296875,0.3539867401123047,0.8587124943733215
0.3410533666610718,-0.25484561920166016,0.35676655173301697,-1.4290558099746704
0.4340522289276123,-0.2140941619873047,0.34083837270736694,1.956437110900879
0.4836639165878296,-0.18082809448242188,0.32310938835144043,0
0.5021072626113892,-0.10986804962158203,0.2607744336128235,0
0.5704107284545898,-0.06801414489746094,0.20890569686889648,0
0.5648043155670166,-0.07165718078613281,0.16740992665290833,0
0.5524210929870605,-0.044449806213378906,0.11239752173423767,0
0.5950764417648315,-0.036502838134765625,0.13398602604866028,0
0.6115291118621826,-0.0856313705444336,0.19347384572029114,0
0.6328294277191162,-0.13199806213378906,0.2619486153125763,0
0.5853631496429443,-0.18512821197509766,0.3464382588863373,0
0.5764749050140381,-0.2544517517089844,0.44212353229522705,0
0.584496021270752,-0.31609535217285156,0.5298482179641724,0
0.5593730211257935,-0.38910961151123047,0.5740163922309875,0
0.5797282457351685,-0.418792724609375,0.5963568091392517,0
0.5074868202209473,-0.4791078567504883,0.6279877424240112,0
0.497722864151001,-0.4961996078491211,0.6190203428268433,0
0.4668698310852051,-0.5060539245605469,0.6624932289123535,0
0.46266114711761475,-0.5182399749755859,0.6511015892028809,0
0.4137381315231323,-0.5588722229003906,0.6446969509124756,0
0.47484898567199707,-0.5446300506591797,0.5863186120986938,0
0.471676230430603,-0.4545879364013672,0.5571996569633484,0
0.5305848121643066,-0.3938417434692383,0.5098012685775757,0
0.551400899887085,-0.317047119140625,0.48223376274108887,0
0.5369044542312622,-0.28608036041259766,0.45054614543914795,0
0.5941985845565796,-0.2649393081665039,0.46924713253974915,0
0.5969148874282837,-0.2464284896850586,0.46180251240730286,0
0.56693434715271,-0.21154212951660156,0.4496675133705139,0
0.6019829511642456,-0.22216510772705078,0.4849580228328705,0
0.6610420942306519,-0.21854305267333984,0.48885077238082886,0
0.6750004291534424,-0.18891239166259766,0.48775607347488403,0
0.7177742719650269,-0.18333911895751953,0.4793633222579956,0
0.7319427728652954,-0.22769927978515625,0.41375553607940674,0
0.7626805305480957,-0.2384490966796875,0.35556158423423767,0
0.7529283761978149,-0.1327829360961914,0.39272359013557434,0
0.6960145235061646,-0.09450626373291016,0.3654484450817108,0
0.6564631462097168,-0.032843589782714844,0.38350021839141846,0
0.5771207809448242,-0.021585464477539062,0.3538978099822998,0
0.5200765132904053,-0.019949913024902344,0.3911380171775818,0
0.4971574544906616,0.024341583251953125,0.394914835691452,0
0.4081385135650635,-0.09082221984863281,0.38912755250930786,0
0.3199899196624756,-0.14568138122558594,0.3713759481906891,0
0.2779548168182373,-0.13126754760742188,0.39398643374443054,0
0.210252046585083,-0.1122293472290039,0.4353238344192505,0
0.24061012268066406,-0.14084339141845703,0.43839791417121887,0
0.23998451232910156,-0.1431121826171875,0.41793370246887207,0
0.2728233337402344,-0.08365249633789062,0.36724284291267395,0
0.2984353303909302,-0.06505489349365234,0.30561554431915283,0
0.3069324493408203,-0.1889810562133789,0.21157456934452057,0
0.3935987949371338,-0.09102916717529297,0.19462186098098755,0
0.32758212089538574,0.07024097442626953,0.19004201889038086,0
0.3215731382369995,0.16370582580566406,0.21917954087257385,0
0.2424863576889038,0.3346891403198242,0.2509734034538269,0
0.17391324043273926,0.23830890655517578,0.25660431385040283,0
0.11327648162841797,0.1617107391357422,0.30962473154067993,0
0.08458864688873291,0.2803478240966797,0.40467900037765503,0
0.08781790733337402,0.35750675201416016,0.536658525466919,0
0.09441518783569336,0.35075855255126953,0.6624007225036621,0
0.14003050327301025,0.3723716735839844,0.7320739030838013,0
0.15543973445892334,0.34377479553222656,0.7461651563644409,0
0.20736896991729736,0.3342399597167969,0.7336763143539429,0
0.37857675552368164,0.40059947967529297,0.654598593711853,0
0.4876519441604614,0.4353799819946289,0.568718433380127,0
0.6374188661575317,0.7047185897827148,0.4548322558403015,0
0.734473466873169,0.39478206634521484,0.3937990069389343,0
0.9001936912536621,0.39835548400878906,0.33758780360221863,0
0.981988787651062,0.4042024612426758,0.32666629552841187,0
1.0660545825958252,0.4764089584350586,0.3560939431190491,0
1.0811601877212524,0.5598182678222656,0.40192872285842896,0
1.0446698665618896,0.6448259353637695,0.45245110988616943,0
1.1637800931930542,0.8857078552246094,0.5147576928138733,0
1.0827909708023071,0.6663618087768555,0.49824652075767517,0
1.1926742792129517,0.5224399566650391,0.5530868172645569,0
1.2094950675964355,0.5031547546386719,0.5650022625923157,0
1.3196676969528198,0.21805286407470703,0.7033795714378357,0
1.1036028861999512,0.41733264923095703,0.5057970285415649,0
1.2262375354766846,0.5438022613525391,0.5375639200210571,0
1.224105954170227,0.6503162384033203,0.5618709921836853,0
1.3098620176315308,0.646794319152832,0.6671522259712219,0
1.3146244287490845,0.6409311294555664,0.677215576171875,0
1.4321317672729492,0.26703548431396484,0.7950268387794495,0
1.1979128122329712,0.81500244140625,0.5652027726173401,0
1.1222478151321411,0.8669834136962891,0.514498233795166,0
1.1870718002319336,0.6384344100952148,0.6961437463760376,0
1.2993143796920776,0.3381643295288086,0.90218186378479,0
1.2355196475982666,0.1922740936279297,0.9563553929328918,0
1.258069634437561,0.531865119934082,0.7501866817474365,0
1.4018198251724243,0.5361814498901367,0.7272400856018066,0
1.34880530834198,0.5096855163574219,0.6744332909584045,0
1.404178500175476,0.5096769332885742,0.5947125554084778,0
1.5200096368789673,0.516911506652832,0.743081271648407,0
1.5600227117538452,0.6548366546630859,0.76861172914505,0
1.493383765220642,0.7728567123413086,0.7314634919166565,0
1.5821633338928223,0.9162359237670898,0.7081602215766907,0
1.5089490413665771,1.0301780700683594,0.6910712718963623,0
1.757673978805542,1.083993911743164,0.7778691053390503,0
1.5988911390304565,1.0473136901855469,0.6393412351608276,0
1.3607162237167358,1.3530263900756836,0.42633721232414246,0
1.5908386707305908,1.0675058364868164,0.5055409073829651,0
1.1928682327270508,1.3186817169189453,0.39931392669677734,0
1.312313437461853,1.185572624206543,0.5033100247383118,0
1.0047149658203125,1.4073352813720703,0.36642324924468994,0
1.1841832399368286,1.280491828918457,0.5608189105987549,0
0.9466671943664551,1.2661552429199219,0.5867098569869995,0
0.8298237323760986,1.2731647491455078,0.580416202545166,0
0.8735501766204834,1.33453369140625,0.7298151254653931,0
0.7220684289932251,1.288442611694336,0.5744163393974304,0
0.5735522508621216,1.420771598815918,0.522240161895752,0
0.39648354053497314,1.419137954711914,0.4009908437728882,0
0.43664824962615967,1.298828125,0.34686279296875,0
0.22592759132385254,1.3601951599121094,0.1197371631860733,0
0.14385616779327393,1.2016925811767578,-0.012514770030975342,0
0.06922292709350586,1.062673568725586,-0.2410820573568344,0
-0.12922418117523193,0.8403501510620117,-0.5445085167884827,0
-0.4110249876976013,0.4823751449584961,-0.7508318424224854,0
-0.5416204333305359,0.24486923217773438,-0.8526548743247986,0
-0.6887698173522949,-0.013249397277832031,-0.8857129812240601,0
-0.8639553785324097,-0.18190479278564453,-0.9236859083175659,0
-1.0144649744033813,-0.28022098541259766,-1.038346767425537,0
-1.1933444738388062,-0.4706907272338867,-1.1268961429595947,0
-1.302640676498413,-0.49959850311279297,-1.1794312000274658,0
-1.4381033182144165,-0.45311450958251953,-1.1787928342819214,0
-1.4895071983337402,-0.4101438522338867,-1.2468054294586182,0
-1.5332342386245728,-0.40164756774902344,-1.3094747066497803,0
-1.5641056299209595,-0.44660282135009766,-1.335895299911499,0
-1.5649969577789307,-0.4874763488769531,-1.213432788848877,0
-1.7558306455612183,-0.5888395309448242,-0.8788357377052307,0
-1.9167015552520752,-0.7100105285644531,-0.46943557262420654,0
-2.045874834060669,-0.7601842880249023,-0.12963581085205078,0
-2.0651659965515137,-0.6774253845214844,0.16131329536437988,0
-1.9586926698684692,-0.5147037506103516,0.247033953666687,0
-1.806537389755249,-0.2531318664550781,0.19562017917633057,0
-1.621827244758606,-0.012542724609375,-0.0015354156494140625,0
-1.2519960403442383,0.15652084350585938,-0.10633230209350586,0
-0.897983193397522,0.27043724060058594,-0.2779766321182251,0
-0.6262301802635193,0.4029884338378906,-0.5612150430679321,0
-0.5173646211624146,0.5036954879760742,-0.8963022232055664,0
-0.44376200437545776,0.5462570190429688,-1.226807951927185,0
-0.48026466369628906,0.5834827423095703,-1.5404022932052612,0
-0.5890985727310181,0.5416803359985352,-1.847254991531372,0
-0.6532450318336487,0.6368598937988281,-2.1848137378692627,0
-0.5957537889480591,0.6686973571777344,-2.4420783519744873,0
-0.5343468189239502,0.7740840911865234,-2.532907485961914,0
-0.6467673182487488,0.8839712142944336,-2.4623501300811768,0
-0.7222834825515747,1.129796028137207,-2.235563039779663,0
-0.8300093412399292,1.1425714492797852,-1.8635332584381104,0
-0.8800961971282959,1.060525894165039,-1.606346607208252,0
-1.0169399976730347,0.8307437896728516,-1.6798039674758911,0
-1.222662329673767,0.7092914581298828,-1.817845106124878,0
-1.3257951736450195,0.44980335235595703,-1.8889583349227905,0
-1.3558560609817505,0.1863422393798828,-1.866868019104004,0
-1.4857699871063232,-0.26766204833984375,-1.792159914970398,0
-1.6251634359359741,-0.5558948516845703,-1.6548726558685303,0
-1.8037852048873901,-0.7743206024169922,-1.6221539974212646,0
-1.9912736415863037,-0.9759397506713867,-1.5138726234436035,0
-1.9840375185012817,-1.0871200561523438,-1.4059078693389893,0
-2.0615382194519043,-1.263779640197754,-1.3121612071990967,0
-2.1703853607177734,-1.3530397415161133,-1.2564697265625,0
-2.1450183391571045,-1.4196996688842773,-1.1599960327148438,0
-2.1600136756896973,-1.5091233253479004,-1.138063907623291,0
-2.2082395553588867,-1.6236052513122559,-0.9231224060058594,0
-1.9496257305145264,-1.6435174942016602,-0.7979304790496826,0
-1.8650133609771729,-1.6862268447875977,-0.6308751106262207,0
-1.743463158607483,-1.6057448387145996,-0.6567442417144775,0
-1.6057970523834229,-1.6842565536499023,-0.9260203838348389,0
-1.6697540283203125,-1.8259763717651367,-0.8597052097320557,0
-1.5523262023925781,-1.880241870880127,-0.924485445022583,0
-1.6073323488235474,-2.0169639587402344,-1.0581023693084717,0
-1.546612024307251,-2.2288923263549805,-1.1913490295410156,0
-1.5660438537597656,-2.618863582611084,-1.2667431831359863,0
-1.4557723999023438,-2.76853084564209,-1.2286725044250488,0
-1.4070526361465454,-2.8862648010253906,-1.2948827743530273,0
-1.5358830690383911,-3.261263847351074,-1.4251790046691895,0
-1.6840908527374268,-3.276613235473633,-1.25982666015625,0
-1.3005015850067139,-3.213000774383545,-1.1328420639038086,0
-1.2865678071975708,-3.2713217735290527,-1.2285642623901367,0
-1.285213589668274,-3.1742019653320312,-1.1997990608215332,0
-1.3344115018844604,-3.2208518981933594,-1.1612796783447266,0
-1.1044995784759521,-3.308302879333496,-1.0339617729187012,0
-0.930953860282898,-3.577646255493164,-0.9205260276794434,0
-0.9703519940376282,-3.884892463684082,-0.8886387348175049,0
-1.6200954914093018,-4.081491947174072,-0.8476047515869141,0
-1.1526392698287964,-3.823678493499756,-0.5761516094207764,0
-1.0199110507965088,-3.865204334259033,-0.49784421920776367,0
-1.2179769277572632,-4.1264753341674805,-0.33336973190307617,0
-1.495011329650879,-4.20044469833374,-0.08331680297851562,0
-1.5398645401000977,-4.099069595336914,0.11555242538452148,0
-1.5466265678405762,-3.9658751487731934,0.3731551170349121,0
-1.5199496746063232,-3.731600284576416,0.7326745986938477,0
-1.3828299045562744,-3.4777703285217285,1.141679286956787,0
-1.041549563407898,-3.2017998695373535,1.3916816711425781,0
-0.7467164993286133,-2.8720245361328125,1.3261375427246094,0
-0.2930571436882019,-2.296560764312744,1.144439935684204,0
-0.1405128836631775,-1.7305068969726562,0.932927131652832,0
0.00318145751953125,-1.1224594116210938,0.7418932914733887,0
0.2433779239654541,-0.31640052795410156,0.6794583797454834,0
0.4281424283981323,0.4272127151489258,0.9111621379852295,0
0.6558157801628113,1.1690807342529297,1.008460283279419,0
1.0844743251800537,2.1015472412109375,0.8488142490386963,0
1.4298397302627563,3.2612648010253906,0.7887272834777832,0
1.9873862266540527,4.799006462097168,1.241356372833252,0
1.9339733123779297,6.505910873413086,2.3320300579071045,0
0.9871695637702942,7.290639877319336,3.795194625854492,0
0.833270788192749,7.016990661621094,5.2939958572387695,0
0.6417682766914368,6.509733200073242,6.437239170074463,0
0.1209326982498169,5.801389694213867,7.000941276550293,0
0.03397798538208008,4.912693977355957,7.217366695404053,0
-0.12290555238723755,3.532390594482422,6.944037914276123,0
-0.3756483197212219,1.8476495742797852,6.2930169105529785,0
-0.8747013807296753,0.24442195892333984,5.305674076080322,0
-1.5634163618087769,-0.8269586563110352,3.9082741737365723,0
-2.3171017169952393,-1.1032686233520508,2.4820971488952637,0
-2.296328067779541,-0.2457141876220703,1.1966662406921387,0
-2.348193645477295,1.308985710144043,0.13428974151611328,0
-2.51308012008667,3.2751588821411133,-1.0786747932434082,0
-2.3770689964294434,4.988948822021484,-2.7351341247558594,0
-1.9262970685958862,6.043463706970215,-3.787569522857666,0
-2.3389461040496826,6.511956214904785,-4.21665620803833,0
-2.9364161491394043,6.046572685241699,-4.089550018310547,0
-3.237762451171875,4.878134727478027,-4.369379043579102,0
-3.427438735961914,3.6804065704345703,-4.794501781463623,0
-3.742791175842285,2.356891632080078,-5.229092597961426,0
-4.001172065734863,1.3930463790893555,-5.333906173706055,0
-3.935250759124756,1.0542583465576172,-4.7813496589660645,0
-3.5011813640594482,1.2235002517700195,-3.7281692028045654,0
-3.11730694770813,1.5681886672973633,-2.1378531455993652,0
-2.840026617050171,1.7934293746948242,-0.8892781734466553,0
-1.6260509490966797,1.8135251998901367,-0.11543083190917969,0
-0.3469575047492981,1.663355827331543,0.1091165542602539,0
0.42568671703338623,1.2531061172485352,-0.04022789001464844,0
0.6461818218231201,0.7898921966552734,-0.5566005706787109,0
0.02662360668182373,0.4517831802368164,-1.7809844017028809,0
-0.6312973499298096,-0.18738842010498047,-3.1123056411743164,0
-1.1993969678878784,-0.7742624282836914,-4.116853713989258,0
-1.7253501415252686,-1.2103886604309082,-4.7707695960998535,0
-2.135958433151245,-1.3439340591430664,-5.12864875793457,0
-2.541743755340576,-1.2572298049926758,-5.279016971588135,0
-2.68434476852417,-1.1234626770019531,-5.194973468780518,0
-2.508002758026123,-0.955810546875,-4.877103328704834,0
-2.2190682888031006,-0.7558364868164062,-4.40126895904541,0
-1.7156224250793457,-0.5015840530395508,-3.9306416511535645,0
-1.1604982614517212,-0.2671241760253906,-3.503199338912964,0
-0.7731702923774719,0.019105911254882812,-3.151423931121826,0
-0.46639811992645264,0.22039318084716797,-2.861952066421509,0
-0.35810035467147827,0.4032926559448242,-2.69529128074646,0
-0.37873178720474243,0.5027322769165039,-2.5278542041778564,0
-0.35284942388534546,0.5063819885253906,-2.470881462097168,0
-0.4154474139213562,0.3949623107910156,-2.4664859771728516,0
-0.35437095165252686,0.1588592529296875,-2.4117431640625,0
-0.3029484748840332,-0.07745933532714844,-2.3283371925354004,0
-0.13892769813537598,-0.42162227630615234,-2.180365800857544,0
0.16603541374206543,-0.6199569702148438,-2.0348753929138184,0
0.39156150817871094,-0.780055046081543,-1.928067922592163,0
0.5351080894470215,-0.8611221313476562,-1.8172203302383423,0
0.6876537799835205,-1.0041046142578125,-1.7459980249404907,0
0.8543709516525269,-1.0819101333618164,-1.7943302392959595,0
0.9493242502212524,-1.187591552734375,-1.9368051290512085,0
1.030120611190796,-1.2252168655395508,-2.047588348388672,0
0.9870446920394897,-1.202000617980957,-2.112830638885498,0
0.8899011611938477,-1.2089910507202148,-2.120591878890991,0
0.6720601320266724,-1.219991683959961,-2.1018550395965576,0
0.4153103828430176,-1.192138671875,-2.0587453842163086,0
0.19395971298217773,-1.2141838073730469,-1.981100082397461,0
0.06554698944091797,-1.290994644165039,-1.9690589904785156,0
0.042131900787353516,-1.3197994232177734,-1.9792951345443726,0
0.06124281883239746,-1.1116981506347656,-2.028733730316162,0
-0.15456485748291016,-0.9682674407958984,-1.9715228080749512,0
-0.1599106788635254,-0.8178949356079102,-1.7092595100402832,0
-0.21345186233520508,-0.8089008331298828,-1.5837966203689575,0
-0.20824730396270752,-0.7186298370361328,-1.5111864805221558,0
-0.18534207344055176,-0.5758171081542969,-1.5368231534957886,0
-0.2549145221710205,-0.5335912704467773,-1.5503120422363281,0
-0.22836601734161377,-0.49853515625,-1.5730172395706177,0
-0.10844969749450684,-0.5973062515258789,-1.6432387828826904,0
-0.03893089294433594,-0.5690784454345703,-1.6628532409667969,0
0.018338441848754883,-0.5933513641357422,-1.6197311878204346,0
0.06318402290344238,-0.703587532043457,-1.5087072849273682,0
0.04530918598175049,-0.8064069747924805,-1.4349853992462158,0
0.0461122989654541,-0.9066066741943359,-1.3290830850601196,0
0.10170960426330566,-1.0137662887573242,-1.1983592510223389,0
0.09510493278503418,-1.0704755783081055,-1.062194585800171,0
0.04818379878997803,-1.0815553665161133,-1.0405592918395996,0
0.04733920097351074,-1.0278892517089844,-0.9425580501556396,0
0.09745252132415771,-0.9501848220825195,-0.8690605163574219,0
0.03358054161071777,-0.822138786315918,-0.7510786652565002,0
0.18091940879821777,-0.7705039978027344,-0.521915078163147,0
0.13001739978790283,-0.5871219635009766,-0.3657909631729126,0
0.24422740936279297,-0.5877532958984375,-0.14622294902801514,0
0.2937133312225342,-0.5163125991821289,-0.011555790901184082,0
0.31706440448760986,-0.4160118103027344,0.17954540252685547,0
0.28839993476867676,-0.483001708984375,0.12062990665435791,0
0.19581878185272217,-0.5711936950683594,-0.03762364387512207,0
0.1949460506439209,-0.6016979217529297,-0.07268881797790527,0
0.1829618215560913,-0.6702899932861328,-0.09449291229248047,0
0.24103319644927979,-0.7291164398193359,-0.047808170318603516,0
0.25673890113830566,-0.7997407913208008,-0.08319425582885742,0
0.23962366580963135,-0.9060831069946289,-0.07118093967437744,0
0.25907063484191895,-1.0409469604492188,-0.037902116775512695,0
0.25780582427978516,-1.142195701599121,0.021751761436462402,0
0.18816137313842773,-1.1070499420166016,0.009477436542510986,0
0.11961817741394043,-1.0456600189208984,0.011174142360687256,0
0.12878119945526123,-0.9509115219116211,0.10585469007492065,0
0.06724131107330322,-0.8443622589111328,0.2217860221862793,0
0.02828061580657959,-0.797755241394043,0.3350870609283447,0
-0.016805291175842285,-0.6555852890014648,0.3882589340209961,0
-0.048923611640930176,-0.5757637023925781,0.46967506408691406,0
-0.12073814868927002,-0.4410390853881836,0.5697141289710999,0
-0.18671584129333496,-0.3375730514526367,0.6860118508338928,0
-0.22543632984161377,-0.21271610260009766,0.732606828212738,0
-0.2250734567642212,-0.1884288787841797,0.7599168419837952,0
-0.24792933464050293,-0.18326282501220703,0.6865251660346985,0
-0.2534976005554199,-0.12540245056152344,0.45460209250450134,0
-0.18446993827819824,-0.026848793029785156,0.22413888573646545,0
-0.13906586170196533,0.11952877044677734,0.10033020377159119,0
-0.15093743801116943,0.23237991333007812,0.08110213279724121,0
-0.08382415771484375,0.3236970901489258,0.054318398237228394,0
-0.021491289138793945,0.3791484832763672,-0.020500630140304565,0
-0.047568678855895996,0.37964439392089844,-0.12901650369167328,0
-0.02324974536895752,0.38503265380859375,-0.20208583772182465,0
-0.08473777770996094,0.3809375762939453,-0.24942533671855927,0
-0.04300844669342041,0.2932395935058594,-0.1729709506034851,0
-0.06791484355926514,0.1722431182861328,-0.0037799030542373657,0
-0.08510923385620117,0.09209632873535156,0.13350050151348114,0
-0.09466934204101562,-0.007021903991699219,0.28185948729515076,0
-0.0537182092666626,0.006442070007324219,0.43911296129226685,0
0.03747713565826416,0.027156829833984375,0.5863749384880066,0
0.1904306411743164,0.014513015747070312,0.6160730123519897,0
0.4047989845275879,0.04270648956298828,0.6097506880760193,0
0.6493299007415771,0.06626415252685547,0.5939299464225769,0
0.9335843324661255,0.19516849517822266,0.5305167436599731,0
1.1810322999954224,0.15430545806884766,0.486336350440979,0
1.3222893476486206,0.21409034729003906,0.37994781136512756,0
1.438961386680603,0.3552436828613281,0.34773871302604675,0
1.52426016330719,0.4843626022338867,0.3465474843978882,0
1.6767102479934692,0.6946630477905273,0.3715685307979584,0
1.6786649227142334,0.8330078125,0.4080806374549866,0
1.824975609779358,0.6794414520263672,0.4994015693664551,0
1.5479958057403564,1.0162992477416992,0.42947712540626526,0
1.7378506660461426,1.1495189666748047,0.353390634059906,0
1.762235403060913,1.440445899963379,0.08643840253353119,0
1.8140796422958374,1.8076543807983398,-0.25478237867355347,0
1.8371745347976685,2.296567916870117,-0.5895857214927673,0
1.9389545917510986,2.754016876220703,-0.5443066954612732,0
2.018996238708496,3.438265800476074,-0.3939085006713867,0
2.2785120010375977,3.8994598388671875,-0.08579200506210327,0
2.6938977241516113,4.099551200866699,0.16923955082893372,0
3.1076278686523438,4.127276420593262,0.32287847995758057,0
3.263526201248169,4.135882377624512,0.35029488801956177,0
3.3357534408569336,4.137408256530762,0.2553926110267639,0
3.3911328315734863,4.134281158447266,0.0976446196436882,0
3.4223756790161133,4.1767578125,-0.20216263830661774,0
3.436802387237549,4.173942565917969,-0.6442529559135437,0
3.3390936851501465,4.21677303314209,-1.1095095872879028,0
3.218567371368408,4.262152671813965,-1.3972958326339722,0
2.829533100128174,4.1212158203125,-1.4955393075942993,0
2.2801082134246826,3.928180694580078,-1.5000088214874268,0
1.5849875211715698,3.601909637451172,-1.39863121509552,0
1.0393366813659668,2.9297876358032227,-1.2178339958190918,0
0.43045926094055176,2.412107467651367,-1.2886251211166382,0
-0.04034411907196045,1.6566953659057617,-1.4969494342803955,0
-0.3940393924713135,0.9772262573242188,-1.7211858034133911,0
-0.7114251255989075,0.5387449264526367,-1.8269439935684204,0
-1.1290686130523682,0.08054924011230469,-1.823112964630127,0
-1.4218056201934814,-0.2872200012207031,-1.7514500617980957,0
-1.7059736251831055,-0.5312414169311523,-1.658069133758545,0
-2.0645253658294678,-0.8071775436401367,-1.58897066116333,0
-2.4154796600341797,-1.0218381881713867,-1.5834052562713623,0
-2.653439521789551,-1.2710657119750977,-1.5226800441741943,0
-2.6927385330200195,-1.4689369201660156,-1.3308225870132446,0
-2.601608991622925,-1.5678596496582031,-1.1976600885391235,0
-2.226290702819824,-1.4438190460205078,-0.9684916138648987,0
-2.045635223388672,-1.5729198455810547,-0.8484864234924316,0
-1.5491658449172974,-1.5389719009399414,-0.6574763059616089,0
-1.2068431377410889,-1.4284143447875977,-0.5484619140625,0
-0.9737323522567749,-1.3227415084838867,-0.5813727378845215,0
-0.8574519157409668,-1.2411375045776367,-0.775551438331604,0
-0.7761572599411011,-1.0782899856567383,-1.0890824794769287,0
-0.8551493287086487,-1.0107946395874023,-1.5273360013961792,0
-1.154177188873291,-0.7604560852050781,-2.0010056495666504,0
-1.4483178853988647,-0.386627197265625,-2.2837843894958496,0
-1.805314540863037,-0.03972053527832031,-2.209946632385254,0
-2.2342875003814697,0.3161001205444336,-1.8649967908859253,0
-2.5254645347595215,0.6349821090698242,-1.3830020427703857,0
-2.5508522987365723,0.9116630554199219,-1.0149086713790894,0
-2.4714818000793457,0.9878320693969727,-0.861176609992981,0
-2.2404191493988037,0.9546041488647461,-1.0959675312042236,0
-1.9565134048461914,0.9870901107788086,-1.5838145017623901,0
-1.6470015048980713,0.9039230346679688,-1.9142804145812988,0
-1.344109058380127,0.6766529083251953,-2.003842353820801,0
-1.272207498550415,0.4056539535522461,-1.9329956769943237,0
-1.2554800510406494,0.10718250274658203,-1.7337300777435303,0
-1.2606236934661865,-0.310089111328125,-1.6058721542358398,0
-1.3904470205307007,-0.7364215850830078,-1.5007386207580566,0
-1.476731777191162,-1.097818374633789,-1.4972620010375977,0
-1.6029725074768066,-1.499586582183838,-1.4449410438537598,0
-1.625049114227295,-1.905848503112793,-1.4564259052276611,0
-1.5754021406173706,-2.0967459678649902,-1.5627751350402832,0
-1.6329669952392578,-2.3907957077026367,-1.6320786476135254,0
-1.6105012893676758,-2.776237964630127,-1.6974050998687744,0
-1.45237398147583,-3.0907106399536133,-1.6674387454986572,0
-1.2585172653198242,-3.358518600463867,-1.7045552730560303,0
-1.1051074266433716,-3.7185349464416504,-1.8278119564056396,0
-0.9726866483688354,-4.051205158233643,-1.8721301555633545,0
-0.8420484066009521,-4.2634124755859375,-1.8400039672851562,0
-0.6986379027366638,-4.41998815536499,-1.7817139625549316,0
-0.6978177428245544,-4.363279819488525,-1.8048937320709229,0
-0.7007642388343811,-4.088886260986328,-1.7874181270599365,0
-0.5904731154441833,-3.7741684913635254,-1.7411274909973145,0
-0.626442015171051,-3.349891185760498,-1.5009286403656006,0
-0.47176170349121094,-3.02932071685791,-1.3055925369262695,0
-0.4996924102306366,-2.9129185676574707,-1.2887353897094727,0
-0.5976077914237976,-2.981318950653076,-1.3425590991973877,0
-0.679299533367157,-3.0931267738342285,-1.4217631816864014,0
-0.8260468244552612,-3.2529091835021973,-1.4740350246429443,0
-0.9568421244621277,-3.484400749206543,-1.48282790184021,0
-0.9692275524139404,-3.749223232269287,-1.4386014938354492,0
-1.0068317651748657,-3.9611868858337402,-1.3653931617736816,0
-1.1414310932159424,-4.19445276260376,-1.2584247589111328,0
-1.169878363609314,-4.42022180557251,-1.1201410293579102,0
-1.187877893447876,-4.626452922821045,-0.9267337322235107,0
-1.1521728038787842,-4.7939300537109375,-0.709470272064209,0
-1.1706609725952148,-4.896111965179443,-0.490278959274292,0
-1.2169591188430786,-4.932746887207031,-0.23620176315307617,0
-1.2094391584396362,-4.860707759857178,-0.016864776611328125,0
-1.1693878173828125,-4.746852397918701,0.1674022674560547,0
-1.1231257915496826,-4.5360026359558105,0.37607288360595703,0
-1.156667709350586,-4.2233123779296875,0.5968961715698242,0
-1.1907448768615723,-3.8373169898986816,0.8603932857513428,0
-1.2727737426757812,-3.3227524757385254,1.1059343814849854,0
-1.347046136856079,-2.7414064407348633,1.2963266372680664,0
-1.352860689163208,-2.064054489135742,1.5159952640533447,0
-1.0133379697799683,-1.3212251663208008,1.710008144378662,0
-0.87934410572052,-0.5378437042236328,1.4155690670013428,0
-0.17589408159255981,0.5314216613769531,0.983060359954834,0
0.5562839508056641,2.0001564025878906,0.3938164710998535,0
1.2370905876159668,3.8784589767456055,0.40096521377563477,0
2.0411338806152344,6.194766044616699,1.1423962116241455,0
2.3014707565307617,8.644402503967285,2.897233486175537,0
1.5146429538726807,10.16142749786377,5.172931671142578,0
1.1834250688552856,10.118380546569824,7.037380218505859,0
0.8428170680999756,9.412130355834961,8.184307098388672,0
0.5321395397186279,8.592267990112305,8.31532096862793,0
0.4806206226348877,7.4909467697143555,7.847769260406494,0
0.5254333019256592,5.694772720336914,7.146734714508057,0
0.47187578678131104,3.0927505493164062,6.71760892868042,0
0.6301579475402832,-0.6288166046142578,6.129359245300293,0
0.6809892654418945,-4.279026031494141,4.987201690673828,0
0.22160184383392334,-5.810334205627441,3.2595858573913574,0
0.15767252445220947,-5.371456623077393,0.9556393623352051,0
-0.01020348072052002,-2.9617772102355957,-1.0731267929077148,0
0.06046700477600098,0.05524444580078125,-1.5222692489624023,0
0.2132817506790161,2.807178497314453,-2.544862747192383,0
0.08639359474182129,5.244279861450195,-4.411801338195801,0
-0.12811338901519775,7.100567817687988,-5.847230911254883,0
-1.0296106338500977,8.22508716583252,-6.766060829162598,0
-2.2416179180145264,8.415328025817871,-6.1800642013549805,0
-3.437743663787842,7.901947021484375,-5.274550914764404,0
-4.731394290924072,6.884079933166504,-4.749471664428711,0
-6.133411407470703,5.991576194763184,-4.2161078453063965,0
-7.261631011962891,5.5909929275512695,-3.3893847465515137,0
-7.290604591369629,5.478339195251465,-1.9247219562530518,0
-6.332459926605225,5.650114059448242,0.09122323989868164,0
-5.457142353057861,5.916426658630371,0.982269287109375,0
-3.9705348014831543,5.592474937438965,1.3134427070617676,0
-2.6128602027893066,4.24976921081543,1.2389945983886719,0
-1.8019130229949951,2.2866029739379883,0.42332887649536133,0
-1.9729397296905518,0.42673587799072266,-1.4898509979248047,0
-2.4300336837768555,-0.9358329772949219,-3.379455089569092,0
-2.8314476013183594,-1.5620031356811523,-4.600480556488037,0
-2.839778423309326,-1.5223164558410645,-5.041684150695801,0
-2.6767289638519287,-1.1263008117675781,-5.218189239501953,0
-2.4634480476379395,-0.7122354507446289,-5.270625114440918,0
-1.9197300672531128,-0.2622232437133789,-5.216327667236328,0
-1.2320737838745117,0.1503925323486328,-5.1595964431762695,0
-0.45018303394317627,0.5232639312744141,-4.977316379547119,0
0.4220125675201416,0.8005924224853516,-4.606807231903076,0
1.0540120601654053,0.7854728698730469,-4.375207424163818,0
1.154201865196228,0.49918651580810547,-4.409146308898926,0
0.9106106758117676,-0.06794261932373047,-4.2880730628967285,0
0.8171849250793457,-0.6863431930541992,-4.250470161437988,0
0.48692870140075684,-1.1215038299560547,-4.419025421142578,0
-0.009488105773925781,-1.2176241874694824,-4.551924705505371,0
-0.4417785406112671,-0.9097986221313477,-4.434428691864014,0
-0.6532517671585083,-0.3964071273803711,-4.030608177185059,0
-0.6570204496383667,0.1504058837890625,-3.2814998626708984,0
-0.5657476186752319,0.47475528717041016,-2.361179828643799,0
-0.3482847213745117,0.5743379592895508,-1.4142227172851562,0
0.03728127479553223,0.4230060577392578,-0.7505660057067871,0
0.37073421478271484,0.19330596923828125,-0.5180690288543701,0
0.7508015632629395,-0.04989147186279297,-0.5925183296203613,0
1.0184968709945679,-0.4044790267944336,-0.8021843433380127,0
1.2829773426055908,-0.7529926300048828,-1.0093607902526855,0
1.2822946310043335,-1.0283918380737305,-1.124125599861145,0
1.1754977703094482,-1.245142936706543,-1.1662945747375488,0
0.9422119855880737,-1.4393773078918457,-1.0931227207183838,0
0.719672441482544,-1.690232276916504,-1.088965654373169,0
0.40579140186309814,-1.9835882186889648,-0.9956772327423096,0
0.1516362428665161,-2.30764102935791,-0.94704270362854,0
-0.04750561714172363,-2.4662818908691406,-1.0485589504241943,0
-0.13191461563110352,-2.450153350830078,-1.0468286275863647,0
-0.15016496181488037,-2.307244300842285,-1.0112639665603638,0
-0.23663341999053955,-2.064091682434082,-1.001273274421692,0
-0.30055224895477295,-1.706594467163086,-1.0450356006622314,0
-0.4090512990951538,-1.3760271072387695,-1.202006220817566,0
-0.5552513599395752,-1.096170425415039,-1.429152488708496,0
-0.6795558929443359,-0.7760934829711914,-1.5015015602111816,0
-0.7175190448760986,-0.4279060363769531,-1.531161904335022,0
-0.7533153295516968,-0.28592872619628906,-1.6256283521652222,0
-0.7946064472198486,-0.2660942077636719,-1.5936086177825928,0
-0.7868396043777466,-0.28924560546875,-1.437679648399353,0
-0.6588866710662842,-0.3551645278930664,-1.268271803855896,0
-0.5571030378341675,-0.4947977066040039,-1.0305070877075195,0
-0.28776490688323975,-0.7439823150634766,-0.7122780084609985,0
-0.06621778011322021,-0.9902629852294922,-0.5071431398391724,0
0.04294395446777344,-1.2265052795410156,-0.39799070358276367,0
0.1568608283996582,-1.3450889587402344,-0.29623305797576904,0
0.35941314697265625,-1.4275074005126953,-0.24007892608642578,0
0.37319695949554443,-1.4165229797363281,-0.1883295774459839,0
0.45162153244018555,-1.2500486373901367,-0.22929000854492188,0
0.6352198123931885,-1.148284912109375,-0.14025282859802246,0
0.5525895357131958,-1.082366943359375,-0.19369912147521973,0
0.5170300006866455,-0.9398002624511719,-0.2053539752960205,0
0.5215232372283936,-0.9526433944702148,-0.19918835163116455,0
0.42758989334106445,-0.9270772933959961,-0.010119438171386719,0
0.3316766023635864,-1.104776382446289,0.19434022903442383,0
0.24348163604736328,-1.1626262664794922,0.20328521728515625,0
0.30176281929016113,-1.2059078216552734,0.17417705059051514,0
0.3028407096862793,-1.2321491241455078,0.09714114665985107,0
0.23239731788635254,-1.2294073104858398,0.12763285636901855,0
0.18169379234313965,-1.185816764831543,0.15070080757141113,0
0.10550558567047119,-1.1325254440307617,0.1756671667098999,0
0.06851959228515625,-1.0647506713867188,0.17111563682556152,0
0.030065417289733887,-0.9920673370361328,0.08669126033782959,0
-0.02422463893890381,-0.8188552856445312,0.08756273984909058,0
-0.12313210964202881,-0.7412967681884766,0.06360352039337158,0
-0.14939355850219727,-0.6349334716796875,0.0026953816413879395,0
-0.15078318119049072,-0.5285167694091797,-0.02829807996749878,0
-0.08428728580474854,-0.5225086212158203,0.13583523035049438,0
-0.019493699073791504,-0.5498409271240234,0.26566195487976074,0
0.024403929710388184,-0.6391544342041016,0.313334584236145,0
0.1523280143737793,-0.7353382110595703,0.29816704988479614,0
0.270480751991272,-0.8096303939819336,0.26816606521606445,0
0.390541672706604,-0.8213901519775391,0.24510955810546875,0
0.4911879301071167,-0.8807306289672852,0.21002358198165894,0
0.5223456621170044,-0.8560905456542969,0.15317237377166748,0
0.5580397844314575,-0.6590633392333984,0.08136475086212158,0
0.5743452310562134,-0.6222133636474609,0.03244674205780029,0
0.6812311410903931,-0.47275829315185547,0.044496744871139526,0
0.7014939785003662,-0.40452098846435547,0.06269752979278564,0
0.6566388607025146,-0.2930564880371094,-0.03261411190032959,0
0.6256453990936279,-0.09539222717285156,-0.11452306807041168,0
0.6181131601333618,0.013780593872070312,-0.18974186480045319,0
0.48572397232055664,0.16606807708740234,-0.21238723397254944,0
0.3819246292114258,0.33984947204589844,-0.17490223050117493,0
0.32855236530303955,0.4704856872558594,-0.07932958006858826,0
0.3117656707763672,0.5890445709228516,0.10064530372619629,0
0.2935056686401367,0.795954704284668,0.15398181974887848,0
0.3194175958633423,0.9237098693847656,0.1926632523536682,0
0.4110288619995117,1.084792137145996,0.23772713541984558,0
0.4867517948150635,1.1333246231079102,0.29145872592926025,0
0.5583512783050537,1.205765724182129,0.298697829246521,0
0.7094268798828125,1.2686147689819336,0.34316280484199524,0
0.8753452301025391,1.2836179733276367,0.42006778717041016,0
1.008053183555603,1.2628107070922852,0.4432605504989624,0
1.1937575340270996,1.2181758880615234,0.5179963111877441,0
1.3152008056640625,1.2956018447875977,0.6107523441314697,0
1.4922224283218384,1.3275346755981445,0.817460298538208,0
1.6461925506591797,1.1968374252319336,1.0426079034805298,0
1.6764253377914429,1.4943342208862305,1.1181973218917847,0
1.939387559890747,1.6838607788085938,1.2231578826904297,0
2.047211170196533,1.7727336883544922,1.256700038909912,0
2.1619887351989746,1.7539548873901367,1.2473102807998657,0
2.288012742996216,1.692251205444336,1.3457809686660767,0
2.4153571128845215,1.5685625076293945,1.3917101621627808,0
2.5628161430358887,1.6125097274780273,1.1742701530456543,0
2.7564034461975098,1.6827898025512695,0.9131705164909363,0
2.82566237449646,1.9802160263061523,0.43276870250701904,0
2.8200769424438477,2.5212650299072266,-0.0739605724811554,0
2.796506404876709,3.092855453491211,-0.28667089343070984,0
2.5966155529022217,3.479823112487793,-0.0875580906867981,0
2.474027156829834,3.7469911575317383,0.19369661808013916,0
2.4698586463928223,3.6960277557373047,0.44027432799339294,0
2.5246622562408447,3.509023666381836,0.45818892121315,0
2.676851749420166,3.2028703689575195,0.27057600021362305,0
2.6680471897125244,2.890122413635254,-0.029890283942222595,0
2.70656156539917,2.5254087448120117,-0.2638663649559021,0
2.67474627494812,2.044343948364258,-0.38577932119369507,0
2.6544554233551025,1.688619613647461,-0.5078739523887634,0
2.608419418334961,1.4748201370239258,-0.7476182579994202,0
2.317324638366699,1.3932428359985352,-1.0527536869049072,0
1.975987434387207,1.2142133712768555,-1.2679908275604248,0
1.5321396589279175,1.0359954833984375,-1.4538447856903076,0
1.0771417617797852,0.8324146270751953,-1.7427401542663574,0
0.7123979926109314,0.7637948989868164,-1.9361240863800049,0
0.20397132635116577,0.5264606475830078,-2.170927047729492,0
-0.37818026542663574,0.4388113021850586,-2.3369758129119873,0
-0.8416580557823181,0.3190164566040039,-2.3856616020202637,0
-1.4970325231552124,0.15285778045654297,-2.308573007583618,0
-2.082970142364502,0.04076194763183594,-2.0102593898773193,0
-2.5943760871887207,-0.05573558807373047,-1.59389328956604,0
-2.990278482437134,-0.24200916290283203,-1.1633602380752563,0
-3.2253384590148926,-0.35060787200927734,-0.7302807569503784,0
-3.4606106281280518,-0.29552745819091797,-0.3182053565979004,0
-3.5301530361175537,-0.07701873779296875,0.06453490257263184,0
-3.4146008491516113,-0.011106491088867188,0.41039514541625977,0
-3.1307101249694824,0.10294818878173828,0.6593953371047974,0
-2.7616257667541504,0.17623233795166016,0.8420510292053223,0
-2.22672176361084,0.1845569610595703,0.7677698135375977,0
-1.7674858570098877,0.1565532684326172,0.40271079540252686,0
-1.3377304077148438,0.1186370849609375,-0.201818585395813,0
-1.1133341789245605,0.1165924072265625,-0.9191188812255859,0
-1.0448224544525146,0.16297054290771484,-1.6069825887680054,0
-1.1567935943603516,0.2871522903442383,-2.1400859355926514,0
-1.4240586757659912,0.4514427185058594,-2.380256175994873,0
-1.6260359287261963,0.696833610534668,-2.371894359588623,0
-1.4441308975219727,0.8868856430053711,-2.1598455905914307,0
-1.0531213283538818,1.0786981582641602,-1.8307384252548218,0
-0.7521299719810486,1.3028898239135742,-1.645450234413147,0
-0.5989471673965454,1.382211685180664,-1.6956225633621216,0
-0.6114720702171326,1.4364013671875,-1.808294415473938,0
-0.706691563129425,1.4057998657226562,-1.9761823415756226,0
-0.864047646522522,1.1806011199951172,-2.00787353515625,0
-1.1160227060317993,0.8924560546875,-1.8359414339065552,0
-1.2272586822509766,0.4525632858276367,-1.3899176120758057,0
-1.3159475326538086,0.013688087463378906,-1.020434856414795,0
-1.3540914058685303,-0.44838428497314453,-0.8511176109313965,0
-1.4354170560836792,-0.8454618453979492,-0.7305574417114258,0
-1.5122255086898804,-1.2041845321655273,-0.684675931930542,0
-1.5006588697433472,-1.472193717956543,-0.6941251754760742,0
-1.5628457069396973,-1.7311172485351562,-0.7778339385986328,0
-1.2834203243255615,-1.8973846435546875,-0.9885616302490234,0
-1.2525556087493896,-2.1622767448425293,-1.3052763938903809,0
-1.2874109745025635,-2.4824490547180176,-1.5587894916534424,0
-1.202547550201416,-2.9104104042053223,-1.6180424690246582,0
-1.0421030521392822,-3.281014919281006,-1.7179749011993408,0
-1.1284247636795044,-3.5751280784606934,-1.9162721633911133,0
-1.1423101425170898,-3.8552088737487793,-1.8874316215515137,0
-1.185851812362671,-4.128615379333496,-1.9950387477874756,0
-1.2398157119750977,-4.292684555053711,-2.0235393047332764,0
-1.2809112071990967,-4.175529479980469,-2.0014755725860596,0
-1.0762521028518677,-3.749265193939209,-1.727104663848877,0
-0.9213011264801025,-3.32554292678833,-1.4940452575683594,0
-0.8220535516738892,-2.8040928840637207,-1.3258686065673828,0
-0.6524498462677002,-2.412295341491699,-1.2558541297912598,0
-0.666653037071228,-2.2266464233398438,-1.2143495082855225,0
-0.5820248126983643,-2.4001712799072266,-1.3085994720458984,0
-0.6300951242446899,-2.5884385108947754,-1.4399375915527344,0
-0.6979929208755493,-2.762880802154541,-1.5651283264160156,0
-0.7665989398956299,-2.952181816101074,-1.6508119106292725,0
-0.8646072149276733,-3.1491146087646484,-1.7114815711975098,0
-0.8941513299942017,-3.317927360534668,-1.6512761116027832,0
-0.8364853858947754,-3.487417221069336,-1.5634205341339111,0
-0.8663729429244995,-3.6838231086730957,-1.5579853057861328,0
-0.955138087272644,-3.8878116607666016,-1.5131406784057617,0
-1.0143108367919922,-3.9987707138061523,-1.460223913192749,0
-1.156426191329956,-4.1481757164001465,-1.3037443161010742,0
-1.2262320518493652,-4.27841854095459,-1.0965766906738281,0
-1.2361043691635132,-4.387014865875244,-0.7694427967071533,0
-1.2725067138671875,-4.459437847137451,-0.41352224349975586,0
-1.2662100791931152,-4.383137226104736,-0.00989389419555664,0
-1.2795298099517822,-4.28477144241333,0.4483036994934082,0
-1.3483388423919678,-4.080495357513428,0.970456600189209,0
-1.4169186353683472,-3.796489715576172,1.455718994140625,0
-1.5107553005218506,-3.4325432777404785,1.9920992851257324,0
-1.402118444442749,-2.911583423614502,2.310438632965088,0
-1.1694631576538086,-2.3309240341186523,2.511803150177002,0
-0.7014777660369873,-1.7684378623962402,2.6294233798980713,0
-0.10996532440185547,-1.1414222717285156,2.490021228790283,0
0.5199377536773682,-0.285919189453125,2.2213504314422607,0
1.0409340858459473,0.6747398376464844,1.7383558750152588,0
1.5570156574249268,1.8465957641601562,1.567021131515503,0
2.2543511390686035,3.3515539169311523,1.715578317642212,0
2.594804286956787,4.811363220214844,2.0429184436798096,0
2.429945945739746,6.120364189147949,2.5746965408325195,0
2.021646738052368,7.13900089263916,3.3521876335144043,0
1.6790152788162231,7.393069267272949,4.20836877822876,0
1.2225892543792725,7.202736854553223,5.132044792175293,0
0.7956041097640991,6.445286750793457,5.855891227722168,0
0.25495386123657227,5.232707977294922,6.391778945922852,0
0.005407929420471191,3.662407875061035,6.636757850646973,0
-0.04230546951293945,1.5398187637329102,6.6916022300720215,0
-0.12617039680480957,-1.0107030868530273,6.124654293060303,0
0.00902646780014038,-3.500831127166748,4.974299430847168,0
-0.02751326560974121,-4.770462512969971,3.355001926422119,0
-0.005708098411560059,-4.6796650886535645,1.4605979919433594,0
0.017796695232391357,-2.9094910621643066,-0.26402950286865234,0
0.12040477991104126,-0.6887569427490234,-1.1634819507598877,0
0.23514753580093384,1.523533821105957,-2.208080768585205,0
0.05062723159790039,3.6452484130859375,-3.53842830657959,0
-0.4127906858921051,5.574344635009766,-4.9749250411987305,0
-0.6585487127304077,7.236886024475098,-5.3329315185546875,0
-1.0394107103347778,8.209555625915527,-4.601057529449463,0
-1.8011412620544434,8.560373306274414,-3.5492801666259766,0
-3.1313729286193848,8.68772029876709,-2.944960355758667,0
-4.767231464385986,8.144601821899414,-3.113009452819824,0
-6.362674236297607,7.778511047363281,-3.6571078300476074,0
-7.511718273162842,8.150343894958496,-4.230517864227295,0
-8.156678199768066,9.358244895935059,-4.158449172973633,0
-7.958756446838379,10.490680694580078,-2.7953758239746094,0
-5.756940841674805,9.603854179382324,-0.23769068717956543,0
-3.802074432373047,6.885167121887207,1.0795948505401611,0
-2.45888352394104,4.030242919921875,1.600132942199707,0
-1.7766046524047852,1.352198600769043,0.9804394245147705,0
-1.8392455577850342,-0.7021913528442383,-0.7664594650268555,0
-2.3461782932281494,-1.7774744033813477,-2.7293930053710938,0
-2.344360113143921,-1.9913005828857422,-3.872836112976074,0
-1.9405512809753418,-1.7406988143920898,-4.396479606628418,0
-1.5583009719848633,-1.4268951416015625,-4.626420497894287,0
-0.9987778067588806,-1.2262029647827148,-4.729794025421143,0
-0.5428575873374939,-0.9519233703613281,-4.582289695739746,0
-0.35603195428848267,-0.8745908737182617,-4.390774250030518,0
0.14234530925750732,-1.0280961990356445,-4.231653690338135,0
0.6815379858016968,-1.2837767601013184,-4.183460235595703,0
0.9868794679641724,-1.6633648872375488,-4.380669593811035,0
1.229905128479004,-1.9730238914489746,-4.693201541900635,0
1.2237029075622559,-2.1550846099853516,-5.037522315979004,0
1.0240435600280762,-2.036970615386963,-5.369237899780273,0
0.6788084506988525,-1.7261772155761719,-5.407614231109619,0
0.19499731063842773,-1.1866302490234375,-5.109006404876709,0
-0.33973240852355957,-0.5640316009521484,-4.587620258331299,0
-0.5180469751358032,0.1681203842163086,-3.6796984672546387,0
-0.33057618141174316,0.5842313766479492,-2.7328736782073975,0
-0.08435487747192383,0.689692497253418,-1.9029541015625,0
0.14825153350830078,0.5019083023071289,-1.3888378143310547,0
0.5277072191238403,0.2151336669921875,-1.1526457071304321,0
0.8466455936431885,-0.1631622314453125,-1.1807554960250854,0
1.0634666681289673,-0.6853475570678711,-1.4048749208450317,0
1.2009387016296387,-1.2005510330200195,-1.5749101638793945,0
1.1353839635849,-1.7135663032531738,-1.6200779676437378,0
1.1523910760879517,-2.2676258087158203,-1.4428473711013794,0
1.0922808647155762,-2.7983627319335938,-1.2874362468719482,0
0.8907932043075562,-3.1625723838806152,-1.1463911533355713,0
0.6819392442703247,-3.384572982788086,-1.1292834281921387,0
0.42230069637298584,-3.514946460723877,-1.1108894348144531,0
0.09956812858581543,-3.374642848968506,-1.147789716720581,0
-0.12156736850738525,-3.0669775009155273,-1.2294899225234985,0
-0.26296114921569824,-2.5826892852783203,-1.4223698377609253,0
-0.4637610912322998,-2.1229372024536133,-1.4888752698898315,0
-0.6264353394508362,-1.7379117012023926,-1.5171018838882446,0
-0.7783101201057434,-1.2504606246948242,-1.516380786895752,0
-0.7958657145500183,-0.8949556350708008,-1.3955923318862915,0
-0.809110701084137,-0.5969324111938477,-1.3273743391036987,0
-0.5459872484207153,-0.46616554260253906,-1.1422584056854248,0
-0.3152817487716675,-0.5573596954345703,-0.8266914486885071,0
-0.2771807909011841,-0.5880699157714844,-0.3953819274902344,0
-0.23250865936279297,-0.7066822052001953,-0.06632161140441895,0
-0.09942054748535156,-0.8175373077392578,0.11742746829986572,0
0.14371979236602783,-0.7628278732299805,0.10298335552215576,0
0.4589364528656006,-0.6791353225708008,0.175018310546875,0
0.7411240339279175,-0.5856809616088867,0.20428895950317383,0
0.896977424621582,-0.47054004669189453,0.16221606731414795,0
0.9625167846679688,-0.2955770492553711,0.17866766452789307,0
1.0477964878082275,-0.20202064514160156,0.19209647178649902,0
1.1244264841079712,-0.28313732147216797,0.23654109239578247,0
1.1400220394134521,-0.4144124984741211,0.24270832538604736,0
1.2023299932479858,-0.643589973449707,0.22474545240402222,0
1.2896322011947632,-0.8700895309448242,0.22323256731033325,0
1.2343511581420898,-1.1154413223266602,0.23373597860336304,0
1.146443247795105,-1.272017478942871,0.29248881340026855,0
1.0691355466842651,-1.430826187133789,0.3638231158256531,0
0.9189833402633667,-1.5201587677001953,0.39033573865890503,0
0.7269787788391113,-1.5854682922363281,0.3932756781578064,0
0.6606439352035522,-1.643509864807129,0.3843134045600891,0
0.6075012683868408,-1.6775493621826172,0.4614439010620117,0
0.5122822523117065,-1.6086921691894531,0.5579345226287842,0
0.4417353868484497,-1.4465923309326172,0.5352200865745544,0
0.3645824193954468,-1.3132734298706055,0.48658469319343567,0
0.3668266534805298,-1.1106300354003906,0.31610506772994995,0
0.40529370307922363,-0.8985099792480469,0.1456044614315033,0
0.36730170249938965,-0.782099723815918,0.11617422103881836,0
0.33164334297180176,-0.6679935455322266,0.007471293210983276,0
0.2884558439254761,-0.6015729904174805,-0.12582023441791534,0
0.35723769664764404,-0.4656181335449219,-0.20725606381893158,0
0.38707494735717773,-0.4443321228027344,-0.13379094004631042,0
0.5048433542251587,-0.47782230377197266,0.034927964210510254,0
0.5190186500549316,-0.5253667831420898,0.03571227192878723,0
0.5635643005371094,-0.6084604263305664,0.040730275213718414,0
0.6191321611404419,-0.6840076446533203,0.013954073190689087,0
0.6883590221405029,-0.5775089263916016,-0.15963418781757355,0
0.7570534944534302,-0.36334705352783203,-0.2598223388195038,0
0.7345269918441772,-0.14450645446777344,-0.18841244280338287,0
0.6976171731948853,0.1028890609741211,-0.09376230835914612,0
0.5771838426589966,0.33095550537109375,0.07461531460285187,0
0.45738255977630615,0.49903202056884766,0.35046011209487915,0
0.4101961851119995,0.7171649932861328,0.6837546825408936,0
0.30902326107025146,0.8800630569458008,0.9452695250511169,0
0.3311833143234253,0.997344970703125,1.212023138999939,0
0.4240459203720093,1.0140724182128906,1.390696406364441,0
0.5754758715629578,1.0595035552978516,1.397376298904419,0
0.8429021239280701,1.1359796524047852,1.344228982925415,0
1.0919973850250244,1.3606328964233398,1.1874918937683105,0
1.4828920364379883,1.7452125549316406,1.1058707237243652,0
1.7997506856918335,2.2082271575927734,1.0293452739715576,0
2.150052785873413,2.6491308212280273,1.0194655656814575,0
2.4544477462768555,3.0607690811157227,1.1210774183273315,0
2.645463466644287,3.4431753158569336,1.2761456966400146,0
2.866497755050659,3.593111038208008,1.474589467048645,0
3.074180841445923,3.649533271789551,1.6562471389770508,0
3.232398509979248,3.559926986694336,1.7131102085113525,0
3.3721566200256348,3.345996856689453,1.707507610321045,0
3.4523003101348877,3.1609363555908203,1.5267448425292969,0
3.493872880935669,3.0358152389526367,1.2136281728744507,0
3.575258255004883,3.0327539443969727,0.8969514966011047,0
3.5139713287353516,3.223407745361328,0.641209602355957,0
3.405205249786377,3.456998825073242,0.5998224020004272,0
3.3012423515319824,3.7049036026000977,0.7592617273330688,0
3.2044379711151123,3.888284683227539,0.912087082862854,0
3.048187255859375,3.8111934661865234,0.9293620586395264,0
3.0005404949188232,3.562424659729004,0.7317250370979309,0
3.03362774848938,3.2330474853515625,0.28975391387939453,0
3.1293368339538574,2.8040266036987305,-0.20569519698619843,0
3.130350351333618,2.550530433654785,-0.656887412071228,0
3.152348041534424,2.3002405166625977,-1.0926539897918701,0
2.9737584590911865,2.1106061935424805,-1.4796632528305054,0
2.6456241607666016,1.8740453720092773,-1.798471450805664,0
2.1305572986602783,1.2989606857299805,-1.9668359756469727,0
1.304572582244873,0.6919574737548828,-2.3723554611206055,0
0.5682371258735657,0.022065162658691406,-2.7833192348480225,0
-0.2136715054512024,-0.6555757522583008,-3.1284587383270264,0
-0.8194539546966553,-1.22137451171875,-3.245361804962158,0
-1.5209174156188965,-1.7351036071777344,-3.1228113174438477,0
-2.3126773834228516,-2.1870574951171875,-2.6893410682678223,0
-3.0072827339172363,-2.529489040374756,-1.9910778999328613,0
-3.6358370780944824,-2.537881374359131,-1.1711674928665161,0
-4.139186859130859,-2.2821578979492188,-0.4516634941101074,0
-4.344423294067383,-1.8489079475402832,0.09835326671600342,0
-4.2975006103515625,-1.1524477005004883,0.4501535892486572,0
-4.126413345336914,-0.4036388397216797,0.6554800271987915,0
-3.6482651233673096,0.3351917266845703,0.7557343244552612,0
-2.973330020904541,0.9157752990722656,0.815096378326416,0
-2.188666343688965,1.3671159744262695,0.6812586784362793,0
-1.7275739908218384,1.6584758758544922,0.5033211708068848,0
-1.5035539865493774,1.8786344528198242,0.3041191101074219,0
-1.4146912097930908,2.058903694152832,0.01299905776977539,0
-1.5284368991851807,2.237743377685547,-0.33772099018096924,0
-1.8978559970855713,2.4008712768554688,-0.5932109355926514,0
-2.4634387493133545,2.522054672241211,-0.9071719646453857,0
-3.067678213119507,2.50576114654541,-1.1557058095932007,0
-3.2490997314453125,2.431025505065918,-1.3677654266357422,0
-2.957982063293457,2.1998043060302734,-1.4860293865203857,0
-2.6942124366760254,2.0559768676757812,-1.6220976114273071,0
-2.41441011428833,1.908482551574707,-1.8323863744735718,0
-1.747295618057251,1.692683219909668,-2.01566743850708,0
-1.0458215475082397,1.652571678161621,-2.1407511234283447,0
-0.4833127558231354,1.5704879760742188,-2.258169174194336,0
-0.15148356556892395,1.2122764587402344,-2.2939939498901367,0
0.0855678915977478,0.7191829681396484,-2.250133514404297,0
0.23417696356773376,0.016828536987304688,-1.9222668409347534,0
0.3486873209476471,-0.4741506576538086,-1.598954439163208,0
0.4359542429447174,-0.8569726943969727,-1.6243762969970703,0
0.4169745147228241,-1.174941062927246,-1.7039101123809814,0
0.27977487444877625,-1.576517105102539,-1.7728490829467773,0
0.12271326780319214,-1.9040307998657227,-1.723283290863037,0
0.07527357339859009,-2.1483511924743652,-1.7150607109069824,0
0.011264234781265259,-2.5394272804260254,-1.800384759902954,0
-0.1570301651954651,-2.9934802055358887,-1.9003527164459229,0
-0.3452088534832001,-3.4889211654663086,-2.022382974624634,0
-0.4952373802661896,-3.9611382484436035,-2.128446578979492,0
-0.5656142234802246,-4.6206374168396,-2.194798469543457,0
-0.6728600263595581,-5.268824100494385,-2.231074810028076,0
-0.7369837164878845,-5.731201171875,-2.2327024936676025,0
-0.9417464733123779,-6.022489070892334,-2.2761261463165283,0
-1.0621049404144287,-5.985062599182129,-2.289750814437866,0
-1.0748237371444702,-5.612030029296875,-2.228484630584717,0
-1.0264930725097656,-4.879849433898926,-1.9873013496398926,0
-1.0401259660720825,-4.068881034851074,-1.7167770862579346,0
-1.0921846628189087,-3.3928046226501465,-1.5327026844024658,0
-1.1465041637420654,-3.0434112548828125,-1.5916516780853271,0
-1.1863765716552734,-2.9271140098571777,-1.7617652416229248,0
-1.3025496006011963,-2.983895778656006,-1.9281141757965088,0
-1.2822747230529785,-3.0627622604370117,-2.0622942447662354,0
-1.3005393743515015,-3.230288028717041,-2.1984615325927734,0
-1.187551498413086,-3.3809642791748047,-2.21500563621521,0
-1.0896497964859009,-3.4381608963012695,-2.1314172744750977,0
-0.9234167337417603,-3.452155590057373,-2.0339393615722656,0
-0.7942825555801392,-3.5209431648254395,-1.8916194438934326,0
-0.6304949522018433,-3.565333843231201,-1.6905076503753662,0
-0.5730416774749756,-3.6663742065429688,-1.4311504364013672,0
-0.485604465007782,-3.6948018074035645,-1.0706353187561035,0
-0.3685131072998047,-3.712886333465576,-0.5898420810699463,0
-0.42059528827667236,-3.734814167022705,-0.16847705841064453,0
-0.5447539687156677,-3.7819433212280273,0.19338703155517578,0
-0.45287567377090454,-3.5937042236328125,0.4866366386413574,0
-0.5493656396865845,-3.5886573791503906,0.6178927421569824,0
-0.6376417279243469,-3.4912590980529785,0.7780828475952148,0
-0.8009859323501587,-3.23903226852417,1.01422119140625,0
-0.9033268094062805,-2.793400287628174,1.2678804397583008,0
-0.830148458480835,-2.2784056663513184,1.5690760612487793,0
-0.9334850907325745,-1.7367305755615234,1.7757887840270996,0
-0.9046355485916138,-1.0867748260498047,1.9185123443603516,0
-0.6258670091629028,-0.5480966567993164,1.962531328201294,0
0.3598855137825012,0.025842666625976562,1.8943426609039307,0
1.1715219020843506,0.6711835861206055,1.780195951461792,0
2.2199766635894775,1.4426803588867188,1.7611396312713623,0
2.810185432434082,2.433450698852539,1.6668813228607178,0
2.9156715869903564,3.6981468200683594,1.992577314376831,0
2.6038947105407715,5.0140533447265625,2.6825690269470215,0
1.8143823146820068,6.04638671875,3.54468035697937,0
1.0993566513061523,6.317049980163574,4.569220066070557,0
0.5099591016769409,5.967263221740723,5.783902168273926,0
0.09432625770568848,5.355445861816406,6.875124931335449,0
-0.19999682903289795,4.8166399002075195,7.364781379699707,0
-0.1906237006187439,4.366971015930176,6.514941692352295,0
0.004781961441040039,3.9135332107543945,4.5784735679626465,0
0.04074966907501221,3.8599796295166016,2.5035433769226074,0
-0.5854593515396118,5.296003341674805,2.4265716075897217,0
-1.0146898031234741,7.357535362243652,3.104586601257324,0
-1.4235999584197998,9.499588966369629,2.031619071960449,0
-1.7477092742919922,11.014102935791016,-0.22843647003173828,0
-2.0542328357696533,11.90853500366211,-1.792888879776001,0
-1.7731120586395264,11.59067440032959,-2.6247787475585938,0
-1.9332106113433838,9.567052841186523,-3.5773682594299316,0
-2.765427589416504,6.830641746520996,-4.612402439117432,0
-4.560271739959717,4.38979434967041,-4.892662048339844,0
-6.56633186340332,2.6947240829467773,-4.460654258728027,0
-7.565515518188477,1.3871498107910156,-3.598574161529541,0
-7.40692663192749,0.2993936538696289,-2.642585277557373,0
-6.969777584075928,0.3038444519042969,-0.6595282554626465,0
-5.703813552856445,0.5550546646118164,0.3487119674682617,0
-3.6720285415649414,0.6218137741088867,0.5431699752807617,0
-1.8856433629989624,0.4331808090209961,0.2165508270263672,0
-1.2319092750549316,-0.0754690170288086,-0.6768829822540283,0
-1.2659337520599365,-0.8999643325805664,-1.8233997821807861,0
-1.3941534757614136,-1.6817550659179688,-2.9757096767425537,0
-1.450569987297058,-1.9481568336486816,-3.7528328895568848,0
-1.212308645248413,-1.5398774147033691,-4.119420528411865,0
-0.8070687055587769,-0.7052717208862305,-4.219482421875,0
-0.22565707564353943,0.14173603057861328,-4.223283290863037,0
0.7214009761810303,0.8621435165405273,-4.158545017242432,0
1.5739089250564575,1.470017433166504,-4.081350803375244,0
2.274052143096924,1.7786264419555664,-3.9616832733154297,0
2.441330909729004,1.7141942977905273,-3.9830586910247803,0
2.516148805618286,1.366002082824707,-4.0594401359558105,0
2.4521141052246094,0.9669685363769531,-4.254210948944092,0
2.2885398864746094,0.4652881622314453,-4.605363845825195,0
1.974105954170227,0.06042671203613281,-4.860018730163574,0
1.4614338874816895,-0.23252010345458984,-4.961950778961182,0
0.8544414043426514,-0.4416675567626953,-4.79708194732666,0
0.31260502338409424,-0.5214147567749023,-4.137476921081543,0
-0.12535691261291504,-0.5750246047973633,-3.1096909046173096,0
-0.4328601360321045,-0.6222801208496094,-1.9679553508758545,0
-0.5301147103309631,-0.7977190017700195,-1.0928479433059692,0
-0.6362771987915039,-1.0465984344482422,-0.5254156589508057,0
-0.6158878803253174,-1.2974348068237305,-0.2303917407989502,0
-0.5245168805122375,-1.7081565856933594,-0.12074875831604004,0
-0.5302928686141968,-2.142136573791504,-0.2728571891784668,0
-0.516096830368042,-2.5465798377990723,-0.5122358798980713,0
-0.4266374111175537,-2.830615997314453,-0.7768099308013916,0
-0.31398266553878784,-3.0302176475524902,-1.169753909111023,0
-0.19378876686096191,-3.1550493240356445,-1.6005432605743408,0
-0.15376543998718262,-3.0163626670837402,-1.86367928981781,0
-0.2557638883590698,-2.7747278213500977,-2.1052403450012207,0
-0.224700927734375,-2.540292739868164,-2.327516794204712,0
-0.2090442180633545,-2.23415470123291,-2.4061496257781982,0
-0.07752549648284912,-1.8060264587402344,-2.547548770904541,0
-0.11515951156616211,-1.4089899063110352,-2.53916072845459,0
-0.20499849319458008,-1.0381689071655273,-2.2736778259277344,0
-0.24901461601257324,-0.7341985702514648,-2.019200325012207,0
-0.30942797660827637,-0.48029327392578125,-1.7206711769104004,0
-0.29524946212768555,-0.3386993408203125,-1.3895704746246338,0
-0.31904298067092896,-0.26872730255126953,-1.2071361541748047,0
-0.34760165214538574,-0.3444404602050781,-1.134567379951477,0
-0.2852252721786499,-0.515477180480957,-1.0758715867996216,0
-0.18423664569854736,-0.5473737716674805,-1.0720694065093994,0
-0.16677343845367432,-0.7511014938354492,-1.008456826210022,0
0.05911886692047119,-0.9685964584350586,-0.8161337375640869,0
0.19935035705566406,-1.063614845275879,-0.6218535900115967,0
0.3829953670501709,-1.158233642578125,-0.37784385681152344,0
0.6914607286453247,-1.312159538269043,-0.18771302700042725,0
0.7058484554290771,-1.290898323059082,-0.05906212329864502,0
0.7233543395996094,-1.257314682006836,-0.09958946704864502,0
0.7898721694946289,-1.2306489944458008,-0.24927514791488647,0
0.8144227266311646,-1.1224231719970703,-0.4507048726081848,0
0.8615016937255859,-1.1192626953125,-0.5722578167915344,0
0.8301912546157837,-0.9412689208984375,-0.7069535851478577,0
0.8377412557601929,-0.7919960021972656,-0.7727946639060974,0
0.8195706605911255,-0.7002277374267578,-0.6037629246711731,0
0.7015576362609863,-0.6826972961425781,-0.44326454401016235,0
0.62027907371521,-0.7393016815185547,-0.3966336250305176,0
0.544582724571228,-0.7598781585693359,-0.38075727224349976,0
0.613070011138916,-0.8089914321899414,-0.28589093685150146,0
0.6889634132385254,-0.8339710235595703,-0.1597738265991211,0
0.7719564437866211,-0.9017810821533203,-0.07377886772155762,0
0.8331873416900635,-0.9884529113769531,0.0012199878692626953,0
0.7985906600952148,-0.9983301162719727,0.015376091003417969,0
0.7499662637710571,-0.9626560211181641,0.07931667566299438,0
0.6664737462997437,-0.9365634918212891,0.11444979906082153,0
0.4985538721084595,-0.9152965545654297,0.1087501049041748,0
0.3447796106338501,-0.9155759811401367,0.04498550295829773,0
0.22464871406555176,-0.913456916809082,-0.05118834972381592,0
0.12190568447113037,-0.8515701293945312,-0.0778166651725769,0
-0.04461801052093506,-0.7538909912109375,-0.08121153712272644,0
-0.16010832786560059,-0.7256546020507812,0.002544194459915161,0
-0.23175090551376343,-0.5420169830322266,0.17798283696174622,0
-0.25966376066207886,-0.4279327392578125,0.3924521505832672,0
-0.32778871059417725,-0.28525733947753906,0.52620929479599,0
-0.3166084885597229,-0.07336616516113281,0.6461479663848877,0
-0.33186084032058716,0.23639202117919922,0.6969682574272156,0
-0.3284881114959717,0.5793628692626953,0.654334306716919,0
-0.19198620319366455,0.8790063858032227,0.6787124872207642,0
-0.054582834243774414,1.1497726440429688,0.8348890542984009,0
-0.005600869655609131,1.3415603637695312,0.9150390625,0
0.08333474397659302,1.5334415435791016,1.0509207248687744,0
0.21381086111068726,1.8019533157348633,0.9622805118560791,0
0.35676658153533936,1.9891653060913086,0.9264557361602783,0
0.4352205991744995,1.9708433151245117,1.0487391948699951,0
0.5758590698242188,1.9504461288452148,1.0657949447631836,0
0.7979147434234619,1.858591079711914,1.0855895280838013,0
1.063204050064087,1.7264118194580078,1.1824264526367188,0
1.2978626489639282,1.5849905014038086,1.1936588287353516,0
1.571613073348999,1.3912458419799805,1.16713547706604,0
1.8341851234436035,1.2671737670898438,1.1794843673706055,0
2.143232822418213,1.234175682067871,1.1996967792510986,0
2.2906651496887207,1.2371273040771484,1.25171959400177,0
2.4344656467437744,1.3285799026489258,1.314016342163086,0
2.646448850631714,1.3506059646606445,1.4226949214935303,0
2.8716516494750977,1.5208473205566406,1.4530909061431885,0
2.9617631435394287,1.7314863204956055,1.4575252532958984,0
3.045944929122925,1.8030977249145508,1.3804545402526855,0
3.164808750152588,1.8960304260253906,1.3340187072753906,0
3.093705654144287,1.8285350799560547,1.4715092182159424,0
3.0075478553771973,1.6534194946289062,1.6302671432495117,0
2.963834524154663,1.5859699249267578,1.570556402206421,0
2.83316969871521,1.5399284362792969,1.4686861038208008,0
2.602813482284546,1.6611204147338867,1.2425800561904907,0
2.4731767177581787,1.9924087524414062,1.0667191743850708,0
2.4460701942443848,2.3351364135742188,1.0610275268554688,0
2.4132637977600098,2.9117231369018555,0.9026013612747192,0
2.460695743560791,3.473245620727539,0.7542661428451538,0
2.5117413997650146,3.7160987854003906,0.6948810815811157,0
2.6072630882263184,3.6957101821899414,0.6069676280021667,0
2.7406115531921387,3.4148216247558594,0.48299482464790344,0
2.7616772651672363,2.809213638305664,0.13079452514648438,0
2.8721015453338623,2.233212471008301,-0.33785825967788696,0
2.8922200202941895,1.823197364807129,-0.7751245498657227,0
2.9369025230407715,1.6365184783935547,-0.8930163383483887,0
2.8818535804748535,1.2832956314086914,-1.0400453805923462,0
2.742016077041626,1.136850357055664,-1.3378747701644897,0
2.2927308082580566,1.0225095748901367,-1.8755236864089966,0
1.7786474227905273,0.7347326278686523,-2.39951229095459,0
1.1624726057052612,0.3838310241699219,-2.881230592727661,0
0.4716535806655884,0.13258743286132812,-3.189404249191284,0
-0.19644653797149658,0.004803657531738281,-3.2467637062072754,0
-0.9094716310501099,-0.04993915557861328,-3.1073803901672363,0
-1.6420230865478516,-0.09876823425292969,-2.863346576690674,0
-2.2613866329193115,-0.25658607482910156,-2.5684399604797363,0
-2.795692205429077,-0.3727598190307617,-2.2283663749694824,0
-3.2431788444519043,-0.4738626480102539,-1.7616477012634277,0
-3.5751240253448486,-0.607945442199707,-1.3067327737808228,0
-3.72483229637146,-0.6914386749267578,-0.8955568075180054,0
-3.4649970531463623,-0.65264892578125,-0.492745578289032,0
-3.088855743408203,-0.513087272644043,-0.10974752902984619,0
-2.740938425064087,-0.26306629180908203,0.2633976936340332,0
-2.426772117614746,0.08792781829833984,0.6300621032714844,0
-2.278287410736084,0.5041828155517578,0.8044748306274414,0
-2.074706792831421,0.8856487274169922,0.7699402570724487,0
-2.059296131134033,1.1515178680419922,0.6753145456314087,0
-2.0686049461364746,1.3667325973510742,0.5966587066650391,0
-2.178097724914551,1.5385847091674805,0.4625692367553711,0
-2.3270297050476074,1.7459144592285156,0.19296669960021973,0
-2.423414468765259,1.904764175415039,-0.1938920021057129,0
-2.3966758251190186,1.95037841796875,-0.7301491498947144,0
-2.2198212146759033,2.014267921447754,-1.3671048879623413,0
-2.08276104927063,2.05074405670166,-1.976698637008667,0
-1.761685848236084,2.0332508087158203,-2.447783946990967,0
-1.403983235359192,1.8879423141479492,-2.814605712890625,0
-0.8530255556106567,1.5625391006469727,-2.6640470027923584,0
-0.49303877353668213,1.0070114135742188,-2.17580509185791,0
-0.18366402387619019,0.48184871673583984,-1.5235698223114014,0
0.014525383710861206,-0.2168426513671875,-0.8040175437927246,0
0.20357859134674072,-1.0081205368041992,-0.21442747116088867,0
0.18655601143836975,-1.4497418403625488,-0.01268458366394043,0
0.14247554540634155,-1.7670011520385742,-0.15305876731872559,0
0.07842746376991272,-2.0032687187194824,-0.5011932849884033,0
0.04302114248275757,-2.199528694152832,-0.8725790977478027,0
-0.007975071668624878,-2.1505417823791504,-1.1281349658966064,0
-0.1525977998971939,-2.139124870300293,-1.387136459350586,0
-0.13863036036491394,-2.335407257080078,-1.5462744235992432,0
-0.12070190906524658,-2.5838561058044434,-1.746835470199585,0
-0.07607956230640411,-2.8173861503601074,-2.077786684036255,0
-0.21166402101516724,-3.413745880126953,-2.381650447845459,0
-0.23779155313968658,-3.968451499938965,-2.529435634613037,0
-0.23519113659858704,-4.586919784545898,-2.566704750061035,0
-0.27247944474220276,-5.362306118011475,-2.6158201694488525,0
-0.34481215476989746,-5.804200172424316,-2.6315629482269287,0
-0.5554986000061035,-5.932139873504639,-2.4538650512695312,0
-0.651206374168396,-5.6771931648254395,-2.231252908706665,0
-0.7693420648574829,-4.984903335571289,-1.9182360172271729,0
-0.7457711696624756,-4.334228038787842,-1.6269302368164062,0
-0.7511192560195923,-3.8447775840759277,-1.3953571319580078,0
-0.8263434171676636,-3.6358728408813477,-1.2880728244781494,0
-0.9167405962944031,-3.549374580383301,-1.2044332027435303,0
-0.9291824102401733,-3.604198932647705,-1.1373355388641357,0
-1.0073593854904175,-3.6971912384033203,-1.0774753093719482,0
-1.0460094213485718,-3.8258090019226074,-1.0058660507202148,0
-1.138525128364563,-3.989924907684326,-0.9441378116607666,0
-1.1606395244598389,-4.15355110168457,-0.8660402297973633,0
-1.2345607280731201,-4.309464454650879,-0.7620189189910889,0
-1.2646318674087524,-4.491123199462891,-0.6368236541748047,0
-1.3848843574523926,-4.684049606323242,-0.5240159034729004,0
-1.4779698848724365,-4.797276496887207,-0.35666799545288086,0
-1.7043468952178955,-4.830697536468506,-0.26421594619750977,0
-1.8414067029953003,-4.808163642883301,-0.07457637786865234,0
-2.0542800426483154,-4.641104221343994,0.13065576553344727,0
-2.1277031898498535,-4.451467990875244,0.41582465171813965,0
-2.214951753616333,-4.179292678833008,0.770991325378418,0
-2.1242470741271973,-3.8841938972473145,1.1023547649383545,0
-2.221282958984375,-3.376917839050293,1.4330840110778809,0
-2.179696798324585,-2.774467945098877,1.836294174194336,0
-2.0819356441497803,-2.1073946952819824,1.8893263339996338,0
-1.8788717985153198,-1.4704761505126953,1.5517165660858154,0
-1.4436129331588745,-0.8142833709716797,0.822023868560791,0
-0.901077389717102,0.0069446563720703125,-0.2913968563079834,0
0.021920382976531982,1.1912765502929688,-0.8740289211273193,0
1.2522468566894531,3.0573129653930664,-0.3011476993560791,0
2.561601161956787,5.601161003112793,2.0922930240631104,0
3.043543577194214,8.57809829711914,6.263509750366211,0
2.190002202987671,10.493060111999512,10.840890884399414,0
1.525528907775879,10.685367584228516,13.14472770690918,0
0.8806591033935547,10.384322166442871,13.225699424743652,0
0.15042132139205933,10.118441581726074,10.946053504943848,0
0.41429805755615234,9.185550689697266,8.014495849609375,0
1.3465430736541748,6.576418876647949,6.2275896072387695,0
2.3869495391845703,1.6424016952514648,5.172674179077148,0
3.3080151081085205,-4.4762091636657715,3.803474187850952,0
2.6008448600769043,-8.504216194152832,1.9128937721252441,0
0.9121621251106262,-8.47818374633789,0.45377683639526367,0
0.20600831508636475,-5.199763298034668,-0.9117438793182373,0
0.3470080494880676,-1.1060152053833008,-3.1869874000549316,0
0.5186677575111389,3.006911277770996,-5.77198600769043,0
0.39345747232437134,6.706459999084473,-7.351882457733154,0
-0.30987223982810974,9.006643295288086,-8.108407020568848,0
-1.7070066928863525,10.151817321777344,-7.559333324432373,0
-3.2317705154418945,10.261767387390137,-5.952109336853027,0
-4.314456462860107,9.29908275604248,-3.720419406890869,0
-4.528261184692383,7.4020795822143555,-1.6252648830413818,0
-4.073835372924805,5.840537071228027,-0.8081886768341064,0
-4.289467811584473,5.7690534591674805,-1.9281480312347412,0
-4.900426864624023,7.21842098236084,-3.0030713081359863,0
-4.715641975402832,9.070112228393555,-2.5061559677124023,0
-4.1067376136779785,9.553035736083984,-0.686439037322998,0
-3.0186736583709717,7.915335655212402,1.8580999374389648,0
-1.9811639785766602,4.804261207580566,3.2962427139282227,0
-1.0774033069610596,1.2884244918823242,1.646106243133545,0
-0.8410365581512451,-1.3510346412658691,-1.4087331295013428,0
-0.8202148675918579,-2.351881980895996,-3.608452320098877,0
-1.098268985748291,-1.935713291168213,-4.94091272354126,0
-1.4224549531936646,-1.1253509521484375,-5.539186000823975,0
-1.5425611734390259,-0.4241752624511719,-5.661742210388184,0
-1.3606131076812744,0.15941333770751953,-5.412443161010742,0
-0.9561618566513062,0.5855655670166016,-5.011054039001465,0
-0.573765218257904,0.7688198089599609,-4.712061405181885,0
-0.19313368201255798,0.7452640533447266,-4.483702182769775,0
0.2136409878730774,0.4859886169433594,-4.307645797729492,0
0.42175304889678955,2.2029876708984375E-4,-4.2584686279296875,0
0.3867931365966797,-0.5929279327392578,-4.159358978271484,0
0.10594308376312256,-1.3225727081298828,-4.1163177490234375,0
-0.23570317029953003,-1.9760527610778809,-4.168972969055176,0
-0.660773515701294,-2.333458423614502,-4.133080005645752,0
-1.0435330867767334,-2.4090662002563477,-4.033802032470703,0
-1.3804839849472046,-1.9873695373535156,-3.758286714553833,0
-1.4584513902664185,-1.3195819854736328,-3.2794129848480225,0
-1.3984158039093018,-0.3293418884277344,-2.6526503562927246,0
-1.111616611480713,0.4735383987426758,-1.939616322517395,0
-0.856065034866333,0.9744186401367188,-1.4073997735977173,0
-0.6015762090682983,1.2095985412597656,-1.1965886354446411,0
-0.2760557234287262,1.0623750686645508,-1.1324405670166016,0
0.13602769374847412,0.6865024566650391,-1.2180299758911133,0
0.39172494411468506,0.3264789581298828,-1.3348045349121094,0
0.6236605048179626,-0.09868431091308594,-1.4625688791275024,0
0.8136323094367981,-0.5122480392456055,-1.523303508758545,0
0.9838974475860596,-0.8568878173828125,-1.5244836807250977,0
1.006260871887207,-1.2310810089111328,-1.4701905250549316,0
0.9989533424377441,-1.6184372901916504,-1.522140622138977,0
0.8097919225692749,-1.9881582260131836,-1.6914559602737427,0
0.7986840009689331,-2.5102343559265137,-1.8964970111846924,0
0.49734294414520264,-2.837824821472168,-2.1948320865631104,0
0.25310707092285156,-3.023805618286133,-2.3067984580993652,0
0.17826712131500244,-3.163984775543213,-2.25441837310791,0
0.1841261386871338,-3.074395179748535,-2.006601333618164,0
0.2030811309814453,-2.944230079650879,-1.6303311586380005,0
0.2012413740158081,-2.6730270385742188,-1.2934659719467163,0
0.25741076469421387,-2.2608418464660645,-1.0779510736465454,0
0.19220590591430664,-1.6742472648620605,-1.0945065021514893,0
0.1707857847213745,-1.2935304641723633,-1.1596379280090332,0
0.08281517028808594,-0.8314580917358398,-1.1660401821136475,0
0.025854110717773438,-0.3263969421386719,-1.1686238050460815,0
-0.0056351423263549805,0.01351165771484375,-1.1069555282592773,0
0.07145452499389648,0.13575363159179688,-0.939520001411438,0
0.19888246059417725,0.11227798461914062,-0.6919584274291992,0
0.3354600667953491,0.014986991882324219,-0.46916961669921875,0
0.5287448167800903,-0.17990875244140625,-0.2878824472427368,0
0.6875127553939819,-0.3646984100341797,-0.05929970741271973,0
0.9718868732452393,-0.7163591384887695,0.16413497924804688,0
1.0536389350891113,-0.9237709045410156,0.45172417163848877,0
1.1220999956130981,-1.125844955444336,0.7150981426239014,0
1.122442364692688,-1.3943634033203125,0.8468340635299683,0
1.145711898803711,-1.6623239517211914,0.7396608591079712,0
1.1943345069885254,-1.771960735321045,0.6118335723876953,0
1.3279540538787842,-1.757014274597168,0.5526132583618164,0
1.4483903646469116,-1.7563862800598145,0.5005110502243042,0
1.5584158897399902,-1.731849193572998,0.3697082996368408,0
1.6105297803878784,-1.575800895690918,0.0619274377822876,0
1.68874990940094,-1.4007797241210938,-0.1812083125114441,0
1.6596778631210327,-1.1184253692626953,-0.28514033555984497,0
1.6197506189346313,-0.9154462814331055,-0.24750137329101562,0
1.5241258144378662,-0.7463111877441406,-0.29602640867233276,0
1.3255337476730347,-0.6252841949462891,-0.32394182682037354,0
1.182535171508789,-0.6598682403564453,-0.32550695538520813,0
1.038141131401062,-0.7805156707763672,-0.19671493768692017,0
0.7873151302337646,-0.8412628173828125,-0.06993693113327026,0
0.5810176134109497,-0.8972234725952148,0.10489916801452637,0
0.41197800636291504,-0.9412612915039062,0.33996421098709106,0
0.19559752941131592,-1.212418556213379,0.6093152761459351,0
0.11580944061279297,-1.203481674194336,0.817501962184906,0
0.014326930046081543,-1.0677947998046875,0.9717248678207397,0
0.012845039367675781,-1.0039472579956055,1.10813570022583,0
-0.008637070655822754,-1.0094327926635742,1.234289526939392,0
0.019100546836853027,-0.96697998046875,1.2428348064422607,0
0.07214009761810303,-0.8575239181518555,1.220163345336914,0
0.05934906005859375,-0.7145853042602539,1.104202151298523,0
0.14068949222564697,-0.49272632598876953,0.8994947671890259,0
0.17260897159576416,-0.2159576416015625,0.6895081400871277,0
0.14291346073150635,0.031996726989746094,0.684547483921051,0
0.05827796459197998,0.26557254791259766,0.6664604544639587,0
-0.007032990455627441,0.4799785614013672,0.6897711753845215,0
-0.17531180381774902,0.7756738662719727,0.8618478178977966,0
-0.29148757457733154,1.035414695739746,1.0916762351989746,0
-0.3462967276573181,1.2233762741088867,1.3265380859375,0
-0.36350327730178833,1.3228578567504883,1.4898494482040405,0
-0.3288823962211609,1.3578567504882812,1.5887031555175781,0
-0.2427409291267395,1.3045291900634766,1.5726953744888306,0
0.019218742847442627,1.2060060501098633,1.64797043800354,0
0.35914456844329834,1.1173028945922852,1.7145625352859497,0
0.6597114205360413,1.076664924621582,1.6962932348251343,0
1.0380005836486816,1.0457820892333984,1.6317801475524902,0
1.4602465629577637,1.0820331573486328,1.4494431018829346,0
1.921812653541565,1.1566171646118164,1.2618250846862793,0
2.2864561080932617,1.2909812927246094,1.0544430017471313,0
2.7339019775390625,1.446746826171875,0.9704279899597168,0
2.9530704021453857,1.4588804244995117,0.9661553502082825,0
3.1334714889526367,1.4231462478637695,1.0171480178833008,0
3.222947359085083,1.4901800155639648,1.2017786502838135,0
3.1833269596099854,1.5881004333496094,1.2947847843170166,0
3.138868570327759,1.6498985290527344,1.381990909576416,0
3.0700721740722656,1.7091102600097656,1.5015721321105957,0
3.103533983230591,1.7968101501464844,1.4930251836776733,0
3.1409082412719727,1.836451530456543,1.4162123203277588,0
3.1790831089019775,1.8902626037597656,1.048059344291687,0
3.0732765197753906,2.26190185546875,0.49995583295822144,0
2.9848875999450684,2.867349624633789,0.1853119432926178,0
2.819910764694214,3.4936046600341797,0.21207338571548462,0
2.671327590942383,4.1742095947265625,0.34146296977996826,0
2.69712233543396,4.6198272705078125,0.3297334909439087,0
2.861726760864258,4.567767143249512,0.24889595806598663,0
3.0435867309570312,4.092818260192871,0.15638987720012665,0
3.166505813598633,3.573345184326172,-0.130315363407135,0
3.3601019382476807,3.1768321990966797,-0.6984851956367493,0
3.486764669418335,2.900777816772461,-1.369598627090454,0
3.2624874114990234,2.647130012512207,-1.9315589666366577,0
2.973313808441162,2.322732925415039,-2.305436372756958,0
2.577655076980591,2.049732208251953,-2.6708388328552246,0
1.7125532627105713,1.7541627883911133,-3.208466053009033,0
0.9559323191642761,1.412348747253418,-3.523879289627075,0
0.340690553188324,0.9933872222900391,-3.475367546081543,0
-0.399362713098526,0.6169862747192383,-3.2407760620117188,0
-1.2391812801361084,0.005707740783691406,-2.8843131065368652,0
-1.9869626760482788,-0.37160491943359375,-2.4341273307800293,0
-2.740874767303467,-0.6995086669921875,-1.938188076019287,0
-3.276433229446411,-0.873082160949707,-1.2866419553756714,0
-3.568330764770508,-0.940587043762207,-0.7575588822364807,0
-3.7527952194213867,-0.7612695693969727,-0.26075708866119385,0
-3.629103422164917,-0.4312610626220703,0.23837172985076904,0
-3.2596311569213867,0.0730447769165039,0.6300226449966431,0
-2.7347090244293213,0.579340934753418,0.848474383354187,0
-2.2449820041656494,1.047255516052246,0.8581981658935547,0
-1.8658061027526855,1.2954463958740234,0.9083489179611206,0
-1.4559892416000366,1.4225587844848633,0.8843436241149902,0
-1.2400634288787842,1.5438604354858398,0.8059523105621338,0
-1.2313950061798096,1.6165523529052734,0.6936910152435303,0
-1.330338954925537,1.6766271591186523,0.6166954040527344,0
-1.4420413970947266,1.68096923828125,0.4940812587738037,0
-1.746625542640686,1.7656116485595703,0.3272411823272705,0
-2.003278970718384,1.8702449798583984,0.017338037490844727,0
-2.1393179893493652,1.9372577667236328,-0.575986385345459,0
-2.324490547180176,2.091228485107422,-1.3312245607376099,0
-2.244724750518799,2.122007369995117,-2.1491246223449707,0
-1.9385287761688232,2.0397586822509766,-2.7726221084594727,0
-1.4525723457336426,1.8425092697143555,-3.051656723022461,0
-0.9538614153862,1.745457649230957,-2.9568588733673096,0
-0.3841705918312073,1.5112295150756836,-2.720979690551758,0
-0.13535818457603455,1.4264955520629883,-2.5459492206573486,0
0.2347518503665924,1.258976936340332,-2.2544145584106445,0
0.27864497900009155,0.8579273223876953,-1.8007007837295532,0
0.015140324831008911,0.20168113708496094,-1.2916181087493896,0
-0.15327492356300354,-0.4638633728027344,-0.8094794750213623,0
-0.32692813873291016,-1.3522658348083496,-0.3623659610748291,0
-0.2924259901046753,-2.0069851875305176,-0.19121170043945312,0
-0.41554996371269226,-2.550352096557617,-0.47289204597473145,0
-0.453847199678421,-2.8606181144714355,-0.7887420654296875,0
-0.3282541036605835,-2.914250373840332,-1.1054346561431885,0
-0.24255388975143433,-2.7712998390197754,-1.3109848499298096,0
-0.07724466919898987,-2.8647446632385254,-1.520693063735962,0
0.14378488063812256,-2.9862661361694336,-1.665440320968628,0
0.11914205551147461,-3.243448257446289,-1.8100125789642334,0
0.08704212307929993,-3.4543728828430176,-2.0144996643066406,0
0.058079808950424194,-3.853475570678711,-2.125926971435547,0
-0.03383958339691162,-4.270827293395996,-2.1683714389801025,0
-0.09270352125167847,-4.71112060546875,-2.158931255340576,0
-0.19723054766654968,-5.136028289794922,-2.1337320804595947,0
-0.4457243084907532,-5.3663554191589355,-2.059129476547241,0
-0.6992795467376709,-5.457551956176758,-1.908536672592163,0
-0.9608412981033325,-5.345353126525879,-1.7152888774871826,0
-1.0730153322219849,-5.178301811218262,-1.6037020683288574,0
-1.2326010465621948,-5.083348751068115,-1.4944446086883545,0
-1.4211530685424805,-4.854892253875732,-1.3728699684143066,0
-1.4719245433807373,-4.758468151092529,-1.274869441986084,0
-1.5506274700164795,-4.772292137145996,-1.1646673679351807,0
-1.728871464729309,-4.927276134490967,-1.0733733177185059,0
-1.8082557916641235,-5.118023872375488,-0.967411994934082,0
-1.7915600538253784,-5.215368747711182,-0.8371090888977051,0
-1.774461030960083,-5.36519193649292,-0.7423326969146729,0
-1.7422268390655518,-5.452536106109619,-0.5348992347717285,0
-1.6898977756500244,-5.57784366607666,-0.30577898025512695,0
-1.6270912885665894,-5.578381538391113,-0.09323310852050781,0
-1.4893798828125,-5.5618181228637695,0.11477327346801758,0
-1.2649039030075073,-5.504145622253418,0.29195070266723633,0
-1.0757077932357788,-5.40756368637085,0.3783130645751953,0
-0.8548105955123901,-5.221574306488037,0.4213442802429199,0
-0.6041408777236938,-4.950623035430908,0.446605920791626,0
-0.581231415271759,-4.546253681182861,0.37362003326416016,0
-0.6216562986373901,-3.996216297149658,0.44522619247436523,0
-0.5707916617393494,-3.4676694869995117,0.7318143844604492,0
-0.48849231004714966,-2.8713326454162598,0.745640754699707,0
-0.22552111744880676,-2.1893301010131836,0.18220210075378418,0
0.04211997985839844,-1.3985905647277832,-0.9891328811645508,0
0.4056342840194702,-0.16988658905029297,-2.1801586151123047,0
0.5219210386276245,1.4283199310302734,-2.8118999004364014,0
0.7577964663505554,4.0898284912109375,-2.3113532066345215,0
0.9149062633514404,7.3277082443237305,-0.23161888122558594,0
0.7181020975112915,11.02944278717041,3.7856099605560303,0
-0.5231046676635742,13.821022987365723,9.078920364379883,0
-1.3866181373596191,13.906530380249023,13.098464965820312,0
-1.2265899181365967,12.62126350402832,13.945098876953125,0
-0.9499332904815674,11.380308151245117,12.165956497192383,0
-0.42202305793762207,9.798260688781738,10.209283828735352,0
-0.21495497226715088,7.105993270874023,8.721014022827148,0
0.5686934590339661,2.8273839950561523,7.382020950317383,0
1.7754305601119995,-2.026581287384033,5.686567306518555,0
2.6072728633880615,-5.598790168762207,3.262535333633423,0
1.92941415309906,-4.977137565612793,0.9843471050262451,0
0.6889960765838623,-0.9780740737915039,-0.173842191696167,0
0.08825278282165527,3.3186254501342773,-1.250030755996704,0
0.03287100791931152,6.832183837890625,-3.6853036880493164,0
0.2620874047279358,9.403021812438965,-5.140589714050293,0
-0.6445674896240234,10.602178573608398,-6.161334991455078,0
-1.8110488653182983,10.33385181427002,-6.648122787475586,0
-3.077705144882202,8.83755874633789,-6.600333213806152,0
-4.266296863555908,7.098045349121094,-5.547504425048828,0
-4.391747951507568,5.440047264099121,-3.151050090789795,0
-3.9825947284698486,4.055943489074707,0.17615795135498047,0
-3.6490142345428467,3.352473258972168,2.5845956802368164,0
-3.0749611854553223,3.00687313079834,2.913651943206787,0
-1.9261116981506348,2.1026649475097656,2.1708016395568848,0
-1.0663169622421265,0.6762504577636719,0.23467159271240234,0
-1.533850908279419,-0.6713991165161133,-2.0522611141204834,0
-2.3367209434509277,-1.7800812721252441,-3.9760332107543945,0
-2.890392303466797,-2.700305461883545,-4.8929762840271,0
-2.7339258193969727,-2.395752429962158,-4.286998748779297,0
-2.5198919773101807,-1.381148338317871,-3.205655097961426,0
-2.1523985862731934,-0.2442913055419922,-2.3863775730133057,0
-1.5597693920135498,0.9830436706542969,-2.2783634662628174,0
-0.34834882616996765,2.091366767883301,-2.4725213050842285,0
1.3857359886169434,2.940654754638672,-2.555593490600586,0
2.7105562686920166,3.2431068420410156,-2.7825815677642822,0
2.910968065261841,2.924941062927246,-3.6275908946990967,0
2.358992099761963,2.2239675521850586,-4.496831893920898,0
2.0519909858703613,1.170069694519043,-4.915759563446045,0
1.6017316579818726,0.1502704620361328,-5.240316390991211,0
1.1298025846481323,-0.3027992248535156,-5.399155616760254,0
0.5981464385986328,-0.40621471405029297,-5.49476432800293,0
0.023937582969665527,-0.3681602478027344,-5.402688026428223,0
-0.6263801455497742,-0.40212345123291016,-4.996421813964844,0
-1.3280752897262573,-0.5660867691040039,-4.258491039276123,0
-1.9169384241104126,-0.7721242904663086,-3.3236043453216553,0
-2.266155242919922,-1.0110349655151367,-2.436429977416992,0
-2.3255696296691895,-1.1920757293701172,-1.715221643447876,0
-2.2168521881103516,-1.3559465408325195,-1.1567612886428833,0
-2.011310577392578,-1.6244258880615234,-0.717705488204956,0
-1.859152913093567,-1.9348869323730469,-0.5465099811553955,0
-1.270673155784607,-2.193894863128662,-0.456540584564209,0
-0.7650822997093201,-2.3752260208129883,-0.42139482498168945,0
-0.3870429992675781,-2.493414878845215,-0.5485060214996338,0
-0.24329537153244019,-2.59877347946167,-0.7517819404602051,0
-0.2033560872077942,-2.6267290115356445,-1.1034945249557495,0
-0.02459883689880371,-2.5844597816467285,-1.4465880393981934,0
0.015799641609191895,-2.464810371398926,-1.7960727214813232,0
-0.008264422416687012,-2.3802146911621094,-1.886704921722412,0
0.017769813537597656,-2.1536855697631836,-2.008174180984497,0
0.1899111270904541,-1.8883070945739746,-2.1365981101989746,0
0.26924848556518555,-1.6989755630493164,-2.188384771347046,0
0.2539641857147217,-1.3514223098754883,-2.103618621826172,0
0.2453223466873169,-1.1068391799926758,-1.8884894847869873,0
0.06116628646850586,-0.8696250915527344,-1.6735471487045288,0
0.08405780792236328,-0.6708707809448242,-1.5446279048919678,0
0.026323556900024414,-0.6706752777099609,-1.4585063457489014,0
0.0979682207107544,-0.5292167663574219,-1.3527300357818604,0
0.5667142868041992,-0.6770658493041992,-1.0217318534851074,0
0.8297711610794067,-0.7072525024414062,-0.8613198399543762,0
0.8277485370635986,-0.7177696228027344,-0.6288629174232483,0
0.8144510984420776,-0.6798515319824219,-0.3971433639526367,0
0.6603972911834717,-0.7035274505615234,-0.17344355583190918,0
0.5809838771820068,-0.6764774322509766,0.016626715660095215,0
0.6482058763504028,-0.7209205627441406,0.2290794849395752,0
0.7762638330459595,-0.8608417510986328,0.31383419036865234,0
0.7812196016311646,-0.9718780517578125,0.22122907638549805,0
0.8165737390518188,-0.9297647476196289,0.07807672023773193,0
0.8990728855133057,-0.9713897705078125,-0.18047082424163818,0
1.0382764339447021,-0.9436111450195312,-0.44925302267074585,0
1.2413303852081299,-0.9469919204711914,-0.5940412282943726,0
1.2639058828353882,-1.0173473358154297,-0.6290073394775391,0
1.2156577110290527,-1.106705665588379,-0.6258324384689331,0
1.1970924139022827,-1.131368637084961,-0.6394322514533997,0
1.1293076276779175,-1.1536235809326172,-0.5330832600593567,0
1.065016508102417,-1.2165613174438477,-0.3996049165725708,0
0.9970345497131348,-1.2627553939819336,-0.2531000077724457,0
0.932266116142273,-1.2921619415283203,-0.052975237369537354,0
0.9133656024932861,-1.2927532196044922,0.09514379501342773,0
0.9113963842391968,-1.2597293853759766,0.2221565842628479,0
0.9836153984069824,-1.1261377334594727,0.22491633892059326,0
0.9146498441696167,-1.040328025817871,0.17511308193206787,0
0.8746551275253296,-0.9927005767822266,0.0990908145904541,0
0.7802696228027344,-0.9019527435302734,0.020635515451431274,0
0.7205160856246948,-0.8088512420654297,-0.03875821828842163,0
0.593103289604187,-0.7947664260864258,-0.03861144185066223,0
0.4844475984573364,-0.7065849304199219,-0.06542399525642395,0
0.36359572410583496,-0.6663551330566406,-0.14104168117046356,0
0.228263258934021,-0.6812057495117188,-0.08361676335334778,0
0.24868392944335938,-0.6363592147827148,0.10236619412899017,0
0.24061048030853271,-0.4816770553588867,0.2305324524641037,0
0.18960583209991455,-0.37986183166503906,0.2700147032737732,0
0.26551103591918945,-0.18975257873535156,0.29017210006713867,0
0.31236088275909424,0.01687145233154297,0.3893534243106842,0
0.34157228469848633,0.3070249557495117,0.4529472887516022,0
0.4246789216995239,0.7308664321899414,0.5675145387649536,0
0.491763710975647,1.113753318786621,0.6637957096099854,0
0.6573206186294556,1.396010398864746,0.8303713798522949,0
0.7608765959739685,1.6088743209838867,0.9855360984802246,0
0.8094432950019836,1.697458267211914,1.0163493156433105,0
0.8339233994483948,1.587794303894043,0.9196387529373169,0
0.8461076021194458,1.5359573364257812,0.7999211549758911,0
0.8866456151008606,1.4844465255737305,0.7235234379768372,0
0.8025655746459961,1.3877782821655273,0.6852641105651855,0
0.6820988655090332,1.303384780883789,0.7064223289489746,0
0.5773075819015503,1.336461067199707,0.7820180654525757,0
0.5308682322502136,1.5011882781982422,0.923906683921814,0
0.672141432762146,1.739975929260254,1.1969993114471436,0
0.9341414570808411,1.8996829986572266,1.5371149778366089,0
1.1588268280029297,1.9803876876831055,1.6046172380447388,0
1.3532299995422363,1.9319429397583008,1.6027342081069946,0
1.5410288572311401,1.8501310348510742,1.5576896667480469,0
1.7840245962142944,1.9047508239746094,1.5339226722717285,0
1.9742772579193115,1.9186820983886719,1.5770037174224854,0
2.248331308364868,1.9278268814086914,1.5722882747650146,0
2.4843828678131104,1.8341341018676758,1.6730000972747803,0
2.6660287380218506,1.597071647644043,1.790773630142212,0
2.858142137527466,1.3172111511230469,1.8870806694030762,0
3.003631830215454,1.0423831939697266,1.923264980316162,0
3.114765167236328,0.7534160614013672,1.9372663497924805,0
3.1675760746002197,0.5890045166015625,1.9719367027282715,0
3.2289533615112305,0.572911262512207,1.9913288354873657,0
3.3250961303710938,0.6308374404907227,1.9476487636566162,0
3.4630513191223145,0.7100763320922852,1.6994788646697998,0
3.4413228034973145,1.0449047088623047,1.1764755249023438,0
3.3502392768859863,1.5608673095703125,0.6119920015335083,0
3.134222984313965,2.1573610305786133,0.25902873277664185,0
2.879244804382324,2.8224191665649414,0.19176407158374786,0
2.6498992443084717,3.211751937866211,0.33893558382987976,0
2.4821436405181885,3.2014732360839844,0.44519150257110596,0
2.44803524017334,2.9858360290527344,0.3362046480178833,0
2.248699903488159,2.4599523544311523,-0.09141433238983154,0
2.1284823417663574,1.7653751373291016,-0.6277676224708557,0
2.1166832447052,1.0482807159423828,-1.0912237167358398,0
1.8568902015686035,0.5407905578613281,-1.6234335899353027,0
1.5911266803741455,0.2571601867675781,-2.121473550796509,0
1.279297113418579,-0.11595916748046875,-2.535193681716919,0
0.8768707513809204,-0.2985382080078125,-2.8191001415252686,0
0.40896379947662354,-0.4556722640991211,-3.044567823410034,0
-0.10163691639900208,-0.45102882385253906,-3.066995143890381,0
-0.7521601319313049,-0.23694896697998047,-2.875727891921997,0
-1.302196979522705,-0.07917594909667969,-2.3784265518188477,0
-1.904231309890747,0.08923912048339844,-1.6412208080291748,0
-2.3879404067993164,0.23951244354248047,-0.84041827917099,0
-2.8275699615478516,0.4552936553955078,-0.030406832695007324,0
-3.008401393890381,0.6527423858642578,0.6508851051330566,0
-2.963064193725586,0.9968271255493164,1.1827400922775269,0
-2.638787269592285,1.3533344268798828,1.6693764925003052,0
-2.2871413230895996,1.6622858047485352,2.028519630432129,0
-1.848352313041687,1.909153938293457,2.249542713165283,0
-1.4553778171539307,2.1081008911132812,2.244847297668457,0
-1.132459044456482,2.2996349334716797,2.0506460666656494,0
-1.1058584451675415,2.4406566619873047,1.5635439157485962,0
-1.4143465757369995,2.548121452331543,0.9948837757110596,0
-1.8045302629470825,2.5411500930786133,0.34456944465637207,0
-2.2413275241851807,2.508821487426758,-0.18896985054016113,0
-2.6636972427368164,2.501901626586914,-0.5938496589660645,0
-2.550787925720215,2.245758056640625,-0.8383026123046875,0
-2.3898539543151855,2.178445816040039,-1.0041296482086182,0
-1.8016117811203003,2.1800127029418945,-1.0565333366394043,0
-1.3116507530212402,2.2789478302001953,-1.374653697013855,0
-0.8489829301834106,2.3317079544067383,-1.9554048776626587,0
-0.46448513865470886,2.2955150604248047,-2.6146135330200195,0
-0.24235647916793823,2.0700769424438477,-2.8831751346588135,0
-0.1943928301334381,1.56683349609375,-2.815281391143799,0
-0.3210991621017456,0.9338741302490234,-2.2876763343811035,0
-0.5228712558746338,0.3500547409057617,-1.5859397649765015,0
-0.6359938383102417,-0.35986804962158203,-0.7445132732391357,0
-0.5778325796127319,-1.1650466918945312,-0.11428976058959961,0
-0.6793593764305115,-1.8072786331176758,0.008552312850952148,0
-0.7090473771095276,-2.2246484756469727,-0.16038727760314941,0
-0.7360144853591919,-2.5277490615844727,-0.3788588047027588,0
-0.7882649302482605,-2.7265257835388184,-0.7279484272003174,0
-0.8146954774856567,-2.8021483421325684,-1.119042158126831,0
-0.8715037703514099,-3.013092041015625,-1.5977551937103271,0
-0.8928012847900391,-3.194394111633301,-1.857884407043457,0
-1.0111591815948486,-3.4130783081054688,-2.1343483924865723,0
-1.1037209033966064,-3.7335219383239746,-2.3727335929870605,0
-1.047410249710083,-4.181959629058838,-2.456113338470459,0
-1.025672435760498,-4.54308557510376,-2.5474162101745605,0
-0.9064416289329529,-4.917392730712891,-2.560839891433716,0
-0.99167799949646,-4.9677276611328125,-2.558698892593384,0
-0.9201834797859192,-4.888191223144531,-2.471726894378662,0
-0.8937410712242126,-4.640835762023926,-2.25909423828125,0
-0.783991277217865,-4.206717014312744,-2.071653127670288,0
-0.6803686618804932,-3.8442177772521973,-1.828251838684082,0
-0.7271397113800049,-3.562692642211914,-1.6750459671020508,0
-0.7288660407066345,-3.3405585289001465,-1.5018529891967773,0
-0.7982759475708008,-3.321202278137207,-1.3900322914123535,0
-0.96599280834198,-3.406376361846924,-1.317969799041748,0
-1.066965103149414,-3.5005083084106445,-1.2182912826538086,0
-1.0826724767684937,-3.5104637145996094,-1.1648890972137451,0
-1.0926401615142822,-3.532041549682617,-1.1217265129089355,0
-1.0112491846084595,-3.5796403884887695,-1.07667875289917,0
-1.0229519605636597,-3.6700806617736816,-1.029493808746338,0
-0.9173399209976196,-3.7794628143310547,-0.9680461883544922,0
-0.8571845889091492,-3.929327964782715,-0.9400262832641602,0
-0.8136588931083679,-4.0670857429504395,-0.8925790786743164,0
-0.7745761275291443,-4.154483318328857,-0.8065118789672852,0
-0.8355093002319336,-4.253755569458008,-0.708033561706543,0
-0.8789993524551392,-4.290727138519287,-0.5659823417663574,0
-0.936130940914154,-4.262873649597168,-0.4763014316558838,0
-1.0570068359375,-4.2060227394104,-0.2835390567779541,0
-1.035481333732605,-4.120184421539307,-0.06179332733154297,0
-1.070212483406067,-3.983630657196045,0.1121225357055664,0
-1.1278159618377686,-3.7794909477233887,0.2763850688934326,0
-1.1289911270141602,-3.581716537475586,0.44742584228515625,0
-1.1330618858337402,-3.322997570037842,0.619887113571167,0
-1.170407772064209,-2.981264114379883,0.6681296825408936,0
-1.3073440790176392,-2.5487942695617676,0.8323349952697754,0
-1.377896785736084,-1.9007644653320312,1.1299428939819336,0
-1.1660430431365967,-1.2207603454589844,1.2883563041687012,0
-0.8075832724571228,-0.3857307434082031,1.1369900703430176,0
-0.12931746244430542,0.7875194549560547,0.5324301719665527,0
0.706727921962738,2.6110897064208984,-0.13326263427734375,0
1.3145266771316528,4.853395462036133,-0.2039787769317627,0
1.7054252624511719,7.301413536071777,0.7513105869293213,0
1.5101388692855835,9.717360496520996,2.911017894744873,0
0.8887128829956055,10.908769607543945,6.068845748901367,0
1.0343315601348877,10.239471435546875,8.39938735961914,0
0.8241517543792725,9.348130226135254,9.451467514038086,0
0.43275055289268494,8.455892562866211,9.51264762878418,0
0.06166824698448181,7.255788803100586,8.966153144836426,0
-0.07077646255493164,5.765260696411133,8.158111572265625,0
0.11139819025993347,3.5529661178588867,6.91386604309082,0
0.6556383371353149,0.6690835952758789,4.613455772399902,0
1.2193363904953003,-1.885197639465332,2.0043864250183105,0
0.7196524739265442,-2.2341718673706055,0.6505208015441895,0
-0.49567025899887085,-0.0827627182006836,-0.21175384521484375,0
-1.4946531057357788,3.14040470123291,-1.8502130508422852,0
-1.363964557647705,6.153417587280273,-3.7308664321899414,0
-1.0797306299209595,8.182846069335938,-4.845284461975098,0
-1.7629226446151733,9.246308326721191,-5.287342071533203,0
-3.2771430015563965,9.176898956298828,-5.541281700134277,0
-5.120543479919434,7.915167808532715,-5.92569637298584,0
-7.006962299346924,5.9833984375,-5.81010103225708,0
-7.376805305480957,4.085477828979492,-4.578939437866211,0
-6.26020622253418,2.1844654083251953,-2.068239688873291,0
-5.293186664581299,1.237645149230957,-0.7053797245025635,0
-4.530361175537109,1.447281837463379,-0.7479712963104248,0
-3.7325613498687744,2.174715995788574,-1.1902861595153809,0
-3.2643795013427734,2.7218399047851562,-0.9538547992706299,0
-2.7422964572906494,2.7712268829345703,-0.11001300811767578,0
-2.2765438556671143,2.2158889770507812,0.6558442115783691,0
-1.5671885013580322,1.0892000198364258,0.7460699081420898,0
-0.8603375554084778,-0.2574596405029297,-0.08090972900390625,0
-0.5249979496002197,-1.3565540313720703,-1.460625410079956,0
-0.3796730041503906,-1.7190542221069336,-2.7383837699890137,0
-0.16710776090621948,-1.5238995552062988,-3.690136194229126,0
0.24542826414108276,-1.0604162216186523,-4.1911492347717285,0
0.7963384985923767,-0.4529886245727539,-4.316742897033691,0
1.564669132232666,0.09253501892089844,-4.208228588104248,0
2.100358009338379,0.4829444885253906,-3.9875166416168213,0
2.5538759231567383,0.5080986022949219,-3.793318510055542,0
2.9707984924316406,0.37203502655029297,-3.7242431640625,0
3.1220388412475586,0.061061859130859375,-3.8194591999053955,0
3.1256837844848633,-0.26637840270996094,-3.9196534156799316,0
2.9448137283325195,-0.6409139633178711,-4.002340793609619,0
2.526378631591797,-0.8565025329589844,-4.00929594039917,0
1.8864893913269043,-0.8675003051757812,-4.02376127243042,0
1.0950028896331787,-0.5925302505493164,-3.8176350593566895,0
0.5468134880065918,-0.3692607879638672,-3.254840850830078,0
-0.02258312702178955,-0.2721738815307617,-2.480323314666748,0
-0.2514820694923401,-0.36142730712890625,-1.6237415075302124,0
-0.36975008249282837,-0.5893726348876953,-0.9748668670654297,0
-0.34589165449142456,-0.7957439422607422,-0.5610308647155762,0
-0.34117788076400757,-1.0618267059326172,-0.4365975856781006,0
-0.34612566232681274,-1.2868671417236328,-0.4775211811065674,0
-0.22376710176467896,-1.449127197265625,-0.6774798631668091,0
-0.26285940408706665,-1.6703710556030273,-0.975283145904541,0
-0.41436177492141724,-1.8212733268737793,-1.1397883892059326,0
-0.5410683155059814,-1.96647310256958,-1.1907529830932617,0
-0.6780140399932861,-2.0989341735839844,-1.1928746700286865,0
-0.8395155668258667,-2.1110916137695312,-1.1749789714813232,0
-1.0472239255905151,-2.146573066711426,-1.1849486827850342,0
-1.0575475692749023,-2.05704402923584,-1.227750301361084,0
-1.059836506843567,-1.8808698654174805,-1.3370978832244873,0
-1.0904173851013184,-1.5870170593261719,-1.4796228408813477,0
-1.0251635313034058,-1.3454904556274414,-1.45404851436615,0
-0.888404130935669,-1.0631303787231445,-1.2956488132476807,0
-0.8025059700012207,-0.8715381622314453,-1.1597044467926025,0
-0.6742527484893799,-0.7109088897705078,-0.9787732362747192,0
-0.6113533973693848,-0.5549526214599609,-0.8793759346008301,0
-0.4556136727333069,-0.5734872817993164,-0.837367594242096,0
-0.254533052444458,-0.5798654556274414,-0.8166718482971191,0
-0.11072206497192383,-0.49524879455566406,-0.8673318028450012,0
0.12690389156341553,-0.43216609954833984,-0.9462580680847168,0
0.28368258476257324,-0.39298057556152344,-1.0199198722839355,0
0.49395763874053955,-0.2485523223876953,-1.0502426624298096,0
0.7198449373245239,-0.2835254669189453,-1.0713179111480713,0
0.860992431640625,-0.31589698791503906,-1.028637409210205,0
0.938949465751648,-0.29065799713134766,-0.9176751971244812,0
1.039520502090454,-0.4494037628173828,-0.8218597173690796,0
1.2940099239349365,-0.6747274398803711,-0.6933409571647644,0
1.4795477390289307,-0.863682746887207,-0.5323021411895752,0
1.5268490314483643,-0.973271369934082,-0.32933109998703003,0
1.4217314720153809,-1.0036020278930664,-0.29970043897628784,0
1.3435524702072144,-1.1198272705078125,-0.24406921863555908,0
1.2757172584533691,-1.154585838317871,-0.14964044094085693,0
1.143876075744629,-1.191725730895996,-0.00841069221496582,0
1.151595115661621,-1.3269290924072266,0.05551058053970337,0
1.0957088470458984,-1.2491788864135742,-0.030093848705291748,0
0.9787050485610962,-1.169083595275879,-0.062440335750579834,0
0.9056816101074219,-1.0435419082641602,-0.0012624859809875488,0
0.8715380430221558,-1.037581443786621,0.12242847681045532,0
0.8020279407501221,-0.9956235885620117,0.19632041454315186,0
0.7309485673904419,-0.9870710372924805,0.21074557304382324,0
0.656165599822998,-0.9544858932495117,0.2371034026145935,0
0.5801724195480347,-0.9815750122070312,0.25105273723602295,0
0.5221132040023804,-0.9319591522216797,0.3025956153869629,0
0.560969352722168,-0.9587793350219727,0.4131348729133606,0
0.6129950284957886,-1.026078224182129,0.5728855133056641,0
0.6710468530654907,-1.0549144744873047,0.679006814956665,0
0.7183270454406738,-1.0453386306762695,0.7937790155410767,0
0.8148473501205444,-0.9687404632568359,0.9150073528289795,0
0.9485923051834106,-0.8730344772338867,0.9903132915496826,0
1.0238394737243652,-0.6578168869018555,1.0319652557373047,0
1.1266305446624756,-0.3638744354248047,1.0761946439743042,0
1.264207363128662,-0.11803531646728516,1.1064378023147583,0
1.288405418395996,0.0654134750366211,1.0892528295516968,0
1.3571370840072632,0.3515663146972656,1.040980339050293,0
1.4153285026550293,0.5011978149414062,1.011545181274414,0
1.4533627033233643,0.6005735397338867,0.9358453154563904,0
1.4756789207458496,0.4824085235595703,0.8302040696144104,0
1.5273582935333252,0.30241966247558594,0.7734355330467224,0
1.4452884197235107,0.05354118347167969,0.7609204649925232,0
1.3680212497711182,-0.1756572723388672,0.7952768206596375,0
1.3214951753616333,-0.15085983276367188,0.7758482694625854,0
1.2526917457580566,0.1132650375366211,0.6303901076316833,0
1.3264658451080322,0.42511844635009766,0.8493008017539978,0
1.2365336418151855,0.5957412719726562,1.2750295400619507,0
1.3179242610931396,0.8883066177368164,1.582132339477539,0
1.2928884029388428,1.097001075744629,1.6147769689559937,0
1.3313450813293457,1.1142768859863281,1.5757795572280884,0
1.3924429416656494,1.1411809921264648,1.459839105606079,0
1.4042065143585205,1.0963850021362305,1.34590482711792,0
1.538973331451416,1.0540809631347656,1.3131582736968994,0
1.5432531833648682,1.0070714950561523,1.2062962055206299,0
1.6637275218963623,1.0103473663330078,1.1524999141693115,0
1.7498548030853271,0.9394969940185547,1.1902681589126587,0
1.8040951490402222,0.9500188827514648,1.1185190677642822,0
1.8504425287246704,0.9652748107910156,1.0735036134719849,0
1.9056156873703003,0.9852418899536133,1.119527816772461,0
1.9765101671218872,1.1007757186889648,1.1918697357177734,0
2.0271811485290527,1.1730690002441406,1.3359384536743164,0
1.990445613861084,1.2356243133544922,1.3597315549850464,0
2.031057357788086,1.4223127365112305,1.176295280456543,0
2.1654417514801025,1.7711944580078125,0.9115105867385864,0
2.225553512573242,2.193596839904785,0.6127066612243652,0
2.2062125205993652,2.720552444458008,0.39468270540237427,0
2.214583396911621,3.371126174926758,0.24578620493412018,0
2.2288999557495117,3.9802541732788086,0.121197909116745,0
2.3568294048309326,4.18939208984375,0.06217131018638611,0
2.636876344680786,4.032558441162109,-0.002790212631225586,0
2.932936191558838,3.8163022994995117,-0.1601032316684723,0
3.0321044921875,3.5455169677734375,-0.5664104223251343,0
2.8413569927215576,3.3183679580688477,-1.1609909534454346,0
2.5720255374908447,3.063155174255371,-1.7321468591690063,0
2.414012908935547,2.808736801147461,-2.1082568168640137,0
2.3227808475494385,2.5480823516845703,-2.3732757568359375,0
1.9807312488555908,2.3961668014526367,-2.65191650390625,0
1.3787455558776855,2.109201431274414,-2.910959243774414,0
0.8027374744415283,1.7090826034545898,-3.056858777999878,0
0.26845163106918335,1.2487144470214844,-2.983646869659424,0
-0.34522438049316406,0.5346498489379883,-2.888943672180176,0
-0.9922407269477844,0.1100473403930664,-2.5767621994018555,0
-1.6457440853118896,-0.4104433059692383,-2.2270727157592773,0
-2.3198065757751465,-0.6322259902954102,-1.6303071975708008,0
-2.980593204498291,-0.6897125244140625,-0.9524989128112793,0
-3.4366464614868164,-0.5282802581787109,-0.2019575834274292,0
-3.640542507171631,-0.16519451141357422,0.5535598993301392,0
-3.734745502471924,0.53759765625,1.2111313343048096,0
-3.678147792816162,1.3759765625,1.6296768188476562,0
-3.33426833152771,2.136566162109375,1.7630051374435425,0
-2.8654022216796875,2.52755069732666,1.6639163494110107,0
-2.3590915203094482,2.7263031005859375,1.4416463375091553,0
-1.9648425579071045,2.7068662643432617,1.1737573146820068,0
-1.5486788749694824,2.589296340942383,0.8559062480926514,0
-1.2968614101409912,2.481760025024414,0.4352543354034424,0
-1.0744080543518066,2.348891258239746,0.024020671844482422,0
-0.999923825263977,2.2868995666503906,-0.27736687660217285,0
-0.9720029830932617,2.265064239501953,-0.5137714147567749,0
-1.1091939210891724,2.214238166809082,-0.6643590927124023,0
-0.9836181402206421,2.1775169372558594,-0.8581256866455078,0
-0.8623870611190796,2.049560546875,-1.0630476474761963,0
-1.0411995649337769,2.1147804260253906,-1.3803564310073853,0
-0.9778196811676025,1.9970436096191406,-1.831753134727478,0
-0.834589958190918,1.9641075134277344,-2.6050350666046143,0
-0.7500898838043213,1.8964691162109375,-3.341689109802246,0
-0.47931867837905884,1.6459121704101562,-3.716588020324707,0
-0.44741731882095337,0.9685344696044922,-3.6146929264068604,0
-0.6504075527191162,0.048557281494140625,-3.1763386726379395,0
-0.8433505296707153,-0.9110116958618164,-2.484114646911621,0
-0.8341721892356873,-1.9583516120910645,-1.6760674715042114,0
-0.6837016344070435,-2.8974509239196777,-0.9434595108032227,0
-0.6728169918060303,-3.5085482597351074,-0.6353750228881836,0
-0.6204335689544678,-3.938159942626953,-0.41619372367858887,0
-0.56013423204422,-3.997875690460205,-0.3930952548980713,0
-0.5322079658508301,-4.056562423706055,-0.5944511890411377,0
-0.43522775173187256,-4.152609348297119,-0.8813343048095703,0
-0.4456515312194824,-4.202254295349121,-1.2444183826446533,0
-0.4149582087993622,-4.12418270111084,-1.5381581783294678,0
-0.4814501106739044,-4.21265172958374,-1.7628610134124756,0
-0.4575461745262146,-4.28576135635376,-1.9426615238189697,0
-0.3924427926540375,-4.451265335083008,-2.010556936264038,0
-0.3837946057319641,-4.4868340492248535,-1.9975931644439697,0
-0.282549113035202,-4.533792972564697,-1.9684045314788818,0
-0.37085971236228943,-4.48936128616333,-1.911073923110962,0
-0.4457452893257141,-4.291453838348389,-1.816213846206665,0
-0.31376969814300537,-4.098259449005127,-1.640517234802246,0
-0.38909730315208435,-4.022215843200684,-1.460524320602417,0
-0.4066419005393982,-3.9076571464538574,-1.3338611125946045,0
-0.5028874278068542,-3.77138090133667,-1.2604641914367676,0
-0.5989744663238525,-3.6611766815185547,-1.204533576965332,0
-0.697450578212738,-3.5842390060424805,-1.137244462966919,0
-0.8364540934562683,-3.6099767684936523,-1.0894584655761719,0
-0.8148766756057739,-3.7453866004943848,-1.1305761337280273,0
-0.8507342338562012,-3.870750904083252,-1.1074497699737549,0
-0.8346207141876221,-3.964592456817627,-0.9984850883483887,0
-0.7292183637619019,-3.9935555458068848,-0.8752338886260986,0
-0.6836573481559753,-4.022286415100098,-0.7566895484924316,0
-0.6336917877197266,-4.060369491577148,-0.594820499420166,0
-0.6847027540206909,-4.100656986236572,-0.3822479248046875,0
-0.7864274978637695,-4.135861873626709,-0.12623119354248047,0
-0.9436585903167725,-4.072640419006348,0.14450979232788086,0
-1.0631870031356812,-3.989877223968506,0.47295355796813965,0
-1.3199284076690674,-3.8036751747131348,0.7679600715637207,0
-1.3237863779067993,-3.655121326446533,1.0654807090759277,0
-1.4455742835998535,-3.4340295791625977,1.372701644897461,0
-1.4024749994277954,-3.2861671447753906,1.6369235515594482,0
-1.2537163496017456,-3.1608076095581055,1.835946798324585,0
-1.1275050640106201,-2.97587251663208,1.9681353569030762,0
-1.1614080667495728,-2.637159824371338,1.739164113998413,0
-1.1413930654525757,-2.273233413696289,1.7187073230743408,0
-0.6929242610931396,-1.7734289169311523,1.7676947116851807,0
0.0032779574394226074,-1.141383171081543,1.154536247253418,0
0.7568494081497192,-0.16036224365234375,0.019818782806396484,0
1.506023645401001,1.5052289962768555,-0.8110487461090088,0
2.1182379722595215,3.659120559692383,-0.8246304988861084,0
2.662649393081665,6.252739906311035,0.22011876106262207,0
2.5363829135894775,9.08094310760498,2.7622909545898438,0
0.7546205520629883,10.293025970458984,6.428021430969238,0
0.2933090329170227,8.72209358215332,8.979803085327148,0
-0.023225903511047363,7.481334686279297,9.331391334533691,0
-0.4495229423046112,6.713804244995117,8.290212631225586,0
-0.4368751049041748,5.934103965759277,7.141535758972168,0
-0.154039204120636,4.414020538330078,6.377224445343018,0
0.6128009557723999,2.227689743041992,5.3787760734558105,0
2.0388059616088867,0.10638999938964844,3.6966099739074707,0
3.0207910537719727,-1.0653362274169922,2.071019172668457,0
2.0222928524017334,-0.1372241973876953,0.19266581535339355,0
0.3974943161010742,2.4631567001342773,-2.032452344894409,0
-0.5243256092071533,5.533169746398926,-4.1490092277526855,0
-0.7943358421325684,7.9268598556518555,-5.533644199371338,0
-1.6946309804916382,9.117335319519043,-6.212072372436523,0
-3.008017063140869,8.841493606567383,-6.391168594360352,0
-4.729949951171875,7.320321083068848,-6.4380035400390625,0
-6.546788215637207,5.744603157043457,-6.240266799926758,0
-7.655300617218018,5.153246879577637,-5.105076313018799,0
-7.763280868530273,5.0521650314331055,-3.0657222270965576,0
-7.055535793304443,4.86775016784668,-0.0937042236328125,0
-5.9244489669799805,4.440797805786133,2.1642444133758545,0
-3.9048566818237305,3.6946229934692383,2.5853919982910156,0
-1.8379192352294922,2.9017810821533203,2.1319775581359863,0
-0.6390758752822876,1.8789634704589844,0.9971733093261719,0
-1.3215065002441406,0.8983001708984375,-1.026628017425537,0
-1.921304702758789,0.11314868927001953,-2.83309268951416,0
-2.0300405025482178,-0.36367034912109375,-3.676854372024536,0
-1.9000331163406372,-0.3204832077026367,-3.847754716873169,0
-1.6496493816375732,0.13080120086669922,-3.7459208965301514,0
-1.2242605686187744,0.6890068054199219,-3.7531585693359375,0
-0.6710939407348633,1.1081581115722656,-3.760430335998535,0
0.03384333848953247,1.300283432006836,-3.6847705841064453,0
0.635922372341156,1.371199607849121,-3.5123894214630127,0
1.3512260913848877,1.244938850402832,-3.4662623405456543,0
1.9790012836456299,0.9126338958740234,-3.65911602973938,0
2.39332914352417,0.4897470474243164,-3.844956874847412,0
2.5604496002197266,-0.04476356506347656,-3.9240829944610596,0
2.4023804664611816,-0.46311378479003906,-3.950657844543457,0
2.057638168334961,-0.7888727188110352,-3.952941417694092,0
1.4755465984344482,-0.8091001510620117,-3.834268093109131,0
0.8152817487716675,-0.7729549407958984,-3.551997661590576,0
0.23027914762496948,-0.6356010437011719,-3.2007365226745605,0
-0.2877958416938782,-0.46004199981689453,-2.7375917434692383,0
-0.5805798768997192,-0.29477691650390625,-2.296478271484375,0
-0.7407032251358032,-0.3410491943359375,-1.98785400390625,0
-0.7551997303962708,-0.4072227478027344,-1.8207005262374878,0
-0.6247295141220093,-0.5144844055175781,-1.8312044143676758,0
-0.3780798316001892,-0.7411251068115234,-2.0064048767089844,0
-0.0693734884262085,-0.981348991394043,-2.0632197856903076,0
0.09208858013153076,-1.0794458389282227,-2.067704200744629,0
0.06440508365631104,-1.2292108535766602,-1.9655760526657104,0
-0.05605471134185791,-1.4186763763427734,-1.7475199699401855,0
-0.2231578230857849,-1.5688986778259277,-1.6053297519683838,0
-0.2880309224128723,-1.550790786743164,-1.460508942604065,0
-0.32700884342193604,-1.5988845825195312,-1.3397568464279175,0
-0.4406988024711609,-1.519399642944336,-1.3006681203842163,0
-0.4185762405395508,-1.3627490997314453,-1.2738878726959229,0
-0.3611478805541992,-1.160099983215332,-1.446245551109314,0
-0.5270560383796692,-0.7990608215332031,-1.683943510055542,0
-0.6077465415000916,-0.5333929061889648,-1.6494051218032837,0
-0.6440872550010681,-0.4300994873046875,-1.4236128330230713,0
-0.6363672018051147,-0.3958873748779297,-1.1184208393096924,0
-0.6350682377815247,-0.5336341857910156,-0.8742611408233643,0
-0.5614568591117859,-0.6231555938720703,-0.8224655389785767,0
-0.4420093894004822,-0.80072021484375,-0.8101786375045776,0
-0.33877426385879517,-0.9346828460693359,-0.813775897026062,0
-0.26113617420196533,-0.8863792419433594,-0.8694988489151001,0
-0.027101516723632812,-0.8856258392333984,-0.9175671935081482,0
0.18160414695739746,-0.8439140319824219,-0.900720477104187,0
0.44867968559265137,-0.7159395217895508,-0.797211229801178,0
0.6686155796051025,-0.6381130218505859,-0.7600201964378357,0
0.8625698089599609,-0.4645042419433594,-0.7099759578704834,0
1.0445623397827148,-0.2813606262207031,-0.5915956497192383,0
1.1592397689819336,-0.1533060073852539,-0.4474501609802246,0
1.3261040449142456,-0.10184764862060547,-0.3345053195953369,0
1.4517438411712646,-0.10538959503173828,-0.31232452392578125,0
1.5482020378112793,-0.09929180145263672,-0.3450065851211548,0
1.6132172346115112,-0.2151498794555664,-0.3364611864089966,0
1.7450432777404785,-0.39549827575683594,-0.3174804449081421,0
1.828887939453125,-0.6665935516357422,-0.3787243366241455,0
1.757335901260376,-0.8538131713867188,-0.419455885887146,0
1.7242745161056519,-0.9859914779663086,-0.42981386184692383,0
1.715391993522644,-1.0106182098388672,-0.4407530426979065,0
1.713823676109314,-0.9851551055908203,-0.435715913772583,0
1.638107180595398,-0.9191360473632812,-0.412750244140625,0
1.5290132761001587,-0.8532161712646484,-0.31952571868896484,0
1.4800227880477905,-0.7778558731079102,-0.14653027057647705,0
1.3406704664230347,-0.7313938140869141,0.14715957641601562,0
1.3123396635055542,-0.7234420776367188,0.4158536195755005,0
1.2778608798980713,-0.6128368377685547,0.5492548942565918,0
1.1801265478134155,-0.5908927917480469,0.5823754072189331,0
1.0170862674713135,-0.585688591003418,0.5430221557617188,0
0.8868430852890015,-0.5134735107421875,0.45479679107666016,0
0.6408965587615967,-0.5943050384521484,0.3537564277648926,0
0.45649218559265137,-0.708500862121582,0.34306395053863525,0
0.32458436489105225,-0.6839447021484375,0.3485552668571472,0
0.1593642234802246,-0.7479944229125977,0.36764806509017944,0
0.0733339786529541,-0.6518573760986328,0.4384765625,0
0.030563950538635254,-0.5320119857788086,0.5775004625320435,0
0.006927490234375,-0.3788881301879883,0.6769458651542664,0
-0.026489853858947754,-0.2618560791015625,0.8087697625160217,0
-0.04608416557312012,-0.1736602783203125,0.8271419405937195,0
-0.07144248485565186,-0.19311809539794922,0.775324285030365,0
-0.07654213905334473,-0.28180789947509766,0.7730827927589417,0
-0.12877881526947021,-0.2937278747558594,0.6576018333435059,0
-0.08257794380187988,-0.32696533203125,0.6178619861602783,0
0.0015865564346313477,-0.2236156463623047,0.46466517448425293,0
0.022516071796417236,-0.17027759552001953,0.31746041774749756,0
0.0925479531288147,-0.049719810485839844,0.266917884349823,0
0.2473490834236145,0.20014190673828125,0.2554349899291992,0
0.31673353910446167,0.44525814056396484,0.23743176460266113,0
0.36291348934173584,0.5923643112182617,0.267924964427948,0
0.4314689636230469,0.7372074127197266,0.23429399728775024,0
0.4220593571662903,0.858241081237793,0.13421589136123657,0
0.5501036047935486,0.9913215637207031,0.07808244228363037,0
0.6696571707725525,0.9522695541381836,0.2122751772403717,0
0.7140564918518066,0.8081932067871094,0.32187047600746155,0
0.7841447591781616,0.6357011795043945,0.3520394265651703,0
0.8801386952400208,0.5256738662719727,0.381664514541626,0
0.9448056221008301,0.3895606994628906,0.29805198311805725,0
0.9684718251228333,0.33261775970458984,0.2183312177658081,0
1.0562806129455566,0.2591066360473633,0.18558081984519958,0
1.0765624046325684,0.28142833709716797,0.12328740954399109,0
1.1178605556488037,0.3038158416748047,0.11761382222175598,0
1.1038920879364014,0.2927818298339844,0.12280100584030151,0
1.0565431118011475,0.238800048828125,0.1432550847530365,0
1.0645418167114258,0.24236297607421875,0.10413610935211182,0
0.9172009825706482,0.1599569320678711,0.12491205334663391,0
1.0212204456329346,0.17342185974121094,0.04507929086685181,0
0.9961236119270325,0.2730865478515625,-0.1520887017250061,0
0.9875489473342896,0.45887088775634766,-0.41145965456962585,0
0.8587124943733215,0.7283000946044922,-0.6131781935691833,0
0.7506023049354553,1.0262928009033203,-0.7476373314857483,0
0.6797213554382324,1.3886833190917969,-0.680750846862793,0
0.6196330785751343,1.676687240600586,-0.4575750231742859,0
0.615808367729187,1.7325563430786133,-0.1854187250137329,0
0.7065833806991577,1.5828933715820312,-0.21364402770996094,0
0.8777405619621277,1.4001569747924805,-0.5929738283157349,0
0.9785031080245972,1.2514228820800781,-1.0825636386871338,0
0.9608594179153442,1.2802009582519531,-1.6161346435546875,0
1.0163345336914062,1.3738994598388672,-1.7725260257720947,0
1.0086514949798584,1.513275146484375,-1.7474403381347656,0
0.9546700716018677,1.743666648864746,-1.6143858432769775,0
0.8612803816795349,2.0314626693725586,-1.410954475402832,0
0.7069029808044434,2.2354736328125,-1.2440662384033203,0
0.570643961429596,2.351001739501953,-1.1206339597702026,0
0.4289858341217041,2.289687156677246,-1.0934107303619385,0
0.23000949621200562,2.159388542175293,-1.2275506258010864,0
0.03185194730758667,1.9076623916625977,-1.4712300300598145,0
-0.26300787925720215,1.589737892150879,-1.7055449485778809,0
-0.5777361392974854,1.3229045867919922,-1.7919448614120483,0
-0.9363632798194885,1.0473251342773438,-1.7541061639785767,0
-1.219297170639038,0.8131828308105469,-1.6751573085784912,0
-1.4363725185394287,0.5366764068603516,-1.6141149997711182,0
-1.6261513233184814,0.3588743209838867,-1.5152605772018433,0
-1.7122009992599487,0.1815347671508789,-1.4735832214355469,0
-1.8263200521469116,0.04525566101074219,-1.4575419425964355,0
-1.7769795656204224,-0.07397651672363281,-1.4238497018814087,0
-2.040879726409912,-0.11397171020507812,-1.4850707054138184,0
-1.869062900543213,-0.2517681121826172,-1.4953663349151611,0
