AccX,AccY,AccZ,stepCount
0.6294998526573181,-0.027779579162597656,-0.4581780731678009,11
0.6294998526573181,-0.027779579162597656,-0.4581780731678009,2.1392478942871094
0.5641573071479797,0.0550384521484375,-0.30010986328125,-0.8949301242828369
0.4119223356246948,0.13789939880371094,-0.08337286114692688,1.6477537155151367
0.28528594970703125,0.2997016906738281,0.06301504373550415,-0.788386881351471
0.12713295221328735,0.5020637512207031,0.2251124382019043,1.5429680347442627
-0.00480961799621582,0.7210140228271484,0.5031419992446899,-2.055476188659668
-0.03598886728286743,0.7987155914306641,0.7986829280853271,1.558701992034912
-0.1791936159133911,0.7138652801513672,1.0560212135314941,-5.982059478759766
-0.26920628547668457,0.5718984603881836,1.1020231246948242,2.2426631450653076
-0.3036922216415405,0.49721336364746094,1.1013712882995605,-0.8277788758277893
-0.4120137393474579,0.35344696044921875,1.176167368888855,1.1321076154708862
-0.3599800169467926,0.42041778564453125,1.1211735010147095,0
-0.3129754066467285,0.4635448455810547,0.9940269589424133,0
-0.18980935215950012,0.5928382873535156,0.9194846153259277,0
0.14611148834228516,0.777069091796875,0.9310954213142395,0
0.42656219005584717,0.9779157638549805,0.9257375001907349,0
0.7902048826217651,1.1594982147216797,0.9369046688079834,0
1.0979979038238525,1.285994529724121,1.00783109664917,0
1.5244144201278687,1.390955924987793,1.2028499841690063,0
1.9158828258514404,1.4720239639282227,1.3609315156936646,0
2.3749704360961914,1.6320228576660156,1.3953181505203247,0
2.896737813949585,1.8564739227294922,1.5377733707427979,0
3.418865442276001,2.075934410095215,1.7185945510864258,0
3.8170688152313232,2.249736785888672,1.7915403842926025,0
4.105656147003174,2.461606979370117,1.8307114839553833,0
4.299159049987793,2.646914482116699,1.9028654098510742,0
4.488786220550537,2.724379539489746,1.9121265411376953,0
4.550248146057129,2.715641975402832,1.8510884046554565,0
4.545933246612549,2.6470890045166016,1.7264102697372437,0
4.550101280212402,2.6550493240356445,1.477661371231079,0
4.5220794677734375,2.646160125732422,1.23600172996521,0
4.38998556137085,2.682620048522949,0.929405689239502,0
4.189508438110352,2.7548389434814453,0.6872069835662842,0
3.922744035720825,3.044523239135742,0.41161954402923584,0
3.5843679904937744,3.3386707305908203,0.1725422441959381,0
3.264982223510742,3.5966949462890625,0.006303563714027405,0
2.9119460582733154,3.591555595397949,-0.1470051109790802,0
2.5924885272979736,3.35233211517334,-0.34774643182754517,0
2.15641188621521,2.8721961975097656,-0.6064413189888,0
1.9656562805175781,2.1132583618164062,-0.7900067567825317,0
1.6403400897979736,1.4130802154541016,-0.9925916790962219,0
1.2861831188201904,0.8195123672485352,-1.2601133584976196,0
0.9633065462112427,0.38993263244628906,-1.679003119468689,0
0.6196940541267395,-0.019193649291992188,-2.0552289485931396,0
0.30400675535202026,-0.34560585021972656,-2.445862293243408,0
-0.02121347188949585,-0.613194465637207,-2.726113796234131,0
-0.5441527366638184,-0.7191095352172852,-2.9385275840759277,0
-0.8281461000442505,-0.8284482955932617,-3.049321174621582,0
-1.252745270729065,-0.9817428588867188,-3.13472056388855,0
-1.7026498317718506,-0.9158353805541992,-2.9738481044769287,0
-2.0722882747650146,-0.784027099609375,-2.5797441005706787,0
-2.543428421020508,-0.5960416793823242,-1.9770536422729492,0
-2.8077239990234375,-0.4716148376464844,-1.3531383275985718,0
-2.985966682434082,-0.13817214965820312,-0.8837735056877136,0
-3.0176758766174316,0.21984004974365234,-0.46502721309661865,0
-2.943558692932129,0.769679069519043,-0.10083317756652832,0
-2.567479133605957,1.3172683715820312,0.26233160495758057,0
-2.075709342956543,1.8887176513671875,0.5055387020111084,0
-1.629655361175537,2.373885154724121,0.545169472694397,0
-1.3589866161346436,2.746588706970215,0.3496532440185547,0
-1.3256009817123413,2.9519519805908203,0.13152742385864258,0
-1.3248140811920166,3.0547094345092773,-0.12882018089294434,0
-1.46485435962677,3.1100244522094727,-0.34844958782196045,0
-1.8474472761154175,3.089406967163086,-0.5977027416229248,0
-2.414142608642578,2.9907093048095703,-0.8510264158248901,0
-2.8020949363708496,2.878713607788086,-1.1019413471221924,0
-2.487419605255127,2.822798728942871,-1.3293038606643677,0
-1.9011019468307495,2.3853635787963867,-1.5525226593017578,0
-1.7062112092971802,2.1890363693237305,-1.7514283657073975,0
-1.405032753944397,2.2075939178466797,-1.7832658290863037,0
-1.0815342664718628,2.031937599182129,-1.7290705442428589,0
-0.6969289183616638,1.7911577224731445,-1.645088791847229,0
-0.417305588722229,1.5280132293701172,-1.7357251644134521,0
-0.1922278106212616,1.2970638275146484,-2.011418342590332,0
-0.05784326046705246,0.9403018951416016,-2.3592419624328613,0
0.21759821474552155,0.6803007125854492,-2.638298511505127,0
0.2789509892463684,0.18458080291748047,-2.650322914123535,0
0.29965025186538696,-0.3527870178222656,-2.472489356994629,0
0.25525209307670593,-0.8814582824707031,-2.3754758834838867,0
0.23254327476024628,-1.5786404609680176,-2.229499101638794,0
-0.19700787961483002,-1.9100441932678223,-2.0216598510742188,0
-0.35924386978149414,-2.2001309394836426,-2.0892062187194824,0
-0.4665321707725525,-2.4302401542663574,-2.161163330078125,0
-0.6141186952590942,-2.868171215057373,-2.317044258117676,0
-0.8427009582519531,-3.468108654022217,-2.4880268573760986,0
-1.0421969890594482,-4.11521053314209,-2.356105089187622,0
-1.1640915870666504,-4.642049312591553,-2.3738441467285156,0
-1.0131964683532715,-5.101059913635254,-2.6687114238739014,0
-0.9861013293266296,-5.585179328918457,-2.973562479019165,0
-1.2144477367401123,-5.737671852111816,-3.181769847869873,0
-1.1671817302703857,-5.692713260650635,-3.169480085372925,0
-1.2349433898925781,-5.488918781280518,-2.9774534702301025,0
-1.2867013216018677,-5.033446788787842,-2.5935909748077393,0
-1.3097248077392578,-4.376948356628418,-2.1040070056915283,0
-1.1450481414794922,-3.6130785942077637,-1.6137990951538086,0
-1.1782721281051636,-3.2059812545776367,-1.3044865131378174,0
-1.2639577388763428,-2.978363037109375,-1.1876709461212158,0
-1.3372958898544312,-2.9921622276306152,-1.215341567993164,0
-1.5201258659362793,-3.199195384979248,-1.2105259895324707,0
-1.596610188484192,-3.4389920234680176,-1.2641949653625488,0
-1.638843297958374,-3.6182074546813965,-1.2591967582702637,0
-1.6373803615570068,-3.925671100616455,-1.3178186416625977,0
-1.6287059783935547,-4.138917446136475,-1.2055003643035889,0
-1.5607622861862183,-4.229404926300049,-1.0801656246185303,0
-1.4933834075927734,-4.379011631011963,-1.046985149383545,0
-1.5006458759307861,-4.436978340148926,-1.0771698951721191,0
-1.4914966821670532,-4.525394916534424,-1.1274592876434326,0
-1.422816514968872,-4.551056861877441,-1.094733476638794,0
-1.4093014001846313,-4.6025543212890625,-1.0434508323669434,0
-1.4316397905349731,-4.589099407196045,-0.8943634033203125,0
-1.3870270252227783,-4.503655433654785,-0.7668557167053223,0
-1.3306910991668701,-4.343790531158447,-0.6274662017822266,0
-1.3297057151794434,-4.0639567375183105,-0.4309728145599365,0
-1.3625707626342773,-3.690232753753662,-0.24730587005615234,0
-1.364569902420044,-3.217705249786377,0.014129638671875,0
-1.2346868515014648,-2.727635383605957,0.4415702819824219,0
-1.1302244663238525,-2.15512752532959,0.7903108596801758,0
-0.9378825426101685,-1.514073371887207,1.1071157455444336,0
-0.6592141389846802,-0.7870664596557617,1.4117991924285889,0
-0.4109157621860504,0.12246894836425781,1.6946320533752441,0
-0.038763970136642456,1.1628026962280273,1.856968641281128,0
0.41770243644714355,2.5736703872680664,2.109243869781494,0
0.7168257236480713,4.034906387329102,2.3797457218170166,0
0.9320109486579895,5.506348609924316,2.6547534465789795,0
1.1099109649658203,6.720705986022949,2.739046812057495,0
1.1253540515899658,7.394234657287598,2.7391550540924072,0
1.1720058917999268,7.266995429992676,2.925334930419922,0
1.1082996129989624,6.674188613891602,3.700712203979492,0
1.0806477069854736,5.931013107299805,4.804290771484375,0
0.8035758137702942,5.24700927734375,5.583174705505371,0
0.6311634182929993,4.523004531860352,6.078424453735352,0
0.4860496520996094,3.781783103942871,6.532131195068359,0
0.7097362279891968,2.7709264755249023,6.930477619171143,0
0.9854246973991394,1.2935991287231445,6.952853202819824,0
1.2533388137817383,-0.3608818054199219,6.703769683837891,0
1.3786907196044922,-1.919950008392334,6.045506954193115,0
1.5485609769821167,-2.824328899383545,5.09632682800293,0
1.5437164306640625,-3.4500222206115723,3.930459976196289,0
1.500282883644104,-3.3596057891845703,2.796847343444824,0
1.5061897039413452,-2.3504257202148438,1.4919586181640625,0
1.3638033866882324,-0.8439922332763672,-0.08292531967163086,0
1.0405304431915283,0.9757404327392578,-1.544370412826538,0
0.6053448915481567,3.3408451080322266,-2.5280957221984863,0
0.19588834047317505,6.2094573974609375,-2.8588809967041016,0
-0.09680050611495972,8.684947967529297,-2.9159538745880127,0
-0.3562658727169037,10.452085494995117,-2.911572217941284,0
-0.9812619686126709,11.19824504852295,-2.660640239715576,0
-1.7828466892242432,10.791943550109863,-2.5576045513153076,0
-2.7187366485595703,9.869746208190918,-3.042823553085327,0
-4.007797718048096,8.359724044799805,-3.9469337463378906,0
-5.566564559936523,6.869024276733398,-4.402784824371338,0
-6.516820430755615,5.244145393371582,-4.124187469482422,0
-6.386928081512451,3.5430831909179688,-3.4204819202423096,0
-6.252589225769043,2.15657901763916,-2.6516947746276855,0
-6.180004596710205,1.4275732040405273,-1.2448270320892334,0
-5.5139594078063965,1.2433929443359375,-0.04010295867919922,0
-4.783966541290283,0.8357439041137695,0.48664307594299316,0
-4.2189459800720215,0.19847393035888672,0.06142783164978027,0
-3.6615219116210938,-0.7042140960693359,-0.876314640045166,0
-3.1941349506378174,-1.606863021850586,-1.8549959659576416,0
-2.8450984954833984,-2.209183692932129,-2.7611546516418457,0
-2.463016986846924,-2.3375186920166016,-3.515892267227173,0
-2.032386302947998,-2.0126280784606934,-3.8715577125549316,0
-1.7541508674621582,-1.3493237495422363,-3.8990049362182617,0
-1.2431726455688477,-0.4318695068359375,-3.6696808338165283,0
-0.4210357964038849,0.5330133438110352,-3.2461466789245605,0
0.4165993928909302,1.1974620819091797,-2.9481122493743896,0
1.0788342952728271,1.3671369552612305,-3.0470268726348877,0
1.6360211372375488,1.0894107818603516,-3.2470784187316895,0
2.0797977447509766,0.4524059295654297,-3.5975916385650635,0
2.22829270362854,-0.44827938079833984,-4.168179988861084,0
1.8417894840240479,-1.3252520561218262,-4.953594207763672,0
1.248180627822876,-1.7521028518676758,-5.797677993774414,0
0.6927759051322937,-1.505476474761963,-6.6717119216918945,0
0.2720850110054016,-0.7734842300415039,-7.249320983886719,0
-0.2915862202644348,0.05949592590332031,-7.062198638916016,0
-0.7336741089820862,0.6925315856933594,-6.012912750244141,0
-0.7722018957138062,0.9176349639892578,-4.300346374511719,0
-0.4484705924987793,0.6249160766601562,-2.4305927753448486,0
-0.312644898891449,0.06835651397705078,-1.1873540878295898,0
-0.1980520486831665,-0.5030136108398438,-0.5364135503768921,0
0.005379140377044678,-1.0317344665527344,-0.27191638946533203,0
0.22884869575500488,-1.4868183135986328,-0.2742273807525635,0
0.30289220809936523,-1.9425644874572754,-0.34467899799346924,0
0.22042083740234375,-2.329759120941162,-0.3992331027984619,0
0.16353380680084229,-2.670177459716797,-0.5451474189758301,0
-0.001556396484375,-2.9161787033081055,-0.8585981130599976,0
-0.14777469635009766,-2.94368314743042,-1.1716933250427246,0
-0.3108997344970703,-2.875030994415283,-1.5606402158737183,0
-0.4980986714363098,-2.6817798614501953,-1.9363939762115479,0
-0.661616325378418,-2.2303051948547363,-2.200409412384033,0
-0.7419450283050537,-1.6883602142333984,-2.431406259536743,0
-0.7969486713409424,-1.199554443359375,-2.519115924835205,0
-0.8655946850776672,-0.6657962799072266,-2.515907049179077,0
-0.9195916652679443,-0.24729442596435547,-2.637108564376831,0
-0.9307336807250977,0.12308979034423828,-2.67211651802063,0
-0.9091957807540894,0.3569154739379883,-2.6157469749450684,0
-0.62339186668396,0.4638547897338867,-2.3623151779174805,0
-0.3250890374183655,0.36995792388916016,-2.112697124481201,0
0.07884418964385986,0.14963054656982422,-1.7425446510314941,0
0.4045499563217163,-0.12286090850830078,-1.2568707466125488,0
0.48480701446533203,-0.44980716705322266,-0.7540213465690613,0
0.5642467737197876,-0.7355108261108398,-0.2532627582550049,0
0.6959896087646484,-0.8987274169921875,0.0777130126953125,0
0.8274734020233154,-0.9849977493286133,0.3296217918395996,0
1.1214489936828613,-0.9418010711669922,0.48084211349487305,0
1.556465983390808,-0.936676025390625,0.5360268354415894,0
1.7041943073272705,-0.8547840118408203,0.6984872817993164,0
1.74689781665802,-0.7727489471435547,0.7671376466751099,0
1.7973352670669556,-0.7455844879150391,0.7299457788467407,0
1.7170242071151733,-0.7660684585571289,0.646716833114624,0
1.6854132413864136,-0.7528371810913086,0.6154648661613464,0
1.503570795059204,-0.7154684066772461,0.5046505928039551,0
1.2908828258514404,-0.6061697006225586,0.3697003722190857,0
1.227138876914978,-0.714447021484375,0.3497857451438904,0
0.9298295974731445,-0.6814336776733398,0.28028470277786255,0
0.6221855878829956,-0.6627883911132812,0.19471287727355957,0
0.2780296802520752,-0.5508613586425781,0.03284174203872681,0
-0.00931394100189209,-0.45332813262939453,0.05000680685043335,0
-0.026893973350524902,-0.44190502166748047,0.20251470804214478,0
-0.09820783138275146,-0.4590482711791992,0.39657169580459595,0
-0.08466672897338867,-0.535792350769043,0.5411102771759033,0
-0.08915317058563232,-0.5812282562255859,0.7223450541496277,0
-0.09721565246582031,-0.5786895751953125,0.8566455841064453,0
-0.111308753490448,-0.6119365692138672,0.9203399419784546,0
-0.062029123306274414,-0.5996427536010742,0.8753352165222168,0
0.06735706329345703,-0.6160087585449219,0.8484611511230469,0
0.1449068784713745,-0.550969123840332,0.6338950395584106,0
0.23033297061920166,-0.6915597915649414,0.5524489283561707,0
0.35936617851257324,-0.8725376129150391,0.4511753022670746,0
0.48652195930480957,-1.0340852737426758,0.3901823163032532,0
0.5806357860565186,-1.2049274444580078,0.3890969455242157,0
0.7253835201263428,-1.2128877639770508,0.45538920164108276,0
0.8010178804397583,-1.275742530822754,0.44553691148757935,0
0.8841923475265503,-1.3025617599487305,0.5509812831878662,0
0.8910074830055237,-1.238363265991211,0.6232715845108032,0
0.8669664263725281,-1.0282621383666992,0.7053568959236145,0
0.8958263397216797,-0.7776460647583008,0.7587679624557495,0
0.778908908367157,-0.5726299285888672,0.7809305787086487,0
0.7793876528739929,-0.41315650939941406,0.848351240158081,0
0.7917962074279785,-0.3206768035888672,0.8557373881340027,0
0.7921003699302673,-0.21619701385498047,0.7767789959907532,0
0.8161665797233582,-0.0829916000366211,0.6884236931800842,0
0.7685452103614807,0.011939048767089844,0.5931650996208191,0
0.70194011926651,0.17624664306640625,0.48398980498313904,0
0.5950115323066711,0.33331871032714844,0.4492822289466858,0
0.5027673840522766,0.5596933364868164,0.42943087220191956,0
0.451545774936676,0.8863725662231445,0.42205098271369934,0
0.4151667356491089,1.1458396911621094,0.40060195326805115,0
0.3915356993675232,1.3716115951538086,0.450634241104126,0
0.4214000105857849,1.6473722457885742,0.4444613456726074,0
0.5646864771842957,2.0112552642822266,0.4746032655239105,0
0.5892625451087952,2.453549385070801,0.6361846923828125,0
0.7509946823120117,3.002810478210449,0.9045476913452148,0
0.9706749320030212,3.5201854705810547,1.272002935409546,0
1.1906113624572754,3.9769973754882812,1.6257596015930176,0
1.453690528869629,4.205937385559082,2.028066635131836,0
1.5871692895889282,4.412895202636719,2.1601531505584717,0
1.8633899688720703,4.492647171020508,2.1914379596710205,0
2.186248540878296,4.318628311157227,2.2774975299835205,0
2.4308581352233887,4.113537788391113,2.2627601623535156,0
2.7143335342407227,3.841571807861328,2.374804973602295,0
2.874119281768799,3.505255699157715,2.571284532546997,0
3.0297319889068604,3.2696962356567383,2.644434928894043,0
3.233630895614624,3.0391244888305664,2.515308380126953,0
3.4423677921295166,2.866140365600586,2.209893226623535,0
3.698789596557617,2.8534717559814453,1.7107164859771729,0
3.7899980545043945,2.991352081298828,1.1893867254257202,0
3.77339506149292,3.305943489074707,0.7745465636253357,0
3.761362075805664,3.6177873611450195,0.5573311448097229,0
3.713263511657715,3.814626693725586,0.47397828102111816,0
3.5498459339141846,3.7484731674194336,0.25973954796791077,0
3.4360711574554443,3.4316978454589844,-0.2713955044746399,0
3.2807023525238037,3.048813819885254,-0.9661979079246521,0
3.186725378036499,2.5928077697753906,-1.4825748205184937,0
3.1545541286468506,2.1977481842041016,-1.7827247381210327,0
2.9914803504943848,1.8970975875854492,-2.1356024742126465,0
2.7204225063323975,1.4445428848266602,-2.5877137184143066,0
2.2568235397338867,0.7973480224609375,-3.180671215057373,0
1.724586844444275,0.04199695587158203,-3.853671073913574,0
1.2594335079193115,-0.5844478607177734,-4.445135116577148,0
0.4919443726539612,-0.950408935546875,-4.612968444824219,0
-0.31109315156936646,-1.2019052505493164,-4.370116233825684,0
-1.2423679828643799,-1.348623275756836,-3.8549180030822754,0
-2.038269519805908,-1.3621244430541992,-3.2675530910491943,0
-2.7202601432800293,-1.3552217483520508,-2.6860198974609375,0
-3.3443210124969482,-1.4477853775024414,-2.088538646697998,0
-3.7162880897521973,-1.3482980728149414,-1.5494012832641602,0
-3.839003324508667,-1.4159908294677734,-1.188899278640747,0
-3.921304225921631,-1.3471336364746094,-0.8682146072387695,0
-3.6900813579559326,-1.1418542861938477,-0.5339087247848511,0
-3.1465399265289307,-0.7283916473388672,-0.14525306224822998,0
-2.5423595905303955,-0.2909278869628906,0.2360144853591919,0
-2.062424421310425,0.1541128158569336,0.480948805809021,0
-1.9921479225158691,0.4900808334350586,0.5248609781265259,0
-2.0611915588378906,0.8539018630981445,0.5547745227813721,0
-2.01291561126709,1.2696971893310547,0.7422692775726318,0
-1.915277123451233,1.6991758346557617,0.9178411960601807,0
-1.9577909708023071,2.0512218475341797,0.9419515132904053,0
-2.251335620880127,2.416316032409668,0.6663544178009033,0
-2.3780312538146973,2.8035192489624023,0.1674184799194336,0
-2.4805033206939697,3.0691041946411133,-0.5443215370178223,0
-2.314173698425293,3.229940414428711,-1.3563313484191895,0
-2.353485584259033,3.116580009460449,-2.1305418014526367,0
-2.178882360458374,2.861039161682129,-2.626066207885742,0
-1.612457513809204,2.607217788696289,-2.8799047470092773,0
-0.9328433871269226,2.1115474700927734,-2.7856481075286865,0
-0.2557070553302765,1.5655040740966797,-2.3815226554870605,0
0.15956753492355347,0.8609647750854492,-1.7738478183746338,0
0.4584882855415344,0.14322376251220703,-1.1474673748016357,0
0.7920984625816345,-0.5355472564697266,-0.8051424026489258,0
0.9114252924919128,-1.001124382019043,-0.83939528465271,0
0.7223284840583801,-1.2852668762207031,-1.0171945095062256,0
0.7392195463180542,-1.5488548278808594,-1.1798484325408936,0
0.721521258354187,-1.8878192901611328,-1.4203627109527588,0
0.40899279713630676,-2.141972064971924,-1.7339441776275635,0
0.27105712890625,-2.6319217681884766,-2.0440874099731445,0
0.12885166704654694,-3.108903408050537,-2.2023773193359375,0
0.03131907805800438,-3.60195255279541,-2.349644660949707,0
-0.20691049098968506,-4.056178569793701,-2.469168186187744,0
-0.38357052206993103,-4.541004180908203,-2.7070324420928955,0
-0.45437467098236084,-5.001338005065918,-2.9773590564727783,0
-0.5379361510276794,-5.367738723754883,-3.1251583099365234,0
-0.7414910793304443,-5.723881244659424,-3.155794620513916,0
-0.7661988139152527,-5.890327453613281,-2.981299877166748,0
-0.7971929907798767,-5.699831962585449,-2.709825038909912,0
-0.7349822521209717,-5.219808101654053,-2.441946268081665,0
-0.769926905632019,-4.689774513244629,-2.0891425609588623,0
-0.6904172897338867,-4.29628849029541,-1.8285267353057861,0
-0.6670352816581726,-4.024731159210205,-1.6578192710876465,0
-0.7048163414001465,-3.8271307945251465,-1.507582187652588,0
-0.7343918681144714,-3.758378505706787,-1.4160864353179932,0
-0.7463619112968445,-3.739330768585205,-1.3499236106872559,0
-0.719525158405304,-3.753178596496582,-1.211031198501587,0
-0.7137113213539124,-3.7545175552368164,-1.0280401706695557,0
-0.6668288111686707,-3.8223156929016113,-0.8965184688568115,0
-0.6316900849342346,-3.8632235527038574,-0.7924599647521973,0
-0.5986881852149963,-3.927443504333496,-0.6752002239227295,0
-0.543883204460144,-4.0365729331970215,-0.4775063991546631,0
-0.5630273818969727,-4.123636722564697,-0.3188657760620117,0
-0.5533377528190613,-4.116971969604492,-0.15357589721679688,0
-0.569771409034729,-4.100430965423584,0.028171062469482422,0
-0.5693795680999756,-4.047555446624756,0.19032621383666992,0
-0.5928247570991516,-3.941525936126709,0.44524097442626953,0
-0.5009932518005371,-3.7703680992126465,0.759340763092041,0
-0.515987753868103,-3.428772449493408,1.120424747467041,0
-0.5221250057220459,-3.060245990753174,1.425429344177246,0
-0.4659311771392822,-2.6693077087402344,1.6787195205688477,0
-0.27054715156555176,-2.200361728668213,1.721271276473999,0
0.016294777393341064,-1.6262788772583008,1.6110689640045166,0
0.3925222158432007,-0.9196720123291016,1.3094806671142578,0
0.8587267398834229,-0.10571575164794922,1.0309386253356934,0
1.3440097570419312,0.7591695785522461,0.8798167705535889,0
1.7750011682510376,1.7618122100830078,0.87245774269104,0
2.0102570056915283,2.950556755065918,0.8606266975402832,0
2.012331247329712,4.117659568786621,0.8739423751831055,0
1.6334069967269897,5.349396705627441,1.2109465599060059,0
1.0320632457733154,6.109682083129883,2.0614871978759766,0
0.46576470136642456,6.369495391845703,3.3320205211639404,0
-0.11114612221717834,6.183241844177246,4.6907196044921875,0
-0.6785021424293518,5.72722053527832,5.841766357421875,0
-1.1729226112365723,5.089164733886719,6.816807270050049,0
-1.3503860235214233,4.06754207611084,7.299944877624512,0
-1.0477871894836426,2.508822441101074,7.623528480529785,0
-0.6357320547103882,0.6903142929077148,7.356039524078369,0
-0.38245248794555664,-0.9550337791442871,6.4956889152526855,0
-0.14297279715538025,-2.518244743347168,5.23881196975708,0
0.10064089298248291,-2.9759202003479004,3.9874916076660156,0
0.10269558429718018,-2.8502283096313477,2.226877212524414,0
-0.21741598844528198,-1.4337177276611328,0.43765687942504883,0
-0.5323235988616943,0.796635627746582,-1.0031752586364746,0
-1.1119515895843506,3.6202468872070312,-1.5445072650909424,0
-1.802682638168335,6.6758880615234375,-2.3096742630004883,0
-2.2563347816467285,9.568289756774902,-3.4450316429138184,0
-2.50152850151062,11.573304176330566,-3.895615577697754,0
-2.696237564086914,12.773580551147461,-2.7329487800598145,0
-3.137126922607422,12.252161026000977,-1.294245719909668,0
-3.50634503364563,10.220285415649414,-0.7322535514831543,0
-3.6372296810150146,7.704156875610352,-1.1166887283325195,0
-3.8808116912841797,6.001890182495117,-1.6768019199371338,0
-4.269948959350586,5.015064239501953,-1.5723421573638916,0
-4.788549900054932,5.071013450622559,-1.0740966796875,0
-5.043374061584473,4.410121917724609,-0.5928666591644287,0
-4.35134744644165,3.728489875793457,0.47765398025512695,0
-3.550281286239624,2.117319107055664,1.3372998237609863,0
-2.671628713607788,0.493133544921875,1.2211403846740723,0
-2.426644802093506,-1.1953163146972656,0.36773157119750977,0
-1.6171555519104004,-2.1834006309509277,-1.7469322681427002,0
-2.0048694610595703,-3.2142505645751953,-3.982025146484375,0
-2.485414505004883,-2.978370189666748,-5.528981685638428,0
-2.7862038612365723,-1.7384042739868164,-5.782082557678223,0
-2.620958089828491,-0.4006509780883789,-4.713059902191162,0
-1.881873607635498,0.685124397277832,-3.8197124004364014,0
-1.1395963430404663,1.5309104919433594,-3.30118989944458,0
1.844167709350586E-4,2.251908302307129,-2.9262146949768066,0
1.3815083503723145,2.83819580078125,-2.7519354820251465,0
2.140216112136841,2.979310989379883,-2.992661476135254,0
2.349963903427124,2.590836524963379,-3.6565518379211426,0
2.0763955116271973,1.5913810729980469,-4.2361321449279785,0
1.8444597721099854,0.3209381103515625,-4.4935197830200195,0
1.5427018404006958,-0.9137029647827148,-4.872077941894531,0
1.033158540725708,-1.7078404426574707,-5.0954999923706055,0
0.6529706120491028,-1.7569642066955566,-5.332008361816406,0
0.5918837189674377,-1.2113966941833496,-5.391256332397461,0
0.3113171458244324,-0.3316507339477539,-5.21143913269043,0
0.07016277313232422,0.40180492401123047,-4.763402938842773,0
-0.050507187843322754,0.7669486999511719,-4.0001983642578125,0
-0.12306004762649536,0.7953109741210938,-2.9986934661865234,0
-0.24868053197860718,0.3989238739013672,-2.058237314224243,0
-0.3433973789215088,-0.1871194839477539,-1.4427316188812256,0
-0.5432446599006653,-0.6802225112915039,-1.1743295192718506,0
-0.5988757014274597,-1.3050823211669922,-1.0624756813049316,0
-0.5889705419540405,-1.9490265846252441,-1.0960767269134521,0
-0.7404406666755676,-2.4470481872558594,-1.20866060256958,0
-0.7990380525588989,-2.911881923675537,-1.2066441774368286,0
-0.9463955163955688,-3.391606330871582,-1.2310770750045776,0
-1.036795735359192,-3.5971012115478516,-1.2072843313217163,0
-0.9726150631904602,-3.626972198486328,-1.2135473489761353,0
-0.806785523891449,-3.464888572692871,-1.2660272121429443,0
-0.5685965418815613,-3.0753822326660156,-1.2731127738952637,0
-0.46513527631759644,-2.4922327995300293,-1.1744180917739868,0
-0.49535077810287476,-1.7945647239685059,-1.2205088138580322,0
-0.44462692737579346,-0.994511604309082,-1.2648272514343262,0
-0.5164350867271423,-0.37205982208251953,-1.4599257707595825,0
-0.7349824905395508,0.06583690643310547,-1.7814394235610962,0
-0.9668093919754028,0.4150733947753906,-2.035219430923462,0
-0.8700488209724426,0.4748373031616211,-2.2017898559570312,0
-0.6242941617965698,0.22624683380126953,-2.1539804935455322,0
-0.34443312883377075,-0.174896240234375,-2.0976035594940186,0
-0.02571249008178711,-0.6279582977294922,-1.8461134433746338,0
0.18796813488006592,-1.187809944152832,-1.4738049507141113,0
0.36888277530670166,-1.5291404724121094,-1.145889163017273,0
0.4866061210632324,-1.6952919960021973,-0.8887566328048706,0
0.5895655155181885,-1.7295098304748535,-0.7433333396911621,0
0.7669479846954346,-1.6439604759216309,-0.6403501033782959,0
1.014478325843811,-1.4770441055297852,-0.6758958697319031,0
1.241501808166504,-1.1618461608886719,-0.6018522381782532,0
1.2756869792938232,-0.8371419906616211,-0.4667518138885498,0
1.2031275033950806,-0.6057271957397461,-0.4095621109008789,0
1.2322964668273926,-0.6110591888427734,-0.34138739109039307,0
1.2750931978225708,-0.7286090850830078,-0.33621418476104736,0
1.1765379905700684,-0.9033679962158203,-0.19507211446762085,0
1.0638906955718994,-1.1975183486938477,-0.0637405514717102,0
1.0401790142059326,-1.3622522354125977,-0.08579504489898682,0
0.9757711887359619,-1.5339384078979492,-0.17526745796203613,0
0.9352060556411743,-1.6001853942871094,-0.3176841139793396,0
0.8632124662399292,-1.709376335144043,-0.4695461690425873,0
0.7738591432571411,-1.658188819885254,-0.5468212962150574,0
0.6836888790130615,-1.535283088684082,-0.46075141429901123,0
0.6426569223403931,-1.2474451065063477,-0.42438870668411255,0
0.5833486318588257,-1.0315208435058594,-0.24894320964813232,0
0.5390030145645142,-0.8060722351074219,-0.05901288986206055,0
0.4856746196746826,-0.7193470001220703,0.1500328779220581,0
0.4066164493560791,-0.5057287216186523,0.27490943670272827,0
0.3235515356063843,-0.4570932388305664,0.3319598138332367,0
0.2223142385482788,-0.4058704376220703,0.4427991211414337,0
0.10069537162780762,-0.4022970199584961,0.5376003384590149,0
-0.005038142204284668,-0.4511575698852539,0.7527186870574951,0
-0.06126523017883301,-0.4998197555541992,0.9853553771972656,0
-0.0989885926246643,-0.44788455963134766,1.0800565481185913,0
-0.14236748218536377,-0.41501331329345703,1.0703778266906738,0
-0.17017972469329834,-0.3126850128173828,0.956371545791626,0
-0.012570023536682129,-0.16970157623291016,0.8723901510238647,0
0.028499245643615723,-0.0530242919921875,0.7540895938873291,0
0.06745743751525879,-0.03191852569580078,0.6351237893104553,0
0.1326533555984497,0.013319015502929688,0.453464537858963,0
0.1783316731452942,0.07550334930419922,0.27154043316841125,0
0.22828292846679688,0.14266586303710938,0.18507429957389832,0
0.3206467032432556,0.1861133575439453,0.2300891876220703,0
0.35742783546447754,0.38518810272216797,0.2843438982963562,0
0.42714065313339233,0.6153450012207031,0.4072524309158325,0
0.4724418520927429,0.8741273880004883,0.5625279545783997,0
0.4907904863357544,1.0514936447143555,0.7570329904556274,0
0.5707880854606628,1.2240381240844727,0.930910050868988,0
0.7390698790550232,1.4204177856445312,1.0962589979171753,0
0.9742913842201233,1.578404426574707,1.2005599737167358,0
1.166283130645752,1.7028331756591797,1.244110107421875,0
1.4011080265045166,1.788954734802246,1.2148953676223755,0
1.6978487968444824,1.879861831665039,1.2638797760009766,0
1.9200255870819092,1.9803218841552734,1.3813023567199707,0
2.1392478942871094,2.0448904037475586,1.4785226583480835,0
2.372175455093384,2.166867256164551,1.574836015701294,0
2.69296932220459,2.303133010864258,1.6105077266693115,0
2.90063738822937,2.3675737380981445,1.5233715772628784,0
3.0958878993988037,2.3722057342529297,1.3970134258270264,0
3.1998977661132812,2.3457794189453125,1.3198915719985962,0
3.239281415939331,2.2930784225463867,1.219905972480774,0
3.221611499786377,2.223651885986328,1.101507306098938,0
3.087139129638672,2.2307205200195312,0.9880027770996094,0
2.9218592643737793,2.3284912109375,0.9552866220474243,0
2.811915159225464,2.43790340423584,1.0554933547973633,0
2.6593284606933594,2.503922462463379,1.21181058883667,0
2.45434832572937,2.533731460571289,1.1700793504714966,0
2.3830976486206055,2.572726249694824,1.0321669578552246,0
2.298921823501587,2.843191146850586,0.7922079563140869,0
2.2346057891845703,3.2755041122436523,0.8302159905433655,0
2.0937259197235107,3.769113540649414,0.9933347702026367,0
2.0572707653045654,4.395756721496582,1.1073485612869263,0
2.1509552001953125,4.794275283813477,1.0482516288757324,0
2.340837001800537,4.964982986450195,0.7273951768875122,0
2.590986967086792,4.602132797241211,0.2401968538761139,0
2.8729097843170166,3.878603935241699,-0.3061634600162506,0
3.0316293239593506,3.2062063217163086,-0.9168499708175659,0
2.899688482284546,2.702162742614746,-1.5086047649383545,0
2.7596514225006104,2.3042736053466797,-1.9593122005462646,0
2.477799654006958,1.991074562072754,-2.2905004024505615,0
2.0616347789764404,1.6335506439208984,-2.5066897869110107,0
1.509099006652832,1.2247962951660156,-2.681389570236206,0
0.765790581703186,0.6407270431518555,-2.808960437774658,0
0.08384013175964355,0.19972896575927734,-2.852827548980713,0
-0.4399215579032898,-0.17715740203857422,-2.8631691932678223,0
-0.9284913539886475,-0.3368844985961914,-2.6842010021209717,0
-1.3714516162872314,-0.49485301971435547,-2.2411818504333496,0
-1.8063530921936035,-0.5411043167114258,-1.692718267440796,0
-2.0216572284698486,-0.6528797149658203,-1.1635061502456665,0
-2.2751028537750244,-0.6844110488891602,-0.7885569930076599,0
-2.406132936477661,-0.6861429214477539,-0.44524770975112915,0
-2.4412577152252197,-0.5364189147949219,0.03297579288482666,0
-2.477569341659546,-0.3098640441894531,0.4589792490005493,0
-2.462223529815674,-0.02594470977783203,0.7908555269241333,0
-2.018979787826538,0.21959590911865234,1.0087668895721436,0
-1.3907276391983032,0.4891519546508789,1.1275091171264648,0
-0.8220728039741516,0.838043212890625,1.1230324506759644,0
-0.420590877532959,1.0920820236206055,1.0022318363189697,0
-0.2145398110151291,1.2470426559448242,0.8635555505752563,0
-0.040609657764434814,1.4156227111816406,0.806990385055542,0
-0.017597883939743042,1.5188627243041992,0.7231566905975342,0
0.0039032697677612305,1.573333740234375,0.613584041595459,0
-0.022167295217514038,1.435201644897461,0.32476043701171875,0
-0.33608657121658325,1.4510183334350586,-0.282672643661499,0
-0.6048101186752319,1.0920982360839844,-1.1628751754760742,0
-0.7778664827346802,0.722294807434082,-2.0835070610046387,0
-0.8310973048210144,0.2842845916748047,-2.9468283653259277,0
-0.7887816429138184,-0.10658550262451172,-3.6900458335876465,0
-0.9927194118499756,-0.35640907287597656,-4.030750274658203,0
-0.973162829875946,-0.7663478851318359,-3.7546982765197754,0
-0.6973311305046082,-1.1570863723754883,-3.1221749782562256,0
-0.5085307359695435,-1.6056084632873535,-2.3328194618225098,0
-0.42763960361480713,-1.8061790466308594,-1.6580959558486938,0
-0.3390348255634308,-2.063145160675049,-1.0370995998382568,0
-0.19550573825836182,-2.1401939392089844,-0.535649299621582,0
-0.3635255694389343,-2.210331439971924,-0.25270867347717285,0
-0.46272939443588257,-2.2262659072875977,-0.2086181640625,0
-0.5116797089576721,-2.245753765106201,-0.5462830066680908,0
-0.5260146260261536,-2.364621639251709,-0.9280924797058105,0
-0.5137152075767517,-2.4608163833618164,-1.3089463710784912,0
-0.5621829628944397,-2.7232742309570312,-1.6581051349639893,0
-0.6085613965988159,-3.010753631591797,-1.8682234287261963,0
-0.7032406330108643,-3.438107490539551,-1.9418742656707764,0
-0.6587764024734497,-3.9502835273742676,-1.8696682453155518,0
-0.6941103339195251,-4.3249664306640625,-1.8573291301727295,0
-0.878211259841919,-4.672091484069824,-2.0130774974823,0
-1.0195121765136719,-4.750055313110352,-2.109992742538452,0
-0.977148175239563,-4.681217193603516,-1.987926721572876,0
-0.9792376160621643,-4.398998737335205,-1.819028615951538,0
-0.9668784737586975,-3.90618896484375,-1.61275315284729,0
-0.9428742527961731,-3.456653118133545,-1.3928732872009277,0
-0.8692049384117126,-3.1821508407592773,-1.2473790645599365,0
-0.9301494359970093,-3.003816604614258,-1.1829352378845215,0
-0.8242124915122986,-3.019486904144287,-1.2283697128295898,0
-0.92242032289505,-3.1260108947753906,-1.2929134368896484,0
-0.9665079712867737,-3.423588275909424,-1.3935306072235107,0
-1.0116891860961914,-3.5412259101867676,-1.3798067569732666,0
-1.0343917608261108,-3.5533289909362793,-1.2756743431091309,0
-0.9966621994972229,-3.5580105781555176,-1.1482784748077393,0
-1.0445902347564697,-3.646108627319336,-1.0478863716125488,0
-1.1064749956130981,-3.745755672454834,-0.9505505561828613,0
-1.105881929397583,-3.8043899536132812,-0.8608622550964355,0
-1.2534064054489136,-3.8771471977233887,-0.7617998123168945,0
-1.393487572669983,-3.935237407684326,-0.6534090042114258,0
-1.5332081317901611,-3.930792808532715,-0.530907392501831,0
-1.597946047782898,-3.882953643798828,-0.38474082946777344,0
-1.704572319984436,-3.779698371887207,-0.2365550994873047,0
-1.7089720964431763,-3.6664023399353027,0.009188175201416016,0
-1.6896333694458008,-3.523803234100342,0.26851987838745117,0
-1.6579545736312866,-3.3350367546081543,0.5770931243896484,0
-1.620542049407959,-2.9637327194213867,0.9538168907165527,0
-1.5987714529037476,-2.572446823120117,1.3144984245300293,0
-1.5471824407577515,-2.0484957695007324,1.6203241348266602,0
-1.343360185623169,-1.4921045303344727,1.930379867553711,0
-0.9269203543663025,-0.8550634384155273,2.286700487136841,0
-0.2900763750076294,-0.13687992095947266,2.690112590789795,0
0.4526597857475281,0.6896228790283203,3.051882028579712,0
1.191778302192688,1.6949377059936523,3.162860631942749,0
2.0520412921905518,2.8564538955688477,3.050009250640869,0
2.8514678478240967,4.180270195007324,2.7999837398529053,0
3.54115891456604,5.641020774841309,2.667802095413208,0
3.6260008811950684,7.236748695373535,2.9817135334014893,0
2.730212450027466,8.369380950927734,3.9858558177948,0
1.7737940549850464,8.6704740524292,5.423821926116943,0
0.7822716236114502,8.225748062133789,6.964612007141113,0
-0.1583363264799118,7.4290666580200195,8.153701782226562,0
-0.8149100542068481,6.427512168884277,8.524774551391602,0
-1.0641448497772217,4.934852600097656,8.568965911865234,0
-0.9784226417541504,2.614945411682129,8.200214385986328,0
-0.7864153385162354,-0.17603111267089844,6.83747673034668,0
-0.6085684299468994,-2.335400104522705,5.079411506652832,0
-0.5144588351249695,-3.399439811706543,2.738025665283203,0
-0.5514624118804932,-3.6123404502868652,0.20602846145629883,0
-0.7436957359313965,-1.989485740661621,-0.9032413959503174,0
-0.8949301242828369,0.36306285858154297,-1.5686242580413818,0
-0.907855212688446,2.7690353393554688,-2.6681783199310303,0
-0.8456113338470459,5.324739456176758,-4.211846351623535,0
-0.8187277317047119,7.848769187927246,-5.087470054626465,0
-1.3794023990631104,9.996774673461914,-4.8577494621276855,0
-2.1233553886413574,11.127800941467285,-4.503670692443848,0
-3.6975584030151367,10.965435028076172,-4.4179205894470215,0
-6.046265602111816,9.75250244140625,-4.576356410980225,0
-7.605521202087402,7.914297103881836,-4.473754405975342,0
-6.297885417938232,5.6318769454956055,-3.38791561126709,0
-4.669071197509766,3.9455909729003906,-1.862077236175537,0
-3.88163161277771,3.823763847351074,-1.720576286315918,0
-3.6143171787261963,4.056801795959473,-2.4114718437194824,0
-3.1453475952148438,3.673741340637207,-2.8690919876098633,0
-3.1790518760681152,2.987778663635254,-3.0717062950134277,0
-3.507390022277832,2.117814064025879,-3.1747183799743652,0
-3.3708856105804443,1.121232032775879,-2.996279716491699,0
-2.7399444580078125,0.3045368194580078,-3.5857431888580322,0
-2.046954393386841,-0.0139312744140625,-3.96397066116333,0
-1.4502707719802856,0.06404876708984375,-4.149401664733887,0
-0.7144221067428589,0.4138517379760742,-3.991957902908325,0
-0.056206583976745605,0.8168191909790039,-3.621577024459839,0
0.47061941027641296,1.1184558868408203,-3.1902146339416504,0
0.8167043924331665,1.171518325805664,-3.1384544372558594,0
1.0030230283737183,0.8534059524536133,-3.3384389877319336,0
1.249550700187683,0.130889892578125,-3.858004570007324,0
1.3117179870605469,-0.6747674942016602,-4.359867095947266,0
1.1565253734588623,-1.5817933082580566,-4.809726238250732,0
0.8994592428207397,-2.1634654998779297,-5.0305938720703125,0
0.6413543820381165,-2.2542691230773926,-5.19504451751709,0
0.5041581988334656,-1.9737544059753418,-5.171199798583984,0
0.3410048484802246,-1.4822678565979004,-5.032295227050781,0
0.25778907537460327,-0.9162578582763672,-4.726491928100586,0
0.007813453674316406,-0.5316381454467773,-4.120312213897705,0
-0.15800368785858154,-0.39765167236328125,-3.359687089920044,0
-0.13699281215667725,-0.4447345733642578,-2.607234239578247,0
-0.08726304769515991,-0.6127614974975586,-2.1002681255340576,0
0.04381406307220459,-0.8391599655151367,-1.746450662612915,0
0.18897467851638794,-1.1259689331054688,-1.5063457489013672,0
0.3359747529029846,-1.393998146057129,-1.259106159210205,0
0.4651932716369629,-1.676711082458496,-0.9957398176193237,0
0.602482259273529,-1.9383211135864258,-0.7401155233383179,0
0.6614662408828735,-2.1025609970092773,-0.5753316879272461,0
0.5350697636604309,-2.2893757820129395,-0.6799794435501099,0
0.2911011576652527,-2.532350540161133,-1.0418058633804321,0
0.021429061889648438,-2.786118984222412,-1.3832743167877197,0
-0.32343727350234985,-2.9146270751953125,-1.569985270500183,0
-0.563950777053833,-2.817800998687744,-1.7043207883834839,0
-0.7388681173324585,-2.5127925872802734,-1.8239408731460571,0
-0.8084133863449097,-2.1363182067871094,-1.690932273864746,0
-0.7093965411186218,-1.7698545455932617,-1.3929028511047363,0
-0.5382857918739319,-1.463552474975586,-1.3507945537567139,0
-0.33860379457473755,-1.155120849609375,-1.2534453868865967,0
-0.12738513946533203,-0.9354629516601562,-1.012015461921692,0
0.13558971881866455,-0.9981813430786133,-0.7337312698364258,0
0.4023709297180176,-1.0846757888793945,-0.5715789794921875,0
0.6895948648452759,-1.1733207702636719,-0.4013787508010864,0
0.8584680557250977,-1.2090263366699219,-0.23315823078155518,0
1.0381863117218018,-1.184610366821289,-0.0028220415115356445,0
1.209538221359253,-1.1024904251098633,0.198433518409729,0
1.4369677305221558,-0.881434440612793,0.3372039794921875,0
1.656411051750183,-0.7655429840087891,0.4085559844970703,0
1.703626036643982,-0.5586776733398438,0.40282368659973145,0
1.7039872407913208,-0.4260215759277344,0.34863007068634033,0
1.7199249267578125,-0.2670888900756836,0.16233468055725098,0
1.7588087320327759,-0.22304248809814453,0.028378009796142578,0
1.8732988834381104,-0.33678340911865234,-0.14667612314224243,0
1.6802399158477783,-0.5004358291625977,-0.4037541151046753,0
1.356705665588379,-0.5657072067260742,-0.5917497873306274,0
1.1088221073150635,-0.6763410568237305,-0.49424639344215393,0
1.0137856006622314,-0.8396072387695312,-0.292530357837677,0
0.8444057703018188,-1.019516944885254,-0.24327540397644043,0
0.746337890625,-1.220677375793457,-0.19469255208969116,0
0.6664074659347534,-1.1656160354614258,-0.13521599769592285,0
0.5517053604125977,-0.9574670791625977,-0.17220664024353027,0
0.36146223545074463,-0.852290153503418,-0.21654260158538818,0
0.17711830139160156,-0.6706256866455078,-0.15826919674873352,0
0.03939998149871826,-0.6636295318603516,0.06192213296890259,0
0.015216946601867676,-0.6947746276855469,0.19467175006866455,0
-0.01756596565246582,-0.7066211700439453,0.294849157333374,0
-0.0375523567199707,-0.802006721496582,0.3696720004081726,0
-0.04965752363204956,-0.9258460998535156,0.41229385137557983,0
0.005843043327331543,-1.0661640167236328,0.43276286125183105,0
0.03791797161102295,-1.0962209701538086,0.3550514280796051,0
0.16592663526535034,-1.154825210571289,0.2992783784866333,0
0.23645013570785522,-1.1151905059814453,0.20855501294136047,0
0.4193273186683655,-1.070693016052246,0.23884905874729156,0
0.527983546257019,-0.9543848037719727,0.33285483717918396,0
0.619855523109436,-0.7854547500610352,0.43533915281295776,0
0.7788566946983337,-0.6452703475952148,0.5649363994598389,0
0.8255388736724854,-0.5218181610107422,0.6325036287307739,0
0.9705468416213989,-0.3911781311035156,0.6566806435585022,0
1.0894794464111328,-0.21032238006591797,0.6516997814178467,0
1.1682567596435547,-0.07498741149902344,0.6104971766471863,0
1.0704364776611328,0.034033775329589844,0.46124446392059326,0
1.0281254053115845,0.15264320373535156,0.3286593556404114,0
0.917037308216095,0.37168216705322266,0.27023935317993164,0
0.8210001587867737,0.7316713333129883,0.1518644392490387,0
0.7736733555793762,1.2395801544189453,0.13342159986495972,0
0.8158568143844604,1.6441221237182617,0.2287684977054596,0
0.8830075263977051,2.0195255279541016,0.4182458221912384,0
0.9701934456825256,2.363409996032715,0.5553730726242065,0
1.125211477279663,2.5203723907470703,0.7691868543624878,0
1.2880284786224365,2.6054210662841797,0.9544457793235779,0
1.381998062133789,2.570819854736328,1.063441514968872,0
1.4955735206604004,2.4525833129882812,1.1034491062164307,0
1.6477537155151367,2.2842941284179688,1.2110326290130615,0
1.7880964279174805,2.0947113037109375,1.2283214330673218,0
1.928351640701294,1.8671283721923828,1.23438560962677,0
2.0538852214813232,1.7044305801391602,1.260603904724121,0
2.140526056289673,1.5945920944213867,1.268779993057251,0
2.188236951828003,1.5016794204711914,1.4168492555618286,0
2.2066380977630615,1.392186164855957,1.5444563627243042,0
2.1551012992858887,1.3187131881713867,1.6705608367919922,0
2.2154133319854736,1.2285985946655273,1.8668079376220703,0
2.237004280090332,1.219862937927246,2.0874886512756348,0
2.2582757472991943,1.1656475067138672,2.272545576095581,0
2.3367207050323486,1.0588102340698242,2.460062265396118,0
2.4509482383728027,0.911320686340332,2.551475763320923,0
2.531479835510254,0.773402214050293,2.6157126426696777,0
2.6067047119140625,0.6928501129150391,2.6070406436920166,0
2.640352487564087,0.6767406463623047,2.575284242630005,0
2.776059865951538,0.6962890625,2.5753331184387207,0
2.970693588256836,0.8805570602416992,2.4298934936523438,0
3.1954410076141357,1.1552009582519531,2.031041383743286,0
3.2822985649108887,1.515310287475586,1.37358820438385,0
3.292494297027588,2.1186370849609375,0.7494401931762695,0
3.071423292160034,2.9123611450195312,0.2474372386932373,0
3.008411169052124,3.8365468978881836,-0.1823132038116455,0
3.043520450592041,4.544386863708496,-0.5108591318130493,0
3.1962203979492188,4.766014099121094,-0.745374321937561,0
3.3044850826263428,4.39927864074707,-0.9648613929748535,0
3.08880352973938,4.004472732543945,-1.4931578636169434,0
2.8681271076202393,3.5601625442504883,-2.0827455520629883,0
2.4250478744506836,2.9158830642700195,-2.54837703704834,0
2.049327850341797,2.3422651290893555,-2.729952812194824,0
1.6386830806732178,1.8872413635253906,-2.694133996963501,0
1.1674647331237793,1.639327049255371,-2.6704273223876953,0
0.7086503505706787,1.5243110656738281,-2.691619873046875,0
0.22062760591506958,1.3939094543457031,-2.6944870948791504,0
-0.3171624541282654,1.3869333267211914,-2.608741044998169,0
-0.7387795448303223,1.4028568267822266,-2.447666645050049,0
-1.0018770694732666,1.2216529846191406,-2.229401111602783,0
-1.486168622970581,0.9559965133666992,-1.9706242084503174,0
-1.8351919651031494,0.4816713333129883,-1.5700793266296387,0
-2.141180992126465,0.17908191680908203,-1.0599321126937866,0
-2.2025704383850098,-0.08124828338623047,-0.4575194716453552,0
-2.167344808578491,-0.17284011840820312,0.13825321197509766,0
-1.960625171661377,-0.0865335464477539,0.6087270975112915,0
-1.7991770505905151,0.06261253356933594,0.884387731552124,0
-1.5903480052947998,0.3055753707885742,1.0126869678497314,0
-1.4994771480560303,0.5705327987670898,0.9786361455917358,0
-1.468919038772583,0.6972951889038086,0.8606168031692505,0
-1.500158429145813,0.6669540405273438,0.6245517730712891,0
-1.6873846054077148,0.6710853576660156,0.307999849319458,0
-2.016935110092163,0.6380281448364258,0.0059168338775634766,0
-2.417924404144287,0.5942049026489258,-0.3036928176879883,0
-2.7031660079956055,0.6161947250366211,-0.5301134586334229,0
-2.6737213134765625,0.6370172500610352,-0.6783556938171387,0
-2.3580915927886963,0.5346651077270508,-0.7553145885467529,0
-2.091765880584717,0.3689298629760742,-0.7962193489074707,0
-1.8785868883132935,0.1685314178466797,-0.9561495780944824,0
-1.5046387910842896,0.07456207275390625,-1.074561357498169,0
-1.2201341390609741,-0.16897296905517578,-1.1514317989349365,0
-1.0479499101638794,-0.43999385833740234,-1.174668312072754,0
-0.8929742574691772,-0.7863349914550781,-1.1968724727630615,0
-0.558768630027771,-1.0406970977783203,-1.1937227249145508,0
-0.4185626208782196,-1.1986083984375,-1.2843713760375977,0
-0.22878891229629517,-1.3536968231201172,-1.3677093982696533,0
-0.05913360416889191,-1.427271842956543,-1.5318317413330078,0
0.09294824302196503,-1.5272855758666992,-1.6399059295654297,0
0.30204901099205017,-1.596562385559082,-1.7800954580307007,0
0.3917359411716461,-1.6377406120300293,-1.9568805694580078,0
0.5113746523857117,-1.8782100677490234,-2.0767574310302734,0
0.48953962326049805,-2.0859017372131348,-2.3215160369873047,0
0.3357822895050049,-2.177318572998047,-2.631105661392212,0
0.23717889189720154,-2.288949966430664,-2.8884100914001465,0
0.09857933223247528,-2.63588809967041,-3.148913860321045,0
0.025862157344818115,-2.993101119995117,-3.2932026386260986,0
-0.07178895175457001,-3.3295130729675293,-3.28328537940979,0
-0.13895437121391296,-3.7169876098632812,-3.119288921356201,0
-0.24248173832893372,-4.0695648193359375,-2.8824455738067627,0
-0.4423498809337616,-4.447201251983643,-2.630072593688965,0
-0.611413836479187,-4.711355209350586,-2.2017529010772705,0
-0.7061581015586853,-4.905219078063965,-1.9827868938446045,0
-0.8508933186531067,-4.9378862380981445,-1.8872058391571045,0
-1.0002801418304443,-4.814386367797852,-1.8287532329559326,0
-1.1644889116287231,-4.465632438659668,-1.7714369297027588,0
-1.311315655708313,-3.9302196502685547,-1.6314811706542969,0
-1.3174234628677368,-3.2466368675231934,-1.509453535079956,0
-1.377307415008545,-2.6233134269714355,-1.3308117389678955,0
-1.4055216312408447,-2.244399070739746,-1.2269487380981445,0
-1.505595088005066,-2.0306930541992188,-1.1284263134002686,0
-1.617709994316101,-1.9891228675842285,-1.1022908687591553,0
-1.6963608264923096,-2.0165786743164062,-1.0744733810424805,0
-1.7845385074615479,-2.0818357467651367,-0.9805035591125488,0
-1.8271026611328125,-2.2160143852233887,-0.8824284076690674,0
-1.941285252571106,-2.3257956504821777,-0.7921028137207031,0
-2.023970365524292,-2.492614269256592,-0.7450902462005615,0
-2.08221697807312,-2.529947280883789,-0.6669943332672119,0
-2.0175886154174805,-2.5312795639038086,-0.5480155944824219,0
-2.0475211143493652,-2.6209144592285156,-0.3906075954437256,0
-2.0114810466766357,-2.7269978523254395,-0.15401315689086914,0
-1.8736462593078613,-2.7896041870117188,0.05160665512084961,0
-1.6632177829742432,-2.8347816467285156,0.18999099731445312,0
-1.5672880411148071,-2.7761282920837402,0.27984070777893066,0
-1.296314001083374,-2.6708297729492188,0.3972132205963135,0
-0.9481480121612549,-2.559174060821533,0.5819571018218994,0
-0.7259219884872437,-2.368931770324707,0.7564446926116943,0
-0.547764003276825,-2.082864761352539,0.9910705089569092,0
-0.27645590901374817,-1.7316780090332031,1.3179740905761719,0
0.21808409690856934,-1.293339729309082,1.7545092105865479,0
0.5756171941757202,-0.8723487854003906,1.8940539360046387,0
1.014845609664917,-0.2191171646118164,1.9805107116699219,0
1.3949586153030396,0.6094427108764648,2.0329480171203613,0
1.8423669338226318,1.8575868606567383,2.0996360778808594,0
1.9799147844314575,3.1045217514038086,2.0544729232788086,0
1.8559181690216064,4.204770088195801,2.0759084224700928,0
1.4689037799835205,5.04843807220459,2.3866360187530518,0
1.1587574481964111,5.252476692199707,3.2110018730163574,0
0.9624202251434326,4.61298942565918,4.528470516204834,0
0.6870230436325073,3.681720733642578,5.934056758880615,0
0.4323851466178894,2.79233455657959,6.728357315063477,0
0.15713128447532654,2.006063461303711,6.840039253234863,0
-0.05133160948753357,1.4088668823242188,5.882299423217773,0
-0.21477822959423065,1.3623638153076172,4.021798610687256,0
-0.1311528980731964,2.83743953704834,2.2522482872009277,0
-0.1341663897037506,5.175551414489746,1.1187796592712402,0
-0.788386881351471,8.288400650024414,-0.017928361892700195,0
-1.455376148223877,11.654279708862305,-1.337536096572876,0
-2.1261444091796875,14.302871704101562,-2.2948477268218994,0
-2.878706693649292,15.764508247375488,-2.411600112915039,0
-3.9770913124084473,14.764615058898926,-2.9118471145629883,0
-4.326554298400879,11.154109001159668,-3.500722885131836,0
-4.810559272766113,6.57108211517334,-3.560415744781494,0
-5.694520473480225,3.338433265686035,-2.9078850746154785,0
-6.544292449951172,2.0202436447143555,-2.123934745788574,0
-7.1448798179626465,1.8839845657348633,-1.5905582904815674,0
-7.162950038909912,2.0263118743896484,-0.44417691230773926,0
-6.127967834472656,1.841629981994629,0.882042407989502,0
-4.225577354431152,1.2711725234985352,1.4020771980285645,0
-2.3959412574768066,0.6221942901611328,1.1023821830749512,0
-1.0107176303863525,-0.1699056625366211,0.15503287315368652,0
-0.06263381242752075,-1.0276718139648438,-1.2085564136505127,0
0.13527461886405945,-1.4658584594726562,-2.79402756690979,0
0.03614777326583862,-1.374556064605713,-3.985460042953491,0
0.10774147510528564,-0.9549798965454102,-4.6598052978515625,0
0.3425227999687195,-0.45394039154052734,-5.109067440032959,0
0.4911664128303528,0.058712005615234375,-5.382619857788086,0
0.4525289535522461,0.4294452667236328,-5.424227714538574,0
0.8565119504928589,0.5504827499389648,-5.235583782196045,0
1.3041115999221802,0.41012096405029297,-4.9720869064331055,0
1.5344388484954834,0.09263324737548828,-4.6436381340026855,0
1.6670206785202026,-0.19322872161865234,-4.282214164733887,0
1.6489758491516113,-0.4968757629394531,-4.045012474060059,0
1.4796611070632935,-0.5877199172973633,-3.840857982635498,0
1.5591506958007812,-0.4603605270385742,-3.51668643951416,0
1.3856430053710938,-0.16219520568847656,-3.1226165294647217,0
1.014809250831604,0.24949169158935547,-2.5571084022521973,0
0.7337920665740967,0.6070213317871094,-1.8631788492202759,0
0.4392484426498413,0.6445770263671875,-1.1400413513183594,0
0.36779844760894775,0.3978719711303711,-0.5056161880493164,0
0.253889799118042,-0.09242725372314453,-0.118927001953125,0
0.17648756504058838,-0.665827751159668,-0.03690052032470703,0
0.20226776599884033,-1.2551393508911133,-0.0824742317199707,0
0.21419310569763184,-1.8721323013305664,-0.229752779006958,0
0.1911710500717163,-2.2440381050109863,-0.5820659399032593,0
0.2964273691177368,-2.5432586669921875,-0.9340006113052368,0
0.5403724908828735,-2.796161651611328,-1.3267942667007446,0
0.5625060796737671,-3.0026683807373047,-1.6896685361862183,0
0.5041826963424683,-3.0981693267822266,-1.8559435606002808,0
0.36511480808258057,-2.9513092041015625,-1.8665202856063843,0
0.2837092876434326,-2.9617185592651367,-1.8530986309051514,0
0.19754326343536377,-2.796884536743164,-1.9447720050811768,0
-0.0035060644149780273,-2.476243019104004,-1.9809399843215942,0
-0.2191779613494873,-2.172262191772461,-2.0161194801330566,0
-0.4879392981529236,-1.6985650062561035,-2.0352160930633545,0
-0.7791640758514404,-1.1223535537719727,-2.099963903427124,0
-0.995466411113739,-0.6685247421264648,-2.119004249572754,0
-1.1023578643798828,-0.37506961822509766,-1.9797877073287964,0
-0.9311833381652832,-0.22502708435058594,-1.665242314338684,0
-0.7169351577758789,-0.2588462829589844,-1.1993247270584106,0
-0.5314021110534668,-0.45232105255126953,-0.647097110748291,0
-0.3960661292076111,-0.8984718322753906,-0.24314117431640625,0
-0.17925381660461426,-1.305211067199707,0.06732678413391113,0
0.1412646770477295,-1.6535301208496094,0.19581806659698486,0
0.4199836254119873,-1.9459214210510254,0.19976115226745605,0
0.6068930625915527,-1.9337177276611328,0.167161226272583,0
0.8679012060165405,-1.789574146270752,0.2726864814758301,0
0.976669192314148,-1.6308956146240234,-0.0796360969543457,0
1.113381266593933,-1.3573017120361328,-0.418822705745697,0
1.141866683959961,-0.935511589050293,-0.6253187656402588,0
1.0167571306228638,-0.6120452880859375,-0.6559362411499023,0
1.001330852508545,-0.4418001174926758,-0.6496703028678894,0
0.7555429935455322,-0.17827796936035156,-0.5539917945861816,0
0.5232466459274292,-0.04159259796142578,-0.4307873547077179,0
0.37625062465667725,-0.048381805419921875,-0.28208285570144653,0
0.2883535623550415,-0.17697906494140625,-0.16775494813919067,0
0.17604374885559082,-0.35311317443847656,-0.08102458715438843,0
0.027320265769958496,-0.49062061309814453,-0.05343127250671387,0
-0.10783302783966064,-0.6254024505615234,0.015476346015930176,0
-0.145982027053833,-0.7120447158813477,0.12607347965240479,0
-0.1949913501739502,-0.8127985000610352,0.17366287112236023,0
-0.16632109880447388,-0.8679018020629883,0.2711602747440338,0
-0.11021912097930908,-0.8965559005737305,0.3518373370170593,0
0.05232417583465576,-0.9418468475341797,0.4062250256538391,0
0.16817891597747803,-1.0133132934570312,0.3506107032299042,0
0.2829238176345825,-1.0559139251708984,0.2205468714237213,0
0.2913781404495239,-1.1055421829223633,0.09691515564918518,0
0.2796590328216553,-1.0784912109375,-0.029958024621009827,0
0.36971086263656616,-0.9557342529296875,-0.00411437451839447,0
0.5923581123352051,-0.8665018081665039,0.13907086849212646,0
0.7656089067459106,-0.8202953338623047,0.2467932254076004,0
0.8628924489021301,-0.652033805847168,0.22572477161884308,0
1.1160943508148193,-0.5100917816162109,0.28638550639152527,0
1.2068915367126465,-0.27486515045166016,0.32562416791915894,0
1.3003103733062744,-0.025361061096191406,0.331424355506897,0
1.3006305694580078,0.20972251892089844,0.3683994710445404,0
1.303558349609375,0.32520103454589844,0.5201541781425476,0
1.3163480758666992,0.5148830413818359,0.5014670491218567,0
1.3295246362686157,0.7140789031982422,0.5220707058906555,0
1.3285493850708008,0.9442844390869141,0.6269171833992004,0
1.2919015884399414,1.0810871124267578,0.7270368337631226,0
1.3581116199493408,1.1987066268920898,0.7480664253234863,0
1.361985445022583,1.280400276184082,0.761570930480957,0
1.4038630723953247,1.3405284881591797,0.7123132348060608,0
1.445263385772705,1.328883171081543,0.6003016829490662,0
1.3806031942367554,1.3077211380004883,0.5165526270866394,0
1.3796535730361938,1.2172861099243164,0.542893648147583,0
1.4066439867019653,1.1556997299194336,0.701285183429718,0
1.4496521949768066,1.110966682434082,0.8650334477424622,0
1.5302506685256958,1.0328311920166016,0.9145186543464661,0
1.5429680347442627,0.9930715560913086,0.9432384371757507,0
1.655454397201538,1.0681571960449219,0.956384539604187,0
1.6116300821304321,1.150360107421875,0.9590998888015747,0
1.5791490077972412,1.1990509033203125,1.1361212730407715,0
1.6060283184051514,1.1808109283447266,1.3776136636734009,0
1.5991649627685547,1.1817646026611328,1.5205016136169434,0
1.6734793186187744,1.2090082168579102,1.5258824825286865,0
1.7067768573760986,1.1094427108764648,1.5918514728546143,0
1.7850658893585205,0.9549427032470703,1.6535112857818604,0
1.8795006275177002,0.8914127349853516,1.6174107789993286,0
2.001708984375,0.8469934463500977,1.5169339179992676,0
2.0842278003692627,0.8814334869384766,1.2491493225097656,0
2.214754343032837,1.1309223175048828,0.8523666262626648,0
2.1362428665161133,1.698019027709961,0.5323583483695984,0
2.089683771133423,2.424527168273926,0.3441556990146637,0
1.993719220161438,3.281538963317871,0.3161025941371918,0
1.903701901435852,4.058445930480957,0.2920306622982025,0
1.9203977584838867,4.561610221862793,0.15365839004516602,0
2.0897133350372314,4.626350402832031,0.03641241788864136,0
2.306828260421753,4.499495506286621,-0.08914786577224731,0
2.5482513904571533,4.155007362365723,-0.1829375922679901,0
2.7228803634643555,3.8610267639160156,-0.2645735740661621,0
2.887902021408081,3.572157859802246,-0.34620359539985657,0
3.0145976543426514,3.3745851516723633,-0.6362099647521973,0
3.046239137649536,3.2420129776000977,-0.9674010276794434,0
2.8186864852905273,2.9856033325195312,-1.356871247291565,0
2.404521942138672,2.689373016357422,-1.6828148365020752,0
1.88383150100708,2.2985620498657227,-1.9952987432479858,0
1.3439741134643555,1.8828125,-2.2218234539031982,0
0.6303186416625977,1.6120882034301758,-2.3325626850128174,0
-0.029180943965911865,1.445694923400879,-2.350273847579956,0
-0.5292091369628906,1.1659927368164062,-2.230214834213257,0
-1.0495271682739258,1.0289688110351562,-2.0491929054260254,0
-1.4207788705825806,0.78564453125,-1.8451042175292969,0
-1.804039716720581,0.5603437423706055,-1.5518383979797363,0
-2.15212082862854,0.32666683197021484,-1.2413314580917358,0
-2.3991012573242188,0.0894460678100586,-0.8333310484886169,0
-2.581813097000122,-0.10824966430664062,-0.3285295367240906,0
-2.5690996646881104,-0.10869407653808594,0.30649352073669434,0
-2.627049446105957,-0.0700235366821289,0.8208698034286499,0
-2.6317501068115234,-0.04965686798095703,1.1641602516174316,0
-2.561720848083496,0.06011009216308594,1.4265902042388916,0
-2.4120259284973145,0.09909820556640625,1.592881679534912,0
-2.225409984588623,0.14399051666259766,1.7296252250671387,0
-1.86236572265625,0.18283843994140625,1.7793879508972168,0
-1.6691832542419434,0.19884490966796875,1.6828758716583252,0
-1.573906421661377,0.2755470275878906,1.4149473905563354,0
-1.4611034393310547,0.539433479309082,0.8974893093109131,0
-1.2002235651016235,0.8228874206542969,0.12561392784118652,0
-0.9451411962509155,1.0853157043457031,-0.7146248817443848,0
-0.5916264057159424,1.3674612045288086,-1.6188879013061523,0
-0.05525892972946167,1.4470701217651367,-2.4466288089752197,0
0.23712918162345886,1.4777631759643555,-3.1247591972351074,0
0.4613693356513977,1.340407371520996,-3.424708366394043,0
0.5422092080116272,1.0568504333496094,-3.2248406410217285,0
0.5840718746185303,0.7012605667114258,-2.7519478797912598,0
0.5191335678100586,0.19924449920654297,-2.1243832111358643,0
0.3724384307861328,-0.3036174774169922,-1.4698197841644287,0
0.08004727959632874,-0.7837209701538086,-0.9427714347839355,0
-0.13924676179885864,-1.2749385833740234,-0.5230486392974854,0
-0.3097683787345886,-1.6245884895324707,-0.2361295223236084,0
-0.5484950542449951,-1.8691401481628418,-0.27237677574157715,0
-0.7782436609268188,-2.040152072906494,-0.5137767791748047,0
-0.9120444655418396,-2.2693729400634766,-0.9003851413726807,0
-0.987046480178833,-2.5687265396118164,-1.2028024196624756,0
-1.023972988128662,-3.0074400901794434,-1.4359028339385986,0
-1.0560253858566284,-3.202672004699707,-1.6600573062896729,0
-1.0952614545822144,-3.494309902191162,-1.727137804031372,0
-1.0318340063095093,-3.954030990600586,-1.6828241348266602,0
-1.061867356300354,-4.373538494110107,-1.749953269958496,0
-1.0896952152252197,-4.652456760406494,-1.782684087753296,0
-1.179936170578003,-4.738152503967285,-1.8725128173828125,0
-1.135934591293335,-4.688270092010498,-1.8449060916900635,0
-1.1854689121246338,-4.484010219573975,-1.6782431602478027,0
-1.2907395362854004,-4.116204738616943,-1.4871437549591064,0
-1.3106768131256104,-3.585326671600342,-1.3357479572296143,0
-1.338518738746643,-3.104641914367676,-1.1757915019989014,0
-1.5222530364990234,-2.9373860359191895,-1.1048755645751953,0
-1.6869492530822754,-3.0166120529174805,-1.0385196208953857,0
-1.8637208938598633,-3.201216697692871,-1.0169188976287842,0
-1.964020848274231,-3.417161464691162,-1.0731515884399414,0
-1.9615250825881958,-3.7626028060913086,-1.1423180103302002,0
-1.957025170326233,-3.988823890686035,-1.1309518814086914,0
-1.8363137245178223,-4.160600185394287,-1.077286720275879,0
-1.6383147239685059,-4.244639873504639,-1.0074198246002197,0
-1.526039719581604,-4.3892316818237305,-0.9740505218505859,0
-1.4516148567199707,-4.572746276855469,-0.9005825519561768,0
-1.3288766145706177,-4.747239112854004,-0.8277244567871094,0
-1.222358226776123,-4.94364070892334,-0.7149889469146729,0
-1.100855827331543,-5.094704627990723,-0.560375452041626,0
-0.9307975172996521,-5.17628288269043,-0.43845200538635254,0
-0.8511795997619629,-5.08767032623291,-0.2683985233306885,0
-0.7663958072662354,-4.917116641998291,-0.10834908485412598,0
-0.7004581093788147,-4.54707145690918,0.06000971794128418,0
-0.7583944201469421,-4.109085559844971,0.4611799716949463,0
-0.8417813777923584,-3.631805896759033,1.0302114486694336,0
-0.8785427808761597,-3.0600051879882812,1.5488479137420654,0
-0.7821458578109741,-2.4075374603271484,1.9106268882751465,0
-0.46318042278289795,-1.7741069793701172,2.089822292327881,0
-0.17422907054424286,-1.0940322875976562,2.1674256324768066,0
0.12391769886016846,-0.20101356506347656,2.0129482746124268,0
0.7627578377723694,0.8607702255249023,1.7822585105895996,0
1.6355183124542236,2.3652238845825195,1.5782227516174316,0
2.2073137760162354,3.992717742919922,1.5545694828033447,0
2.376620292663574,5.695806503295898,2.195129632949829,0
1.9864976406097412,7.017063140869141,3.7452621459960938,0
1.6112449169158936,7.1710615158081055,5.730713844299316,0
1.5399506092071533,6.841000556945801,7.7147932052612305,0
0.9479990005493164,6.676043510437012,9.047471046447754,0
0.48720782995224,6.358794212341309,9.735771179199219,0
0.490173876285553,5.288159370422363,9.904528617858887,0
0.895552933216095,3.356614112854004,9.785284996032715,0
1.6808269023895264,0.5839509963989258,9.400298118591309,0
2.394240140914917,-2.3135323524475098,8.067327499389648,0
3.0289032459259033,-4.443510055541992,6.240968227386475,0
3.3535196781158447,-6.091407299041748,3.5651602745056152,0
3.258390188217163,-7.372767925262451,0.9164047241210938,0
2.5612034797668457,-7.719307899475098,-1.1278796195983887,0
2.17834210395813,-6.252718448638916,-1.9690873622894287,0
1.9327759742736816,-3.9905362129211426,-3.949111223220825,0
1.8182501792907715,-1.552384376525879,-6.259692668914795,0
2.0923995971679688,1.2893552780151367,-7.6315765380859375,0
2.122173309326172,4.908572196960449,-7.836193084716797,0
0.5887219905853271,8.618510246276855,-7.555357456207275,0
-2.055476188659668,11.571422576904297,-6.914556503295898,0
-5.052308082580566,13.761981964111328,-5.2390456199646,0
-7.080995559692383,14.327045440673828,-3.732731819152832,0
-7.035914421081543,13.497895240783691,-2.2749452590942383,0
-6.3193559646606445,12.11409854888916,-0.612095832824707,0
-6.390624046325684,11.501481056213379,0.5141911506652832,0
-7.210028171539307,12.24246597290039,-0.38816237449645996,0
-8.210007667541504,13.113539695739746,-1.3802235126495361,0
-7.268893718719482,12.652249336242676,-0.27154111862182617,0
-5.573862552642822,10.60263442993164,1.5256726741790771,0
-4.16433048248291,7.773690223693848,2.3522167205810547,0
-3.1088335514068604,4.710332870483398,1.843980073928833,0
-2.9109017848968506,1.5813617706298828,0.25511932373046875,0
-2.643881320953369,-1.5033578872680664,-1.7505664825439453,0
-2.2010040283203125,-3.787848949432373,-3.818660020828247,0
-1.603907823562622,-4.769848346710205,-5.343475341796875,0
-1.2745625972747803,-4.163957118988037,-6.059460639953613,0
-1.6171057224273682,-2.93984317779541,-5.754173755645752,0
-1.5382732152938843,-2.232027053833008,-5.326939582824707,0
-1.117201805114746,-1.9187803268432617,-5.206026554107666,0
-0.5644489526748657,-1.7475309371948242,-5.131575107574463,0
0.19196614623069763,-1.6264877319335938,-4.941377639770508,0
0.9058114290237427,-1.6525206565856934,-4.796961307525635,0
1.4683793783187866,-1.7807254791259766,-4.777312278747559,0
1.8389248847961426,-1.8532791137695312,-4.888549327850342,0
2.173933982849121,-1.6954855918884277,-4.85301399230957,0
2.1713602542877197,-1.3334522247314453,-4.798171520233154,0
1.85988187789917,-0.680546760559082,-4.89055871963501,0
1.369157314300537,0.15627288818359375,-5.005635738372803,0
0.9769359827041626,0.9362993240356445,-4.940554141998291,0
0.6148635149002075,1.5935821533203125,-4.590662956237793,0
0.45004236698150635,1.8946237564086914,-3.908115863800049,0
0.527193009853363,1.8307666778564453,-3.0168206691741943,0
0.7189900875091553,1.6109180450439453,-2.1147656440734863,0
0.8700892925262451,1.2427501678466797,-1.3829265832901,0
0.9112432599067688,0.7936210632324219,-0.8369220495223999,0
0.8400949239730835,0.2756462097167969,-0.42963218688964844,0
0.7358567118644714,-0.39012813568115234,-0.19230985641479492,0
0.5819575190544128,-0.9957666397094727,-0.11726617813110352,0
0.402393102645874,-1.6134405136108398,-0.09346842765808105,0
0.22872686386108398,-2.272230625152588,-0.1605358123779297,0
-8.107423782348633E-4,-2.8528709411621094,-0.28401660919189453,0
-0.29971712827682495,-3.4204788208007812,-0.43143558502197266,0
-0.667460024356842,-4.032822608947754,-0.7641363143920898,0
-0.9870722889900208,-4.443655490875244,-1.0949153900146484,0
-1.1083908081054688,-4.4189677238464355,-1.2845964431762695,0
-1.0896939039230347,-4.0023908615112305,-1.3614516258239746,0
-1.0253180265426636,-3.2732372283935547,-1.6100218296051025,0
-0.7584537267684937,-2.3584842681884766,-1.9704561233520508,0
-0.42679673433303833,-1.497361183166504,-2.3325116634368896,0
-0.1300695538520813,-0.6156978607177734,-2.135587453842163,0
0.18793082237243652,-0.06977081298828125,-2.003805637359619,0
0.5242032408714294,0.2030496597290039,-1.8124897480010986,0
0.8691051006317139,0.20795726776123047,-1.6743162870407104,0
1.1412701606750488,0.1318674087524414,-1.3527253866195679,0
1.3914647102355957,-0.04902935028076172,-0.9772109985351562,0
1.3856403827667236,-0.2771625518798828,-0.5768316984176636,0
1.2943012714385986,-0.4281740188598633,-0.17062222957611084,0
1.4455760717391968,-0.6814975738525391,0.05482017993927002,0
1.660385012626648,-0.9173955917358398,0.12775945663452148,0
1.6638696193695068,-1.1453666687011719,0.21978259086608887,0
1.7652015686035156,-1.2315149307250977,0.3878234624862671,0
1.7445909976959229,-1.2286396026611328,0.5119932889938354,0
1.7051478624343872,-1.1942758560180664,0.4800499677658081,0
1.6901581287384033,-1.2217302322387695,0.46652811765670776,0
1.5803385972976685,-1.0957746505737305,0.46662330627441406,0
1.3286491632461548,-1.0031700134277344,0.4010828733444214,0
1.0529427528381348,-1.0036897659301758,0.2718791365623474,0
0.8181463479995728,-0.9585790634155273,0.13856542110443115,0
0.6842032670974731,-0.9468193054199219,0.048413872718811035,0
0.4784109592437744,-0.8559770584106445,0.027647316455841064,0
0.36304771900177,-0.7554960250854492,0.09076321125030518,0
0.24458396434783936,-0.5234642028808594,0.11351269483566284,0
0.15363502502441406,-0.2628469467163086,0.20136100053787231,0
0.08977162837982178,-0.0956277847290039,0.3953564465045929,0
0.14149785041809082,-0.026506423950195312,0.6908320188522339,0
0.19390618801116943,-0.08886528015136719,0.9924085140228271,0
0.1752941608428955,-0.1725625991821289,1.1710352897644043,0
0.22219431400299072,-0.3517169952392578,1.2627066373825073,0
0.260583758354187,-0.523411750793457,1.324790120124817,0
0.15188491344451904,-0.8311347961425781,1.3189024925231934,0
0.300783634185791,-1.023697853088379,1.2499971389770508,0
0.40108364820480347,-1.2806015014648438,1.202260136604309,0
0.4646337032318115,-1.3913393020629883,1.142881155014038,0
0.5440092086791992,-1.411076545715332,1.1540406942367554,0
0.6366616487503052,-1.2275152206420898,1.0662808418273926,0
0.6825367212295532,-1.0201902389526367,1.006572961807251,0
0.8298198580741882,-0.8034400939941406,1.0297411680221558,0
0.9609752893447876,-0.4744138717651367,1.1591626405715942,0
1.1118288040161133,-0.2843017578125,1.2580000162124634,0
1.1626620292663574,-0.14205646514892578,1.327871561050415,0
1.1780788898468018,-0.06675052642822266,1.3393317461013794,0
1.1365821361541748,0.0038433074951171875,1.3060855865478516,0
1.088411569595337,0.07926559448242188,1.2730116844177246,0
0.9378810524940491,0.06622791290283203,1.2253577709197998,0
0.866690993309021,0.14655017852783203,1.2563703060150146,0
0.7862547636032104,0.25314998626708984,1.2585748434066772,0
0.7370992302894592,0.40033912658691406,1.2657458782196045,0
0.7381621599197388,0.6287174224853516,1.278076410293579,0
0.8130769729614258,0.8305854797363281,1.2503222227096558,0
0.9210749864578247,1.0705385208129883,1.1876081228256226,0
1.1123878955841064,1.2576665878295898,1.1477203369140625,0
1.2170385122299194,1.3083620071411133,1.0759791135787964,0
1.3665509223937988,1.2969160079956055,0.9700982570648193,0
1.558701992034912,1.330988883972168,0.8994141817092896,0
1.6592836380004883,1.3866100311279297,0.8064128160476685,0
1.8191126585006714,1.4326744079589844,0.8922600746154785,0
1.9207804203033447,1.4811630249023438,1.0278959274291992,0
1.9786126613616943,1.6492300033569336,1.084001898765564,0
2.079118490219116,1.8840703964233398,1.1176040172576904,0
2.2247068881988525,2.101881980895996,1.1953165531158447,0
2.243224620819092,2.300248146057129,1.2232983112335205,0
2.266494035720825,2.4337234497070312,1.2393889427185059,0
2.2487895488739014,2.519108772277832,1.3055403232574463,0
2.1828181743621826,2.49908447265625,1.4242208003997803,0
2.169034004211426,2.3833560943603516,1.609938621520996,0
2.1449713706970215,2.3107213973999023,1.6903507709503174,0
2.0575153827667236,2.257195472717285,1.7513693571090698,0
1.834135890007019,2.3040342330932617,1.7280163764953613,0
1.8695482015609741,2.39608097076416,1.7395203113555908,0
1.984143853187561,2.4519643783569336,1.7114274501800537,0
2.2349495887756348,2.5386533737182617,1.4877512454986572,0
2.377101421356201,2.758908271789551,1.060852289199829,0
2.5439159870147705,3.26322078704834,0.6674945950508118,0
2.567382335662842,3.6758508682250977,0.2521076500415802,0
2.711071491241455,3.9778318405151367,0.005885064601898193,0
2.958932876586914,3.746140480041504,-0.15508639812469482,0
3.2499423027038574,3.347344398498535,-0.46796315908432007,0
3.316756010055542,2.191082000732422,-1.0921270847320557,0
3.3031015396118164,1.3544187545776367,-1.4469503164291382,0
3.3390254974365234,0.6004362106323242,-1.2129125595092773,0
3.1000418663024902,0.09418678283691406,-0.943345844745636,0
2.7520081996917725,-0.19083690643310547,-1.0088145732879639,0
2.389190912246704,-0.3050241470336914,-1.261286973953247,0
2.081638813018799,-0.28434181213378906,-1.626166582107544,0
1.6769630908966064,-0.24366283416748047,-1.9076366424560547,0
1.084482192993164,-0.05864715576171875,-2.2573294639587402,0
0.3401280641555786,0.05293846130371094,-2.652696132659912,0
-0.3625945448875427,0.2537851333618164,-2.976177215576172,0
-0.8976444602012634,0.24492454528808594,-3.115539073944092,0
-1.3355680704116821,0.22746944427490234,-2.8003203868865967,0
-1.6969122886657715,0.24204254150390625,-2.168910264968872,0
-1.9635000228881836,0.3626213073730469,-1.332963228225708,0
-2.0708765983581543,0.5818099975585938,-0.486026406288147,0
-2.1981852054595947,0.7369709014892578,0.1912248134613037,0
-2.4288578033447266,1.010183334350586,0.7419408559799194,0
-2.5949113368988037,1.4614028930664062,1.1904430389404297,0
-2.8324151039123535,1.9686288833618164,1.5962271690368652,0
-2.9572150707244873,2.302165985107422,2.039638042449951,0
-3.139381170272827,2.528932571411133,2.254908561706543,0
-3.395362615585327,2.6511878967285156,2.1100189685821533,0
-3.4664018154144287,2.7071361541748047,1.7018219232559204,0
-3.5914835929870605,2.7756595611572266,1.1432151794433594,0
-3.4971156120300293,2.682070732116699,0.5613088607788086,0
-3.369150400161743,2.5987062454223633,-0.11588048934936523,0
-2.9649529457092285,2.5399484634399414,-0.9341961145401001,0
-2.392183303833008,2.4747047424316406,-1.8530597686767578,0
-1.5818382501602173,2.386425018310547,-2.6603503227233887,0
-0.7622892260551453,2.1009511947631836,-2.9917101860046387,0
-0.1312837302684784,1.7143754959106445,-2.900883913040161,0
0.2970447838306427,1.3679790496826172,-2.534282922744751,0
0.5525252819061279,0.7891845703125,-2.0477042198181152,0
0.612963080406189,0.16466999053955078,-1.5220314264297485,0
0.5740907192230225,-0.4867849349975586,-1.0826356410980225,0
0.5896856188774109,-1.2826995849609375,-0.9099621772766113,0
0.5411428213119507,-1.833446979522705,-0.8498678207397461,0
0.30948543548583984,-2.3714122772216797,-1.0215578079223633,0
0.09833087027072906,-2.853743553161621,-1.2475299835205078,0
-0.20360615849494934,-3.0105738639831543,-1.379014253616333,0
-0.3861877918243408,-3.2226991653442383,-1.5593202114105225,0
-0.4272821247577667,-3.597949504852295,-1.620487928390503,0
-0.6446660757064819,-3.7846765518188477,-1.7851827144622803,0
-0.7050949931144714,-3.902505874633789,-1.8722114562988281,0
-0.6986932754516602,-4.025679111480713,-1.9080784320831299,0
-0.8908072710037231,-4.223816394805908,-1.8803993463516235,0
-0.9468709826469421,-4.4780120849609375,-1.774371862411499,0
-0.8788204789161682,-4.707221031188965,-1.6708567142486572,0
-0.774737536907196,-4.8471503257751465,-1.5862786769866943,0
-0.7895038723945618,-4.945703506469727,-1.528069257736206,0
-0.8797584176063538,-5.019509315490723,-1.611513614654541,0
-0.8476172685623169,-4.810278415679932,-1.5904717445373535,0
-0.7913798093795776,-4.497781753540039,-1.510450839996338,0
-0.8280403017997742,-4.306981086730957,-1.4504015445709229,0
-0.9336782097816467,-4.166014194488525,-1.4175193309783936,0
-0.9311095476150513,-4.239872932434082,-1.5001800060272217,0
-0.9472951292991638,-4.260640621185303,-1.6669056415557861,0
-0.9801332354545593,-4.295431613922119,-1.7835428714752197,0
-1.0227742195129395,-4.29168701171875,-1.8428871631622314,0
-1.015567421913147,-4.378685474395752,-1.8256809711456299,0
-0.9875918030738831,-4.48710823059082,-1.7221720218658447,0
-0.9678003191947937,-4.569186687469482,-1.580110788345337,0
-1.0281503200531006,-4.589114665985107,-1.3587899208068848,0
-1.0539344549179077,-4.582871913909912,-1.043825387954712,0
-1.0548889636993408,-4.581631660461426,-0.7355396747589111,0
-1.081332802772522,-4.530414581298828,-0.4361419677734375,0
-1.0663803815841675,-4.465095043182373,-0.19100403785705566,0
-1.1227421760559082,-4.337751388549805,-0.014457225799560547,0
-1.0301622152328491,-4.234394550323486,0.14608979225158691,0
-1.0252622365951538,-4.0615458488464355,0.24743366241455078,0
-1.0218385457992554,-3.7950100898742676,0.31537580490112305,0
-0.9812265038490295,-3.4846606254577637,0.38024020195007324,0
-1.024438738822937,-3.0320167541503906,0.6012415885925293,0
-0.9923579692840576,-2.6568121910095215,0.89597487449646,0
-0.838559627532959,-2.1502938270568848,1.2389140129089355,0
-0.5862752199172974,-1.5117583274841309,1.3862414360046387,0
-0.19459640979766846,-0.780853271484375,1.3182666301727295,0
0.6001604795455933,0.3903932571411133,0.9403669834136963,0
1.3356205224990845,1.7687196731567383,0.3724792003631592,0
1.841273546218872,3.740139961242676,0.10338473320007324,0
1.7061245441436768,5.991569519042969,0.4169950485229492,0
0.966461181640625,8.410179138183594,1.7291908264160156,0
-0.22184669971466064,10.078449249267578,4.411716461181641,0
-0.16061487793922424,9.457541465759277,7.513038158416748,0
-0.028585225343704224,8.112105369567871,9.761354446411133,0
-0.19584716856479645,6.905181884765625,10.498159408569336,0
0.03366413712501526,5.57338809967041,10.383018493652344,0
0.7421915531158447,4.119607925415039,9.982436180114746,0
2.047173500061035,1.0119342803955078,9.110677719116211,0
3.216677665710449,-3.144653797149658,7.941710472106934,0
3.9354825019836426,-7.399840831756592,5.976547718048096,0
3.87903094291687,-10.209136962890625,3.3054428100585938,0
2.165384292602539,-9.779163360595703,0.7442624568939209,0
0.8303307890892029,-6.368875503540039,-1.2821202278137207,0
1.0407538414001465,-2.3414573669433594,-3.482191801071167,0
2.5554769039154053,1.651259422302246,-5.709763526916504,0
2.8852572441101074,5.7909088134765625,-8.033570289611816,0
0.8559418320655823,9.768592834472656,-9.701332092285156,0
-2.320354461669922,13.449968338012695,-10.124469757080078,0
-5.982059478759766,17.214889526367188,-8.49222183227539,0
-8.756933212280273,20.000133514404297,-6.523726463317871,0
-8.43140983581543,21.217714309692383,-4.044466495513916,0
-5.3032684326171875,18.628292083740234,0.05434417724609375,0
-3.9395699501037598,13.063333511352539,2.825137138366699,0
-3.8228354454040527,9.091897964477539,3.0285916328430176,0
-4.545943260192871,5.895907402038574,2.610705852508545,0
-4.4133758544921875,2.889246940612793,2.1553170680999756,0
-5.135496139526367,0.7088489532470703,0.7699694633483887,0
-5.7714409828186035,-1.3227815628051758,-0.7390944957733154,0
-5.068202972412109,-3.329099655151367,-2.1291754245758057,0
-3.9651777744293213,-4.092409133911133,-2.932577133178711,0
-3.7906551361083984,-3.1847057342529297,-2.721536159515381,0
-3.5227460861206055,-1.899829387664795,-2.4939916133880615,0
-2.7677085399627686,-0.6157360076904297,-2.623868465423584,0
-1.6222695112228394,0.7884283065795898,-2.6919121742248535,0
-0.32589542865753174,1.8561267852783203,-2.4680685997009277,0
1.4570143222808838,2.3343324661254883,-2.152193069458008,0
2.715031623840332,2.3155641555786133,-2.610652446746826,0
3.4555575847625732,1.845703125,-3.7434051036834717,0
3.782003164291382,0.8660964965820312,-4.897586345672607,0
3.7360732555389404,-0.21527099609375,-5.768764972686768,0
3.1883316040039062,-1.1270484924316406,-6.510303974151611,0
2.462726593017578,-1.8351359367370605,-6.916404724121094,0
1.6816755533218384,-2.1479697227478027,-6.845515727996826,0
0.9766234755516052,-2.096912384033203,-6.339696884155273,0
0.35895466804504395,-1.799494743347168,-5.533959865570068,0
-0.2500285506248474,-1.313385009765625,-4.670385360717773,0
-0.8223845958709717,-0.8801774978637695,-3.775714874267578,0
-0.9526054859161377,-0.6382198333740234,-2.9224767684936523,0
-0.9171687364578247,-0.5079917907714844,-2.1715915203094482,0
-0.7076249122619629,-0.5319070816040039,-1.596402645111084,0
-0.4520343840122223,-0.6184921264648438,-1.1457393169403076,0
-0.14472362399101257,-0.9515657424926758,-0.7414940595626831,0
0.16041409969329834,-1.3395042419433594,-0.4508758783340454,0
0.2547001838684082,-1.5385379791259766,-0.2063150405883789,0
0.260478138923645,-1.6759696006774902,-0.0259096622467041,0
0.2025943398475647,-1.886213779449463,0.02002096176147461,0
0.07963728904724121,-2.069087028503418,-0.055396080017089844,0
-0.07402282953262329,-2.3659820556640625,-0.2152693271636963,0
-0.32296431064605713,-2.561713695526123,-0.37991130352020264,0
-0.3464317321777344,-2.6277518272399902,-0.5588009357452393,0
-0.3144831657409668,-2.533161163330078,-0.7400639057159424,0
-0.2631534934043884,-2.213547706604004,-0.950140655040741,0
-0.1833254098892212,-1.8149995803833008,-0.9763047695159912,0
-0.12312471866607666,-1.4021368026733398,-0.9097660779953003,0
0.022853732109069824,-1.2666988372802734,-0.7674659490585327,0
0.05360579490661621,-1.1333847045898438,-0.5541864633560181,0
0.254102885723114,-1.1600227355957031,-0.41600072383880615,0
0.46673595905303955,-1.3010139465332031,-0.3505222797393799,0
0.6630967259407043,-1.3481674194335938,-0.3844093084335327,0
0.8985873460769653,-1.2752609252929688,-0.43209290504455566,0
1.1662609577178955,-1.13983154296875,-0.455704927444458,0
1.3681261539459229,-0.9109001159667969,-0.4291231036186218,0
1.6073646545410156,-0.7871484756469727,-0.2923564910888672,0
1.7837337255477905,-0.7159500122070312,-0.17191946506500244,0
1.9524394273757935,-0.6327362060546875,-0.07724857330322266,0
2.199772357940674,-0.5663089752197266,-0.04620945453643799,0
2.3127284049987793,-0.5286340713500977,-0.030706405639648438,0
2.41788387298584,-0.4743051528930664,0.01773214340209961,0
2.5633225440979004,-0.5133562088012695,-0.051660895347595215,0
2.4504647254943848,-0.6288785934448242,-0.05072808265686035,0
2.3425536155700684,-0.6844844818115234,-0.032143235206604004,0
2.167548894882202,-0.7927141189575195,-0.016531825065612793,0
2.049079418182373,-0.9248285293579102,-0.11763167381286621,0
1.9408613443374634,-1.0807991027832031,-0.16467702388763428,0
1.9236114025115967,-1.3251447677612305,-0.200128972530365,0
1.9155842065811157,-1.5189933776855469,-0.30793124437332153,0
1.607680082321167,-1.5164337158203125,-0.6269919872283936,0
1.0622985363006592,-1.3321418762207031,-0.47673362493515015,0
0.8811527490615845,-1.210444450378418,0.033500611782073975,0
0.8921868801116943,-1.2898893356323242,0.1587788462638855,0
0.7337990999221802,-1.2926445007324219,0.20379644632339478,0
0.5569392442703247,-1.1135311126708984,0.4164975881576538,0
0.41697973012924194,-0.8173427581787109,0.4353417754173279,0
0.16346681118011475,-0.5477161407470703,0.20553958415985107,0
-0.16222095489501953,-0.3525066375732422,0.06479692459106445,0
-0.49950653314590454,-0.19580078125,0.14430958032608032,0
-0.7284759283065796,-0.21860980987548828,0.2493189573287964,0
-0.9064629077911377,-0.23178958892822266,0.35987958312034607,0
-1.0119030475616455,-0.3549051284790039,0.602331280708313,0
-0.9732170104980469,-0.3104381561279297,0.7633699178695679,0
-0.9512224197387695,-0.2731199264526367,0.8551493883132935,0
-0.9726399183273315,-0.19748306274414062,0.9737741947174072,0
-0.8632373213768005,0.03120899200439453,1.0432827472686768,0
-0.7119348645210266,0.22628021240234375,1.006709098815918,0
-0.5170468091964722,0.24196147918701172,0.8022324442863464,0
-0.3365917503833771,0.3176240921020508,0.6003295183181763,0
-0.13042020797729492,0.3264932632446289,0.32022395730018616,0
0.0986168384552002,0.2854127883911133,0.10590578615665436,0
0.18286758661270142,0.2542400360107422,-0.03796868026256561,0
0.3163287043571472,0.22099876403808594,-0.013811836950480938,0
0.4129880666732788,0.1665506362915039,0.1993667185306549,0
0.5830278396606445,0.24393367767333984,0.3807653784751892,0
0.77619469165802,0.3262367248535156,0.5705587267875671,0
1.0092523097991943,0.3871278762817383,0.7828985452651978,0
1.2797904014587402,0.4146556854248047,0.9171184301376343,0
1.6404541730880737,0.5307826995849609,0.9013261795043945,0
1.8998050689697266,0.6564664840698242,0.8431233763694763,0
2.05265736579895,0.614750862121582,0.7950264811515808,0
2.2426631450653076,0.6855802536010742,0.7666460275650024,0
2.4412691593170166,0.8114023208618164,0.7531924247741699,0
2.5646657943725586,0.9634361267089844,0.7928657531738281,0
2.6105363368988037,1.227712631225586,0.7851707935333252,0
2.7272822856903076,1.5132083892822266,0.887932300567627,0
2.754521369934082,1.7361907958984375,0.9789592027664185,0
2.7830910682678223,1.913461685180664,1.0533658266067505,0
2.7557008266448975,2.0235347747802734,1.139719843864441,0
2.770700693130493,2.087984085083008,1.1731239557266235,0
2.69201922416687,2.0709753036499023,1.1844650506973267,0
2.6418557167053223,1.9343414306640625,1.231013298034668,0
2.4670114517211914,1.8743000030517578,1.2458046674728394,0
2.2365474700927734,1.897934913635254,1.195432186126709,0
2.009523630142212,2.0146942138671875,1.0124986171722412,0
1.809066653251648,2.176630973815918,0.8522079586982727,0
1.6104687452316284,2.4960861206054688,0.7408618927001953,0
1.5327060222625732,2.994382858276367,0.7210838794708252,0
1.6641316413879395,3.793240547180176,0.6030682325363159,0
1.8254055976867676,4.526459693908691,0.4197935163974762,0
2.04540753364563,5.069815635681152,0.15374808013439178,0
2.209603786468506,4.723001480102539,-0.2510637044906616,0
2.4693360328674316,4.130434989929199,-0.5316190719604492,0
2.6957812309265137,3.5747013092041016,-0.8075675964355469,0
2.815356492996216,3.022411346435547,-1.0691827535629272,0
2.7614316940307617,2.643484115600586,-1.2951008081436157,0
2.59212064743042,2.275275230407715,-1.5285851955413818,0
2.1808230876922607,2.0494766235351562,-1.8247156143188477,0
1.6885530948638916,1.9398155212402344,-2.1810147762298584,0
0.9700839519500732,1.7646160125732422,-2.451108694076538,0
0.21082453429698944,1.53125,-2.4037857055664062,0
-0.5378372669219971,1.2398595809936523,-2.2820322513580322,0
-1.2721693515777588,0.9671030044555664,-2.1738343238830566,0
-1.8569589853286743,0.5862617492675781,-1.966076374053955,0
-2.561943531036377,0.2815999984741211,-1.6795110702514648,0
-3.0018279552459717,0.04823780059814453,-1.313331127166748,0
-3.313727617263794,0.03189659118652344,-0.8880573511123657,0
-3.4606776237487793,0.08385372161865234,-0.3706536889076233,0
-3.559682607650757,0.2753715515136719,0.16963648796081543,0
-3.455320119857788,0.5459804534912109,0.6899200677871704,0
-3.2481489181518555,0.9214191436767578,1.053041696548462,0
-2.953943967819214,1.1287879943847656,1.2037076950073242,0
-2.6255664825439453,1.2999067306518555,1.1140425205230713,0
-2.253025770187378,1.306015968322754,0.8344370126724243,0
-1.9315296411514282,1.1954660415649414,0.5208969116210938,0
-1.8733187913894653,1.1002511978149414,0.15259480476379395,0
-1.9072322845458984,1.0373525619506836,-0.16157150268554688,0
-1.9407273530960083,0.925501823425293,-0.46729111671447754,0
-1.977201223373413,0.8556680679321289,-0.8076211214065552,0
-2.0108695030212402,0.801508903503418,-1.1321896314620972,0
-2.101492404937744,0.8753957748413086,-1.512594223022461,0
-1.847015142440796,0.8977813720703125,-1.8120959997177124,0
-1.620675802230835,0.7802419662475586,-2.123836040496826,0
-1.5046647787094116,0.4751701354980469,-2.2708656787872314,0
-1.5704067945480347,0.05696582794189453,-2.353830337524414,0
-1.2403770685195923,-0.0969085693359375,-2.1799817085266113,0
-0.7381460666656494,-0.23375797271728516,-2.0202670097351074,0
-0.43066465854644775,-0.3275928497314453,-1.9482334852218628,0
-0.2852267324924469,-0.5099573135375977,-1.8661209344863892,0
-0.129328653216362,-0.8453388214111328,-1.647355556488037,0
-0.17829884588718414,-1.290731430053711,-1.3275940418243408,0
-0.2277849316596985,-1.7743029594421387,-1.033778190612793,0
-0.36606091260910034,-2.0807886123657227,-0.9143602848052979,0
-0.5788483023643494,-2.3754959106445312,-0.9116561412811279,0
-0.53257155418396,-2.467453956604004,-0.9603612422943115,0
-0.49231675267219543,-2.2877416610717773,-1.14387845993042,0
-0.5654234290122986,-2.1955180168151855,-1.344714641571045,0
-0.5219032764434814,-2.2673306465148926,-1.5340218544006348,0
-0.557921826839447,-2.302215099334717,-1.716573715209961,0
-0.5085423588752747,-2.230924129486084,-1.851792335510254,0
-0.42667290568351746,-2.24725341796875,-2.021230459213257,0
-0.38173195719718933,-2.4372434616088867,-2.0765719413757324,0
-0.37132516503334045,-2.606977939605713,-2.1089792251586914,0
-0.4768845736980438,-2.8113903999328613,-2.2120182514190674,0
-0.5042544007301331,-3.088740348815918,-2.1775591373443604,0
-0.664007306098938,-3.3792881965637207,-2.0581727027893066,0
-0.805339515209198,-3.66166353225708,-1.9301972389221191,0
-1.0093331336975098,-3.8427977561950684,-1.8818085193634033,0
-1.0845741033554077,-4.042612075805664,-1.7068226337432861,0
-1.2630889415740967,-4.261168003082275,-1.6276397705078125,0
-1.4610601663589478,-4.414798736572266,-1.63450026512146,0
-1.5084072351455688,-4.448657035827637,-1.6195735931396484,0
-1.6131945848464966,-4.432241439819336,-1.6569876670837402,0
-1.5890954732894897,-4.212578296661377,-1.641432285308838,0
-1.558870792388916,-3.969214916229248,-1.5609943866729736,0
-1.5180317163467407,-3.948395252227783,-1.5114319324493408,0
-1.497659683227539,-4.037294387817383,-1.4498891830444336,0
-1.509673833847046,-4.161555290222168,-1.3884031772613525,0
-1.4917261600494385,-4.266046047210693,-1.3007173538208008,0
-1.5154950618743896,-4.355463027954102,-1.1797654628753662,0
-1.5689446926116943,-4.401045799255371,-0.975374698638916,0
-1.6497547626495361,-4.448216915130615,-0.7688653469085693,0
-1.6332429647445679,-4.544830322265625,-0.5312643051147461,0
-1.6533732414245605,-4.674020290374756,-0.34380412101745605,0
-1.7026504278182983,-4.711278438568115,-0.17060112953186035,0
-1.6704671382904053,-4.570428848266602,-0.007146358489990234,0
-1.6665006875991821,-4.4427170753479,0.13896751403808594,0
-1.6233032941818237,-4.198775768280029,0.2267284393310547,0
-1.494911551475525,-3.8669991493225098,0.30301642417907715,0
-1.206477403640747,-3.509045124053955,0.20117926597595215,0
-0.6189526319503784,-2.8612589836120605,0.2590327262878418,0
-0.3246294856071472,-2.2862234115600586,-0.15824055671691895,0
0.14253783226013184,-1.4574222564697266,-0.7454793453216553,0
0.6205223798751831,-0.08230018615722656,-1.392040729522705,0
1.0928876399993896,1.9230098724365234,-1.747545599937439,0
1.2502882480621338,4.474557876586914,-1.8073993921279907,0
1.086817741394043,7.208197593688965,-0.9982014894485474,0
0.30778878927230835,9.733447074890137,0.7578370571136475,0
-1.0528178215026855,10.380255699157715,3.8758578300476074,0
-0.12674880027770996,9.144762992858887,6.616543769836426,0
0.07213038206100464,8.451035499572754,8.104874610900879,0
-0.0903049111366272,8.203161239624023,8.68452262878418,0
-0.03881186246871948,7.835074424743652,8.626623153686523,0
0.5798618197441101,6.836207389831543,8.304524421691895,0
1.7431857585906982,5.3941450119018555,7.662147521972656,0
2.6941065788269043,4.113783836364746,6.80013370513916,0
3.035499334335327,3.8524866104125977,5.66152811050415,0
2.779801845550537,4.706657409667969,3.976409435272217,0
2.0432608127593994,6.395883560180664,1.4598407745361328,0
1.4518696069717407,8.075090408325195,-1.1621546745300293,0
0.33390676975250244,8.944689750671387,-3.3650882244110107,0
-0.8277788758277893,8.610565185546875,-5.131303310394287,0
-1.761134147644043,7.225546836853027,-5.981329917907715,0
-3.2777295112609863,5.17005729675293,-5.934616565704346,0
-4.306305885314941,3.050701141357422,-4.831686496734619,0
-3.4564523696899414,1.1488847732543945,-2.6401524543762207,0
-3.138906240463257,-0.1650991439819336,-0.5459804534912109,0
