AccX,AccY,AccZ,stepCount
2.143900156021118,1.2262554168701172,0.7115036249160767,2.1852784156799316
2.3029732704162598,1.3829679489135742,0.6231964826583862,-2.8260679244995117
2.4488625526428223,1.6232357025146484,0.5715558528900146,0.07574969530105591
2.545480251312256,1.8130817413330078,0.5540720224380493,-3.8354005813598633
2.5447778701782227,1.990859031677246,0.6209790706634521,2.5147902965545654
2.571207046508789,2.149407386779785,0.662200391292572,-4.231713771820068
2.5435662269592285,2.205061912536621,0.7375971078872681,2.477154493331909
2.4764838218688965,2.1794586181640625,0.7800453901290894,-1.1764166355133057
2.360624313354492,2.041604995727539,0.8324579000473022,2.36348819732666
2.2582130432128906,1.7988348007202148,0.9402980804443359,-5.147401809692383
2.061920166015625,1.628178596496582,1.0867078304290771,3.307657241821289
1.9202849864959717,1.4577980041503906,1.2046699523925781,0.022114157676696777
1.7497955560684204,1.3020124435424805,1.3036391735076904,0
1.6367121934890747,1.167959213256836,1.3834539651870728,0
1.5166857242584229,0.9814767837524414,1.499142050743103,0
1.3349872827529907,0.8956279754638672,1.6410506963729858,0
1.2711433172225952,0.8696269989013672,1.732576847076416,0
1.1960498094558716,0.9249086380004883,1.8118809461593628,0
1.1910477876663208,0.9657421112060547,1.8046472072601318,0
1.1889543533325195,0.9539337158203125,1.7033756971359253,0
1.1848384141921997,0.8800382614135742,1.4790252447128296,0
1.2288581132888794,0.8278656005859375,1.1910667419433594,0
1.1726725101470947,0.7018089294433594,0.8510208129882812,0
1.0712859630584717,0.4709644317626953,0.4585442841053009,0
0.982058048248291,0.28618526458740234,0.06119199097156525,0
0.7351210117340088,0.05665302276611328,-0.3340330123901367,0
0.4790600538253784,-0.12664318084716797,-0.6743876934051514,0
0.16123628616333008,-0.42624473571777344,-0.9860407114028931,0
-0.09144103527069092,-0.6673831939697266,-1.216097116470337,0
-0.4488624334335327,-0.8978567123413086,-1.4194278717041016,0
-0.6162870526313782,-1.0435428619384766,-1.5333621501922607,0
-0.9215559363365173,-1.2574892044067383,-1.5217454433441162,0
-1.1807358264923096,-1.3004121780395508,-1.4633615016937256,0
-1.3437879085540771,-1.0934906005859375,-1.3923346996307373,0
-1.422410249710083,-0.9381704330444336,-1.311653733253479,0
-1.5505009889602661,-0.901097297668457,-1.2413580417633057,0
-1.5557701587677002,-0.8957576751708984,-1.1728286743164062,0
-1.5551434755325317,-0.8597259521484375,-0.9484822154045105,0
-1.6201201677322388,-0.9125223159790039,-0.5793033242225647,0
-1.8848638534545898,-0.9894962310791016,-0.13779878616333008,0
-2.0386288166046143,-1.1338539123535156,0.22766661643981934,0
-2.175302028656006,-1.2334442138671875,0.41911864280700684,0
-2.135589122772217,-1.190704345703125,0.3841050863265991,0
-2.0020103454589844,-0.9489421844482422,0.18967819213867188,0
-1.923950433731079,-0.6236343383789062,-0.11228060722351074,0
-1.7539235353469849,-0.23932933807373047,-0.3336606025695801,0
-1.5522922277450562,0.1123514175415039,-0.5468684434890747,0
-1.2971248626708984,0.45012664794921875,-0.9547046422958374,0
-1.3609623908996582,0.7215652465820312,-1.5611450672149658,0
-1.5195096731185913,0.8461246490478516,-2.164039373397827,0
-1.5903986692428589,0.8941287994384766,-2.535684108734131,0
-1.8008939027786255,0.7803926467895508,-2.6321451663970947,0
-2.1740527153015137,0.9435243606567383,-2.3945748805999756,0
-2.245445489883423,1.1492195129394531,-1.759705662727356,0
-2.065918207168579,1.383087158203125,-0.9138798713684082,0
-1.8184597492218018,1.687967300415039,-0.11421012878417969,0
-1.5484106540679932,1.8841238021850586,0.4285893440246582,0
-1.1905732154846191,2.0883636474609375,0.7217512130737305,0
-1.0356777906417847,2.111393928527832,0.6618671417236328,0
-0.8211156129837036,2.0919809341430664,0.28090596199035645,0
-0.7482737898826599,1.9488849639892578,-0.289276123046875,0
-0.6825165748596191,1.8064441680908203,-0.9048140048980713,0
-0.6975452899932861,1.5832948684692383,-1.4270212650299072,0
-0.8267617225646973,1.2844533920288086,-1.7416942119598389,0
-0.9575326442718506,0.8549127578735352,-1.6815712451934814,0
-1.0754891633987427,0.26097774505615234,-1.4280099868774414,0
-1.1758642196655273,-0.17959976196289062,-1.140516757965088,0
-1.2944406270980835,-0.6441679000854492,-1.0244755744934082,0
-1.2969746589660645,-0.9225234985351562,-0.9741823673248291,0
-1.393981695175171,-1.3497209548950195,-0.9322271347045898,0
-1.4054286479949951,-1.784292221069336,-0.9566895961761475,0
-1.400040864944458,-2.2809877395629883,-1.2036375999450684,0
-1.67837655544281,-2.54896879196167,-1.1258978843688965,0
-1.6109305620193481,-2.5365610122680664,-1.2631964683532715,0
-1.2868300676345825,-2.559624671936035,-1.4076635837554932,0
-1.1103692054748535,-2.596189498901367,-1.5411522388458252,0
-0.9185986518859863,-2.7990994453430176,-1.5709121227264404,0
-0.7923178672790527,-2.9527382850646973,-1.5908923149108887,0
-0.7818450331687927,-2.954256534576416,-1.5678784847259521,0
-0.7526359558105469,-3.0526504516601562,-1.499403953552246,0
-0.706847071647644,-3.1380467414855957,-1.3588619232177734,0
-0.8215122222900391,-3.29664945602417,-1.2824788093566895,0
-0.8365745544433594,-3.267946720123291,-1.226715087890625,0
-0.8581734895706177,-3.3300538063049316,-1.0973129272460938,0
-0.9772946238517761,-3.466219902038574,-1.2002835273742676,0
-1.0937443971633911,-3.795736312866211,-1.3085072040557861,0
-1.1781978607177734,-4.213021278381348,-1.3003716468811035,0
-1.3471941947937012,-4.120631217956543,-0.9909791946411133,0
-1.064696192741394,-4.196394443511963,-0.7982666492462158,0
-1.273775339126587,-4.284498691558838,-0.6362943649291992,0
-1.0854566097259521,-4.195887088775635,-0.36409664154052734,0
-1.0501668453216553,-4.294171333312988,-0.08947896957397461,0
-1.0607988834381104,-4.213232517242432,0.16606712341308594,0
-0.9646795988082886,-4.0966901779174805,0.4264669418334961,0
-0.9636191129684448,-3.930213451385498,0.7035832405090332,0
-1.4526324272155762,-3.8403429985046387,0.9397239685058594,0
-0.9349606037139893,-3.5524868965148926,1.4543037414550781,0
-0.6576355695724487,-3.286959171295166,1.575479507446289,0
-0.5135769248008728,-3.1341137886047363,1.649662971496582,0
-0.6452442407608032,-2.7632603645324707,1.7572708129882812,0
-0.5834734439849854,-2.3653721809387207,1.9379701614379883,0
-0.29141730070114136,-2.0497264862060547,1.9295811653137207,0
-0.14629679918289185,-1.7292389869689941,1.7950334548950195,0
0.1857520341873169,-1.324239730834961,1.7598319053649902,0
0.5280256867408752,-0.8579921722412109,1.7311663627624512,0
0.9147157073020935,-0.45418643951416016,1.714268445968628,0
1.46110999584198,0.1628732681274414,1.6686475276947021,0
1.5570261478424072,1.0296335220336914,1.6952357292175293,0
1.9936132431030273,1.9717340469360352,1.8475337028503418,0
2.3623063564300537,3.0184450149536133,1.8388221263885498,0
2.3945441246032715,4.165470123291016,1.9116613864898682,0
1.8713476657867432,5.035257339477539,2.170536994934082,0
1.1124933958053589,5.386486053466797,2.6661787033081055,0
0.41187936067581177,5.209751129150391,3.26831316947937,0
-0.11769920587539673,4.758255958557129,3.881200075149536,0
-0.6548226475715637,4.057267189025879,4.448389053344727,0
-1.039919137954712,3.0692691802978516,4.8307929039001465,0
-1.1873141527175903,2.0985145568847656,4.760434627532959,0
-1.3846855163574219,1.2625360488891602,4.052746295928955,0
-1.5796266794204712,0.8395147323608398,2.8973093032836914,0
-1.4735214710235596,1.3161382675170898,1.8188438415527344,0
-1.3851065635681152,2.536746025085449,0.6813926696777344,0
-1.5700838565826416,4.509352684020996,-0.8406558036804199,0
-1.8895361423492432,6.722736358642578,-2.619389772415161,0
-2.209517478942871,8.621919631958008,-4.108698844909668,0
-2.8105478286743164,10.026534080505371,-4.88516092300415,0
-3.560664415359497,10.39529037475586,-5.324799060821533,0
-4.397817611694336,9.346549987792969,-5.6551513671875,0
-5.3859663009643555,6.880965232849121,-5.925217151641846,0
-6.1041107177734375,3.403700828552246,-5.338283538818359,0
-6.158556938171387,0.5354509353637695,-3.244278907775879,0
-5.8878583908081055,-0.6049375534057617,-0.7408504486083984,0
-5.359748840332031,-0.6545934677124023,0.5585188865661621,0
-4.493346691131592,-0.40570545196533203,0.9249119758605957,0
-3.5340051651000977,-0.1551837921142578,0.5106487274169922,0
-2.8928935527801514,0.014817237854003906,-0.24369573593139648,0
-2.653535842895508,0.24898624420166016,-1.0720036029815674,0
-2.529655933380127,0.5029478073120117,-1.703873872756958,0
-2.4190351963043213,0.6537065505981445,-2.1710264682769775,0
-2.0806989669799805,0.7246742248535156,-2.4892044067382812,0
-1.43913996219635,0.7254772186279297,-2.7948813438415527,0
-0.8214645385742188,0.7115354537963867,-3.0528564453125,0
-0.43791401386260986,0.7527437210083008,-3.326319456100464,0
-0.21879661083221436,0.8183803558349609,-3.522736072540283,0
-0.039621591567993164,0.8322467803955078,-3.681004285812378,0
0.08039480447769165,0.8089694976806641,-3.7751049995422363,0
0.1842321753501892,0.6555032730102539,-3.8410890102386475,0
0.3509233593940735,0.40100860595703125,-3.9416656494140625,0
0.5092222094535828,0.21585464477539062,-4.209348201751709,0
0.5502248406410217,0.07648277282714844,-4.348623752593994,0
0.6574698090553284,-0.014391899108886719,-4.35145378112793,0
0.7251173257827759,0.0058383941650390625,-4.279677867889404,0
0.6702479124069214,0.15163898468017578,-4.043644428253174,0
0.7781418561935425,0.08086490631103516,-3.5960657596588135,0
0.8879950046539307,-0.04626274108886719,-2.8888614177703857,0
0.9100903272628784,-0.26099300384521484,-2.1821470260620117,0
0.9389210939407349,-0.5466880798339844,-1.5754941701889038,0
0.9830673933029175,-0.7696332931518555,-0.9936001300811768,0
1.0321974754333496,-1.0615453720092773,-0.622333288192749,0
1.0761051177978516,-1.3361663818359375,-0.49251818656921387,0
1.0472534894943237,-1.5669689178466797,-0.5613336563110352,0
0.9768223762512207,-1.7203335762023926,-0.6378467082977295,0
0.8388973474502563,-1.8536362648010254,-0.8708021640777588,0
0.5858389139175415,-1.9263505935668945,-1.1211026906967163,0
0.31598329544067383,-1.855116367340088,-1.2947477102279663,0
0.14978766441345215,-1.8699402809143066,-1.388911247253418,0
-0.022322893142700195,-1.8680434226989746,-1.5540685653686523,0
-0.17163801193237305,-1.794461727142334,-1.6179287433624268,0
-0.2575613260269165,-1.6014623641967773,-1.7814335823059082,0
-0.14581096172332764,-1.3537578582763672,-1.891613483428955,0
-0.06607568264007568,-1.063262939453125,-1.965710163116455,0
0.11070477962493896,-0.880610466003418,-2.0206940174102783,0
0.23112022876739502,-0.604792594909668,-1.905911922454834,0
0.3522462844848633,-0.49414730072021484,-1.7314327955245972,0
0.34030139446258545,-0.3404417037963867,-1.463927149772644,0
0.35575056076049805,-0.3039512634277344,-1.2087273597717285,0
0.3481278419494629,-0.31995391845703125,-0.965770959854126,0
0.3697572946548462,-0.40032291412353516,-0.8138430118560791,0
0.37961316108703613,-0.5783901214599609,-0.7361446619033813,0
0.3129575252532959,-0.6818037033081055,-0.7280045747756958,0
0.31066977977752686,-0.849278450012207,-0.7990080118179321,0
0.3104785680770874,-0.954035758972168,-0.8700201511383057,0
0.3742809295654297,-1.1276836395263672,-0.8833819627761841,0
0.4710350036621094,-1.3343391418457031,-0.8771339654922485,0
0.5195775032043457,-1.4042034149169922,-0.8106950521469116,0
0.4767674207687378,-1.4378814697265625,-0.6935105323791504,0
0.4624471664428711,-1.490391731262207,-0.602365255355835,0
0.3857001066207886,-1.5425348281860352,-0.5900588035583496,0
0.3971383571624756,-1.4459943771362305,-0.5109206438064575,0
0.37005388736724854,-1.2990407943725586,-0.40074849128723145,0
0.46473872661590576,-1.3145217895507812,-0.36975181102752686,0
0.3673211336135864,-1.0306739807128906,-0.25050389766693115,0
0.35546767711639404,-0.8448238372802734,-0.13626134395599365,0
0.27470862865448,-0.8238677978515625,-0.09698891639709473,0
0.0489734411239624,-0.6519298553466797,-0.07603311538696289,0
-0.09172046184539795,-0.5181140899658203,-0.10482919216156006,0
-0.1353214979171753,-0.448760986328125,-0.027693986892700195,0
-0.2158975601196289,-0.3266916275024414,0.02409982681274414,0
-0.19724738597869873,-0.20938587188720703,0.09627163410186768,0
-0.12029814720153809,-0.12791728973388672,0.1290268898010254,0
-0.08303093910217285,-0.05358695983886719,0.17990028858184814,0
-0.03518259525299072,-0.07247257232666016,0.2511526346206665,0
-0.012675166130065918,-0.11032962799072266,0.35465681552886963,0
-0.05613267421722412,-0.1791095733642578,0.40908730030059814,0
-0.09630513191223145,-0.1950511932373047,0.45977163314819336,0
-0.20017743110656738,-0.3040790557861328,0.44441288709640503,0
-0.2578772306442261,-0.25739097595214844,0.45403939485549927,0
-0.2984517812728882,-0.2918844223022461,0.3859531879425049,0
-0.32208073139190674,-0.44813060760498047,0.3722032308578491,0
-0.32412219047546387,-0.5753507614135742,0.38437020778656006,0
-0.24231457710266113,-0.5923357009887695,0.42042654752731323,0
-0.2081526517868042,-0.5805511474609375,0.38731056451797485,0
-0.008484125137329102,-0.44203758239746094,0.3162018656730652,0
0.16525673866271973,-0.26540565490722656,0.21161729097366333,0
0.3537287712097168,-0.0889444351196289,0.1546332836151123,0
0.4468038082122803,0.0921640396118164,0.08986002206802368,0
0.5712851285934448,0.31139469146728516,0.11278039216995239,0
0.6983942985534668,0.5495748519897461,0.1300331950187683,0
0.7183841466903687,0.7420682907104492,0.2709766626358032,0
0.7080154418945312,0.8936872482299805,0.42326992750167847,0
0.7346104383468628,1.0139884948730469,0.6278920769691467,0
0.6524885892868042,1.2273225784301758,0.7508704662322998,0
0.7275381088256836,1.4665870666503906,0.7682945728302002,0
0.7538866996765137,1.557215690612793,0.7326958179473877,0
0.8462028503417969,1.5974664688110352,0.6963996887207031,0
0.9922400712966919,1.5539579391479492,0.6831876039505005,0
1.0075159072875977,1.4579172134399414,0.6905598044395447,0
1.1000474691390991,1.2998685836791992,0.6609412431716919,0
1.1643986701965332,1.1325111389160156,0.5797842144966125,0
1.310449242591858,0.95587158203125,0.540253758430481,0
1.4134573936462402,0.8201980590820312,0.5544853210449219,0
1.5833348035812378,0.778045654296875,0.5460732579231262,0
1.6668994426727295,0.8340797424316406,0.5583515167236328,0
1.848422646522522,0.9092588424682617,0.6584840416908264,0
1.9557304382324219,0.9150714874267578,0.7580089569091797,0
1.950562596321106,0.8731355667114258,0.7252293825149536,0
2.012502670288086,0.7834930419921875,0.7635076642036438,0
1.9689123630523682,1.0838165283203125,0.6691119074821472,0
1.946382761001587,1.245203971862793,0.709716260433197,0
1.777123212814331,0.9976615905761719,0.8634567260742188,0
1.7744567394256592,0.9251279830932617,1.0631847381591797,0
1.8477784395217896,1.096674919128418,1.2611573934555054,0
1.95621919631958,1.1485528945922852,1.2868008613586426,0
1.840477705001831,1.0570793151855469,1.241805911064148,0
2.06290864944458,1.0997791290283203,1.3653208017349243,0
2.231437921524048,1.128190040588379,1.473273515701294,0
2.4421517848968506,1.3288087844848633,1.527764081954956,0
2.5752878189086914,1.0032377243041992,1.4612938165664673,0
2.5845611095428467,0.9078207015991211,1.042709231376648,0
2.8715367317199707,1.0973148345947266,0.5993838310241699,0
3.089137077331543,1.4877080917358398,0.2995576560497284,0
2.9088313579559326,1.3208951950073242,-0.10825055837631226,0
2.750552177429199,1.6809148788452148,-0.7152924537658691,0
2.7631051540374756,1.9549922943115234,-0.8605401515960693,0
2.6190648078918457,1.7582921981811523,-0.8736957311630249,0
2.5540366172790527,1.6843700408935547,-0.8764153718948364,0
2.2981557846069336,1.3529605865478516,-0.9916552305221558,0
2.0936594009399414,0.9151554107666016,-1.2902541160583496,0
1.9052364826202393,0.5673456192016602,-1.465523600578308,0
1.6880688667297363,0.3263978958129883,-1.6556075811386108,0
1.4882135391235352,0.19008445739746094,-1.8114875555038452,0
1.3379380702972412,0.3378257751464844,-1.9356015920639038,0
1.0227668285369873,0.6021108627319336,-1.9650192260742188,0
0.5405856966972351,0.8754253387451172,-1.9320542812347412,0
0.09769374132156372,0.9569711685180664,-1.8370437622070312,0
-0.3773958086967468,0.9736824035644531,-1.6634225845336914,0
-0.875226616859436,1.0737781524658203,-1.5332801342010498,0
-1.3024940490722656,0.9818143844604492,-1.2379653453826904,0
-1.75787353515625,0.7955875396728516,-0.8918231725692749,0
-2.065248727798462,0.6223125457763672,-0.5833898782730103,0
-2.1995930671691895,0.49503326416015625,-0.3853156566619873,0
-2.0785939693450928,0.42774295806884766,-0.23948228359222412,0
-1.9352434873580933,0.6210784912109375,-0.18681120872497559,0
-1.7531169652938843,0.9049901962280273,-0.2689950466156006,0
-1.6734391450881958,1.2387924194335938,-0.271759033203125,0
-1.6289782524108887,1.490859031677246,-0.23155546188354492,0
-1.7626744508743286,1.744959831237793,-0.24944519996643066,0
-1.9152131080627441,1.9963655471801758,-0.3550751209259033,0
-2.33597469329834,2.3265771865844727,-0.6597986221313477,0
-2.802579641342163,2.6447744369506836,-0.9589364528656006,0
-3.1556851863861084,2.9011316299438477,-1.3306204080581665,0
-3.541208028793335,3.0843753814697266,-1.6880159378051758,0
-3.516805648803711,3.1329898834228516,-1.757480263710022,0
-3.1887993812561035,2.9134931564331055,-1.4868347644805908,0
-2.545269250869751,2.5576906204223633,-1.0451619625091553,0
-2.003570795059204,2.161160469055176,-0.5481374263763428,0
-1.4568372964859009,1.7690134048461914,-0.1351635456085205,0
-0.8469898700714111,1.5004072189331055,0.06359410285949707,0
-0.4019277095794678,1.1731748580932617,-0.0394282341003418,0
-0.26990023255348206,1.0240240097045898,-0.3505678176879883,0
-0.25874781608581543,0.9090614318847656,-0.6924009323120117,0
-0.3120172917842865,0.5864048004150391,-1.023832082748413,0
-0.4813585877418518,0.11089611053466797,-1.286876916885376,0
-0.7393929958343506,-0.4433422088623047,-1.5628340244293213,0
-0.8624753952026367,-0.9762344360351562,-1.647862434387207,0
-0.9611140489578247,-1.3974571228027344,-1.9266307353973389,0
-0.9714896082878113,-1.7194404602050781,-2.255265951156616,0
-0.9292358160018921,-1.9519023895263672,-2.495293140411377,0
-1.1048616170883179,-2.4488773345947266,-2.644564628601074,0
-1.2279493808746338,-2.940006732940674,-2.576348304748535,0
-1.242829442024231,-3.576103687286377,-2.6304359436035156,0
-1.2353289127349854,-4.376215934753418,-2.579568386077881,0
-1.1928637027740479,-5.112878322601318,-2.6132123470306396,0
-1.236715316772461,-5.829035758972168,-2.657668113708496,0
-1.3018488883972168,-6.194649696350098,-2.7179901599884033,0
-1.407544732093811,-6.210229396820068,-2.6936264038085938,0
-1.5091912746429443,-6.015048980712891,-2.603461503982544,0
-1.5080249309539795,-5.110097885131836,-2.298349618911743,0
-1.3768919706344604,-4.010705471038818,-2.0145692825317383,0
-1.3992494344711304,-3.405869483947754,-1.852278470993042,0
-1.3582942485809326,-3.1393184661865234,-1.828453779220581,0
-1.3859175443649292,-3.105283260345459,-1.8427734375,0
-1.4847627878189087,-3.092928409576416,-1.7949986457824707,0
-1.6093955039978027,-3.190673351287842,-1.675713062286377,0
-1.6908303499221802,-3.2812647819519043,-1.539893627166748,0
-1.7795579433441162,-3.3503494262695312,-1.4186522960662842,0
-1.8209362030029297,-3.495887279510498,-1.3766694068908691,0
-1.7842715978622437,-3.6076135635375977,-1.3041114807128906,0
-1.7966067790985107,-3.6350722312927246,-1.2779767513275146,0
-1.8529667854309082,-3.6450228691101074,-1.160006046295166,0
-1.821566104888916,-3.57517671585083,-0.9648628234863281,0
-1.8147659301757812,-3.5809459686279297,-0.7238564491271973,0
-1.8659636974334717,-3.5808258056640625,-0.47542476654052734,0
-1.9083545207977295,-3.5461783409118652,-0.2289419174194336,0
-1.9438344240188599,-3.510585308074951,-0.02006244659423828,0
-2.069387435913086,-3.5026731491088867,0.10098457336425781,0
-2.154982328414917,-3.4005703926086426,0.25672006607055664,0
-1.9722251892089844,-3.323927402496338,0.35646915435791016,0
-2.021097183227539,-3.1674275398254395,0.3979816436767578,0
-2.124889850616455,-2.928532123565674,0.42157745361328125,0
-2.2198567390441895,-2.638075351715088,0.5676994323730469,0
-2.3243408203125,-2.3772664070129395,0.9796786308288574,0
-1.9325575828552246,-2.1649389266967773,1.3554048538208008,0
-1.4523531198501587,-2.0001840591430664,1.3486716747283936,0
-0.640296995639801,-1.5661396980285645,1.0909137725830078,0
0.4314691424369812,-0.6251010894775391,0.650550127029419,0
1.401525855064392,0.6733741760253906,-0.04843282699584961,0
2.4543068408966064,2.5005416870117188,-0.21200037002563477,0
3.23750638961792,4.689679145812988,-0.23147153854370117,0
3.3230903148651123,7.226215362548828,0.394636869430542,0
2.469456672668457,9.790453910827637,2.3410069942474365,0
0.6733651161193848,10.878471374511719,4.956989288330078,0
-0.08966362476348877,9.643458366394043,6.865041732788086,0
-0.41976580023765564,7.753623962402344,7.435062408447266,0
-0.47127223014831543,5.998442649841309,6.950631141662598,0
0.04434037208557129,4.243954658508301,6.315134048461914,0
0.6587028503417969,2.4166669845581055,5.091283321380615,0
0.5637349486351013,0.7900724411010742,3.2989463806152344,0
-0.09361040592193604,0.5454587936401367,2.0449256896972656,0
-0.5956921577453613,2.014223098754883,0.9053354263305664,0
-1.3990153074264526,4.841455459594727,-1.3264553546905518,0
-1.9026196002960205,8.492547035217285,-4.240126132965088,0
-1.8541980981826782,11.617371559143066,-6.1517839431762695,0
-1.7463407516479492,13.291934967041016,-7.022552490234375,0
-3.001239776611328,12.725608825683594,-7.285242080688477,0
-5.3416547775268555,10.454413414001465,-7.624351501464844,0
-7.555764198303223,6.786744117736816,-7.276436805725098,0
-7.5840020179748535,2.6039915084838867,-5.424199104309082,0
-6.612085819244385,0.1762542724609375,-2.001499891281128,0
-5.764397144317627,-0.21516704559326172,-0.23279309272766113,0
-4.486008167266846,0.013041496276855469,0.2613210678100586,0
-3.1177639961242676,-0.0021886825561523438,0.055309295654296875,0
-1.6324269771575928,-0.15979766845703125,-0.4277932643890381,0
-0.9445990324020386,-0.32540225982666016,-0.7160415649414062,0
-1.0764219760894775,-0.49681758880615234,-1.4837498664855957,0
-1.4822903871536255,-0.6207342147827148,-2.660862922668457,0
-1.655724287033081,-0.6080093383789062,-3.567915678024292,0
-1.6153416633605957,-0.2561988830566406,-4.035009384155273,0
-1.250614881515503,0.46734046936035156,-4.301225185394287,0
-0.41355425119400024,1.1476259231567383,-4.360104560852051,0
0.5278346538543701,1.7137775421142578,-4.277482986450195,0
1.472367763519287,1.9818029403686523,-4.141315937042236,0
2.2944130897521973,2.157364845275879,-4.0747528076171875,0
2.5053982734680176,2.106560707092285,-4.1319260597229,0
2.191544532775879,1.8345842361450195,-4.1976637840271,0
1.8404966592788696,1.2917661666870117,-4.258111476898193,0
1.4190233945846558,0.6725854873657227,-4.230915069580078,0
1.0810710191726685,0.11902713775634766,-4.17860746383667,0
0.582429051399231,-0.19570541381835938,-4.193309783935547,0
0.3096175789833069,-0.2425060272216797,-4.038511753082275,0
-0.010371148586273193,-0.15053462982177734,-3.6511783599853516,0
-0.47248828411102295,-0.010934829711914062,-3.0361061096191406,0
-0.7479339838027954,-0.1757497787475586,-2.311708450317383,0
-1.0269207954406738,-0.4802227020263672,-1.7775429487228394,0
-1.13273024559021,-0.7526321411132812,-1.3287827968597412,0
-1.1060115098953247,-1.0652923583984375,-1.0905065536499023,0
-0.9248616099357605,-1.4447946548461914,-0.9180910587310791,0
-0.718866765499115,-1.7810816764831543,-0.9116653203964233,0
-0.5581921935081482,-2.057249069213867,-0.9446446895599365,0
-0.5968891382217407,-2.3113298416137695,-0.8979644775390625,0
-0.29693639278411865,-2.385425567626953,-0.7169849872589111,0
-0.06054258346557617,-2.38234806060791,-0.8043324947357178,0
0.021458148956298828,-2.3043437004089355,-1.0864194631576538,0
-0.011772990226745605,-2.1992101669311523,-1.5709807872772217,0
-0.07295846939086914,-2.062230110168457,-1.9808716773986816,0
-0.1684321165084839,-1.9247608184814453,-2.2440907955169678,0
-0.34802550077438354,-1.7560858726501465,-2.1851375102996826,0
-0.33476924896240234,-1.7239341735839844,-1.953627586364746,0
-0.2995169758796692,-1.82820463180542,-1.6231632232666016,0
-0.19275575876235962,-1.86769437789917,-1.2396453619003296,0
-0.06473267078399658,-1.9928960800170898,-0.7969419956207275,0
-0.04908478260040283,-1.9859294891357422,-0.3606780767440796,0
-0.009119749069213867,-1.7871389389038086,-0.07714486122131348,0
0.06486630439758301,-1.5427570343017578,0.05425620079040527,0
0.2110002040863037,-1.3271102905273438,0.09653639793395996,0
0.5701073408126831,-1.0996179580688477,0.01688969135284424,0
0.925940752029419,-0.9536151885986328,-0.009124755859375,0
1.3373966217041016,-0.7574672698974609,-0.03603863716125488,0
1.7154960632324219,-0.599583625793457,-0.1070939302444458,0
2.1083974838256836,-0.44403076171875,-0.138724684715271,0
2.416473865509033,-0.3124065399169922,-0.04015326499938965,0
2.590242385864258,-0.22626209259033203,0.08084869384765625,0
2.6446948051452637,-0.24288654327392578,0.12328648567199707,0
2.6450953483581543,-0.25449275970458984,0.20122432708740234,0
2.6038572788238525,-0.34475135803222656,0.3594980239868164,0
2.4496984481811523,-0.4442634582519531,0.5547307729721069,0
2.261706829071045,-0.6367082595825195,0.7149828672409058,0
1.9636108875274658,-0.8526945114135742,0.8212289810180664,0
1.7472025156021118,-1.1400651931762695,0.8398979902267456,0
1.4403749704360962,-1.2046728134155273,0.8046272993087769,0
1.1745227575302124,-1.2118196487426758,0.665650486946106,0
1.057291865348816,-1.395970344543457,0.6266855001449585,0
0.7344018220901489,-1.192586898803711,0.8072458505630493,0
0.5050488710403442,-1.1640691757202148,1.0587718486785889,0
0.27096128463745117,-1.1021318435668945,1.1538232564926147,0
0.1584024429321289,-1.0760669708251953,1.0827265977859497,0
0.025523900985717773,-0.9231891632080078,1.0636452436447144,0
-0.025221943855285645,-0.8469228744506836,1.0135087966918945,0
-0.0969318151473999,-0.7754669189453125,0.9305483102798462,0
-0.21639668941497803,-0.7661428451538086,0.8436886072158813,0
-0.1922447681427002,-0.8451719284057617,0.824718177318573,0
-0.12998652458190918,-0.9478340148925781,0.7154319882392883,0
0.025233983993530273,-0.9975471496582031,0.5659204125404358,0
0.17272865772247314,-1.0612907409667969,0.37364548444747925,0
0.2120119333267212,-1.0314521789550781,0.24874919652938843,0
0.3011350631713867,-1.0492305755615234,0.19352775812149048,0
0.3566911220550537,-1.035675048828125,0.08313697576522827,0
0.46291542053222656,-0.9550104141235352,0.0035910606384277344,0
0.43826115131378174,-0.9412479400634766,-0.09788668155670166,0
0.39081501960754395,-0.7910785675048828,-0.31966322660446167,0
0.354345440864563,-0.6577253341674805,-0.6093435287475586,0
0.31203722953796387,-0.4311666488647461,-0.8139207363128662,0
0.30905139446258545,-0.19759178161621094,-0.8088676929473877,0
0.24446940422058105,0.050197601318359375,-0.7088253498077393,0
0.13489395380020142,0.4102334976196289,-0.5163273215293884,0
0.15253591537475586,0.9038944244384766,-0.27947932481765747,0
0.110501229763031,1.4019126892089844,-0.02242317795753479,0
0.18085956573486328,1.8827686309814453,0.3502601385116577,0
0.28188151121139526,2.193467140197754,0.812096357345581,0
0.40118831396102905,2.3414154052734375,1.30045747756958,0
0.6148025393486023,2.3985729217529297,1.623868465423584,0
0.8506690263748169,2.3889541625976562,1.754096269607544,0
1.1469035148620605,2.348494529724121,1.660955786705017,0
1.4940465688705444,2.2772064208984375,1.5270220041275024,0
1.7462971210479736,2.184673309326172,1.448042631149292,0
2.047530174255371,2.0708885192871094,1.4593051671981812,0
2.3070507049560547,2.014754295349121,1.5098661184310913,0
2.5752649307250977,2.0066070556640625,1.4819307327270508,0
2.699298858642578,1.9650545120239258,1.4350496530532837,0
2.7561001777648926,1.990534782409668,1.3643242120742798,0
2.7960634231567383,1.9155645370483398,1.2983685731887817,0
2.7548322677612305,1.907618522644043,1.2010688781738281,0
2.6493070125579834,1.8231315612792969,1.2252910137176514,0
2.601588487625122,1.6813154220581055,1.344468355178833,0
2.427443265914917,1.5754890441894531,1.4530044794082642,0
2.3828349113464355,1.5032167434692383,1.5770665407180786,0
2.3048455715179443,1.361654281616211,1.7309489250183105,0
2.257857322692871,1.2871952056884766,1.6989281177520752,0
2.220004081726074,1.2271757125854492,1.4734779596328735,0
2.2766647338867188,1.2151098251342773,1.0231304168701172,0
2.1373257637023926,1.4686222076416016,0.4075883626937866,0
2.131474018096924,1.7746543884277344,-0.08809904754161835,0
1.9379675388336182,2.1475648880004883,-0.6146180033683777,0
1.9254615306854248,2.804896354675293,-0.8848495483398438,0
2.0178608894348145,3.1533126831054688,-0.939392626285553,0
2.18685245513916,3.104766845703125,-0.8793262243270874,0
2.3177666664123535,2.8176403045654297,-0.7771694660186768,0
2.4662320613861084,2.342531204223633,-0.8660504221916199,0
2.426830530166626,1.9811077117919922,-1.0586457252502441,0
2.255603551864624,1.3245258331298828,-1.473514199256897,0
1.9994335174560547,0.8276138305664062,-1.871643304824829,0
1.8085932731628418,0.3205108642578125,-2.3436529636383057,0
1.1982916593551636,0.2720003128051758,-2.4597458839416504,0
0.6140948534011841,0.2870168685913086,-2.5144166946411133,0
0.010313749313354492,0.3869810104370117,-2.5218966007232666,0
-0.5489779114723206,0.5406970977783203,-2.7317934036254883,0
-0.9208110570907593,0.7718963623046875,-2.960299015045166,0
-1.3263654708862305,0.7886562347412109,-3.012275457382202,0
-1.7183716297149658,0.5887355804443359,-2.8943004608154297,0
-1.9413437843322754,0.3372802734375,-2.728332042694092,0
-2.225322723388672,0.07736396789550781,-2.3687384128570557,0
-2.235811710357666,-0.08343887329101562,-1.8875479698181152,0
-2.4073119163513184,-0.08056163787841797,-1.4050986766815186,0
-2.5352096557617188,0.11945056915283203,-0.843315601348877,0
-2.637113094329834,0.43053150177001953,-0.30392372608184814,0
-2.693298816680908,0.8050813674926758,0.08933091163635254,0
-2.872349739074707,1.250666618347168,0.3656284809112549,0
-3.0915451049804688,1.6669940948486328,0.6894838809967041,0
-3.3933427333831787,2.0801639556884766,0.9835455417633057,0
-3.6837263107299805,2.4248342514038086,1.0957896709442139,0
-3.7371246814727783,2.774540901184082,0.8016057014465332,0
-3.7300519943237305,3.138734817504883,0.04645562171936035,0
-3.6817193031311035,3.4221973419189453,-0.8241145610809326,0
-3.3003952503204346,3.4127607345581055,-1.5271942615509033,0
-2.633152961730957,3.252117156982422,-1.8099520206451416,0
-2.039295196533203,3.1125059127807617,-1.7509346008300781,0
-1.4327919483184814,2.6851768493652344,-1.4618195295333862,0
-0.8362626433372498,2.3144540786743164,-1.1498801708221436,0
-0.5518385171890259,1.796574592590332,-0.9718625545501709,0
-0.31365782022476196,1.3299932479858398,-0.9727892875671387,0
-0.23861783742904663,0.8477106094360352,-1.0786278247833252,0
0.028392642736434937,0.3232755661010742,-1.1217381954193115,0
0.18934807181358337,-0.16224956512451172,-1.266801357269287,0
0.012946277856826782,-0.7645845413208008,-1.5205471515655518,0
-0.006328314542770386,-1.3407001495361328,-1.7097604274749756,0
-0.1712603121995926,-1.9843292236328125,-1.8124239444732666,0
-0.2736334502696991,-2.5712552070617676,-2.0389552116394043,0
-0.3345406949520111,-3.0659356117248535,-2.183406114578247,0
-0.329379141330719,-3.8536429405212402,-2.1717474460601807,0
-0.38668423891067505,-4.584953308105469,-2.2483251094818115,0
-0.5034968852996826,-5.4440693855285645,-2.3822171688079834,0
-0.48843371868133545,-6.169984817504883,-2.547694683074951,0
-0.4947203993797302,-6.640741348266602,-2.704580307006836,0
-0.4457097053527832,-7.002622127532959,-2.757192373275757,0
-0.4849795699119568,-6.985503196716309,-2.7848165035247803,0
-0.5173358917236328,-6.625807762145996,-2.7252159118652344,0
-0.526832640171051,-5.940932273864746,-2.4872560501098633,0
-0.5457558035850525,-5.268633842468262,-2.2238271236419678,0
-0.5769935846328735,-4.795670032501221,-2.011060953140259,0
-0.7192132472991943,-4.531491756439209,-1.8606593608856201,0
-0.8389278650283813,-4.518926620483398,-1.805985689163208,0
-1.0513466596603394,-4.487733840942383,-1.7054097652435303,0
-1.1939481496810913,-4.486057281494141,-1.66371488571167,0
-1.314849853515625,-4.466187477111816,-1.6399354934692383,0
-1.3951833248138428,-4.483303070068359,-1.5237529277801514,0
-1.4212082624435425,-4.547114372253418,-1.365084171295166,0
-1.4605011940002441,-4.660009384155273,-1.2163619995117188,0
-1.4750313758850098,-4.807600975036621,-1.1060822010040283,0
-1.4216960668563843,-4.939586162567139,-1.0221447944641113,0
-1.345718502998352,-5.062967777252197,-0.9550905227661133,0
-1.249098777770996,-5.2300872802734375,-0.9242877960205078,0
-1.1338157653808594,-5.251578330993652,-0.8441247940063477,0
-1.0880447626113892,-5.2252888679504395,-0.7389869689941406,0
-1.0278288125991821,-5.055362701416016,-0.48717236518859863,0
-0.9430990219116211,-4.878177642822266,-0.1557178497314453,0
-0.8067597150802612,-4.616884231567383,0.06593942642211914,0
-0.821353018283844,-4.189624786376953,0.1911473274230957,0
-0.6576462984085083,-3.6126718521118164,0.3214578628540039,0
-0.5412884950637817,-2.933222770690918,0.4501795768737793,0
-0.40574344992637634,-2.047759532928467,0.6420485973358154,0
-0.08949851989746094,-0.9961204528808594,0.8534319400787354,0
0.42922443151474,0.2660341262817383,0.9176738262176514,0
0.9426824450492859,1.5752229690551758,0.9548392295837402,0
1.9102537631988525,3.214731216430664,1.2003884315490723,0
2.8933238983154297,5.118288040161133,1.631685733795166,0
3.846327304840088,7.329331398010254,2.6724133491516113,0
3.8409831523895264,9.457898139953613,4.3128767013549805,0
3.2078256607055664,10.523035049438477,6.247029781341553,0
2.67879056930542,10.87098217010498,7.872195720672607,0
2.0510921478271484,10.902294158935547,8.81818962097168,0
1.5034992694854736,10.417533874511719,8.868131637573242,0
1.4588840007781982,9.035842895507812,8.574844360351562,0
1.3038644790649414,5.4321489334106445,8.426713943481445,0
0.7873862981796265,0.02275562286376953,6.78792142868042,0
0.1790461540222168,-3.0219149589538574,4.55593204498291,0
-0.2690790891647339,-4.386048316955566,2.515946388244629,0
-0.9735080003738403,-4.396553993225098,0.2426600456237793,0
-1.535510778427124,-2.699399948120117,-1.1231739521026611,0
-1.7629058361053467,0.06356048583984375,-1.2711982727050781,0
-2.0033090114593506,2.953768730163574,-1.9867370128631592,0
-2.5826056003570557,6.116645812988281,-4.040497303009033,0
-2.909585952758789,9.240174293518066,-6.172989845275879,0
-3.013807773590088,12.058073043823242,-6.643709659576416,0
-3.792628288269043,13.877618789672852,-5.246672630310059,0
-4.437895774841309,13.86221981048584,-3.5924649238586426,0
-5.224055290222168,11.875743865966797,-1.8496220111846924,0
-6.339016437530518,9.073897361755371,0.2210988998413086,0
-6.708841323852539,5.672812461853027,1.5281720161437988,0
-5.842796325683594,2.4183502197265625,1.0557799339294434,0
-4.967382907867432,0.24402141571044922,-0.41475820541381836,0
-4.533112525939941,-0.34133148193359375,-1.6128733158111572,0
-4.19366979598999,-0.2906074523925781,-2.0377228260040283,0
-3.97072172164917,-0.9243006706237793,-3.097630739212036,0
-4.094511032104492,-1.6442217826843262,-3.9316511154174805,0
-3.892939805984497,-1.8577079772949219,-4.295989990234375,0
-3.472715377807617,-1.4527254104614258,-4.084102630615234,0
-2.9210259914398193,-0.4917144775390625,-3.51516056060791,0
-2.5827672481536865,0.7825222015380859,-3.13613224029541,0
-2.1553103923797607,2.159992218017578,-3.080134391784668,0
-1.2405319213867188,3.4423742294311523,-3.263594150543213,0
-0.06670460104942322,4.421535491943359,-2.9416308403015137,0
0.8794893026351929,5.096797943115234,-2.2004315853118896,0
1.673622965812683,5.2924909591674805,-1.4433579444885254,0
2.1515796184539795,4.792938232421875,-1.5263066291809082,0
1.698742151260376,3.555445671081543,-2.451523542404175,0
1.0455129146575928,1.929330825805664,-3.1135902404785156,0
0.9833594560623169,0.2686185836791992,-3.7869317531585693,0
0.6701560020446777,-1.0154838562011719,-4.531067371368408,0
0.3068493604660034,-1.7749252319335938,-5.152944564819336,0
0.35138076543807983,-1.894942283630371,-5.372214317321777,0
0.43513786792755127,-1.6909265518188477,-5.3713603019714355,0
0.5038568377494812,-1.2459259033203125,-5.282413482666016,0
0.5431980490684509,-0.7507963180541992,-5.011772632598877,0
0.6223933100700378,-0.33915042877197266,-4.527294158935547,0
0.6450866460800171,-0.06585025787353516,-3.925076484680176,0
0.710945725440979,0.038170814514160156,-3.2721705436706543,0
0.8068656921386719,-0.007750511169433594,-2.5374481678009033,0
0.8693991899490356,-0.1746530532836914,-1.8907777070999146,0
1.0099223852157593,-0.41913890838623047,-1.3802915811538696,0
1.064990520477295,-0.7265176773071289,-0.9849627017974854,0
1.070299744606018,-1.0631542205810547,-0.6954455375671387,0
1.0229915380477905,-1.3905744552612305,-0.4930863380432129,0
0.9779843091964722,-1.7566852569580078,-0.2868952751159668,0
0.7270832061767578,-1.9893512725830078,-0.22505879402160645,0
0.46213018894195557,-2.249286651611328,-0.24203133583068848,0
0.1500788927078247,-2.512925148010254,-0.35108327865600586,0
-0.050701022148132324,-2.747089385986328,-0.6302585601806641,0
-0.24950480461120605,-2.9399642944335938,-1.1176737546920776,0
-0.25418126583099365,-2.8812341690063477,-1.5886032581329346,0
-0.2847509980201721,-2.5950355529785156,-2.072303056716919,0
-0.25033748149871826,-2.2776527404785156,-2.3730852603912354,0
-0.2471637725830078,-1.9074702262878418,-2.6446213722229004,0
-0.08938360214233398,-1.6662750244140625,-2.771960496902466,0
0.08102691173553467,-1.3435583114624023,-2.66147518157959,0
0.13212895393371582,-1.0854578018188477,-2.4751415252685547,0
0.20256006717681885,-0.7606334686279297,-2.259674549102783,0
0.3162097930908203,-0.5940322875976562,-2.2010915279388428,0
0.37217533588409424,-0.43243885040283203,-2.2103140354156494,0
0.42271673679351807,-0.45270729064941406,-2.2370238304138184,0
0.5539422035217285,-0.39156150817871094,-2.0875375270843506,0
0.6869076490402222,-0.3446998596191406,-1.9128689765930176,0
0.8071882724761963,-0.31917762756347656,-1.7731587886810303,0
0.8430649042129517,-0.41531944274902344,-1.565885305404663,0
0.911798357963562,-0.5276346206665039,-1.4280967712402344,0
0.9276463985443115,-0.6368417739868164,-1.3632049560546875,0
0.8838605880737305,-0.6735496520996094,-1.1303989887237549,0
0.7712336778640747,-0.7621517181396484,-0.7162509560585022,0
0.577776312828064,-0.8427925109863281,-0.18823421001434326,0
0.5521277189254761,-0.9011478424072266,0.27165400981903076,0
0.5002026557922363,-0.9707508087158203,0.6587458848953247,0
0.5295708179473877,-1.018183708190918,1.0045173168182373,0
0.5394173860549927,-1.036402702331543,1.2404778003692627,0
0.500494122505188,-1.1187562942504883,1.2720527648925781,0
0.5037814378738403,-1.167257308959961,1.1792988777160645,0
0.42554426193237305,-1.2108287811279297,0.9776221513748169,0
0.2307901382446289,-1.2520389556884766,0.6128687858581543,0
0.09727621078491211,-1.34600830078125,0.13596224784851074,0
-0.0032633543014526367,-1.32293701171875,-0.2090669870376587,0
-0.07497870922088623,-1.3671159744262695,-0.343747615814209,0
-0.16775751113891602,-1.3397302627563477,-0.41491541266441345,0
-0.1667879819869995,-1.2718696594238281,-0.35641157627105713,0
-0.13933098316192627,-1.342860221862793,-0.14949309825897217,0
-0.04030406475067139,-1.4137840270996094,0.030981481075286865,0
0.13470458984375,-1.4152393341064453,0.1490224003791809,0
0.2731119394302368,-1.4333782196044922,0.23343771696090698,0
0.3510171175003052,-1.3151397705078125,0.3226413130760193,0
0.40966618061065674,-1.2544317245483398,0.404704213142395,0
0.41344594955444336,-1.057474136352539,0.42391741275787354,0
0.36709487438201904,-0.7196073532104492,0.4824880361557007,0
0.3252350091934204,-0.37005615234375,0.6038047075271606,0
0.4573194980621338,-0.11640167236328125,0.835404634475708,0
0.4996609687805176,0.10607051849365234,1.0934803485870361,0
0.5021243095397949,0.1300516128540039,1.327950119972229,0
0.5909109115600586,0.06821441650390625,1.4239811897277832,0
0.564535915851593,0.02352142333984375,1.2619696855545044,0
0.6042159199714661,-0.006409645080566406,1.153503656387329,0
0.6281587481498718,-0.0885457992553711,1.1830079555511475,0
0.6886786818504333,-0.10565662384033203,1.2627532482147217,0
0.694855272769928,-0.03631877899169922,1.3882317543029785,0
0.7806667685508728,0.18390846252441406,1.4109904766082764,0
0.90306556224823,0.33722877502441406,1.5797899961471558,0
1.0908489227294922,0.49065589904785156,1.7508928775787354,0
1.2747726440429688,0.7111139297485352,1.806965947151184,0
1.423943281173706,0.9315414428710938,1.7145136594772339,0
1.5576908588409424,1.1040973663330078,1.5190513134002686,0
1.6597073078155518,1.2383670806884766,1.2756354808807373,0
1.869203805923462,1.3439207077026367,1.0585355758666992,0
2.004650354385376,1.4590301513671875,0.8198884129524231,0
2.174146890640259,1.5716896057128906,0.6647488474845886,0
2.2608084678649902,1.8085899353027344,0.5685685873031616,0
2.247896194458008,2.0093460083007812,0.5304650068283081,0
2.163991928100586,2.1954946517944336,0.6333205699920654,0
2.1575076580047607,2.4650516510009766,0.7905235290527344,0
2.1852784156799316,2.64572811126709,0.9923050403594971,0
2.1466174125671387,2.6850337982177734,1.1908988952636719,0
2.0963048934936523,2.6548900604248047,1.281325101852417,0
2.0725486278533936,2.615168571472168,1.3093916177749634,0
2.101668357849121,2.420003890991211,1.3922772407531738,0
1.917726993560791,2.323057174682617,1.49149489402771,0
1.8123924732208252,2.443756103515625,1.5686020851135254,0
1.7780777215957642,2.3777389526367188,1.6905977725982666,0
1.7518490552902222,2.455206871032715,1.7182927131652832,0
1.7330507040023804,2.5492401123046875,1.6297531127929688,0
1.8404819965362549,2.714813232421875,1.360116958618164,0
1.8865234851837158,3.0044422149658203,0.8970288038253784,0
2.1123151779174805,3.324709892272949,0.45048093795776367,0
2.2953619956970215,3.701869010925293,0.024659723043441772,0
2.5075924396514893,4.0880231857299805,-0.3143587112426758,0
2.785506010055542,4.409078598022461,-0.3706304132938385,0
2.8595473766326904,4.308884620666504,-0.4389873147010803,0
2.9402823448181152,3.9171762466430664,-0.5728895664215088,0
3.1379692554473877,3.5668134689331055,-0.7051056623458862,0
3.2209393978118896,3.0689878463745117,-1.0388380289077759,0
3.0913617610931396,2.3618850708007812,-1.3849225044250488,0
3.0085525512695312,1.7902402877807617,-1.6945271492004395,0
2.6673312187194824,1.2607574462890625,-2.0363454818725586,0
1.9699671268463135,0.6229228973388672,-2.365453004837036,0
1.4368616342544556,0.18545818328857422,-2.5502419471740723,0
0.9186813831329346,-0.04460716247558594,-2.729262113571167,0
0.28530895709991455,-0.20851707458496094,-2.7226245403289795,0
-0.40212491154670715,-0.28719329833984375,-2.529121160507202,0
-1.2216730117797852,-0.33336734771728516,-2.2595834732055664,0
-1.883385181427002,-0.4786567687988281,-1.9507215023040771,0
-2.439696788787842,-0.7445611953735352,-1.6943466663360596,0
-2.9435293674468994,-0.9588756561279297,-1.5394227504730225,0
-3.3871212005615234,-1.2437047958374023,-1.4127405881881714,0
-3.7471976280212402,-1.4771556854248047,-1.2672624588012695,0
-3.629594326019287,-1.5782346725463867,-1.034593105316162,0
-3.1872103214263916,-1.4277162551879883,-0.8318138718605042,0
-2.8427481651306152,-1.238729476928711,-0.7028132081031799,0
-2.433779716491699,-0.9562759399414062,-0.610511064529419,0
-2.279982089996338,-0.630218505859375,-0.7279964685440063,0
-2.380183219909668,-0.19510459899902344,-0.8903713226318359,0
-2.6906423568725586,0.28537464141845703,-0.77186119556427,0
-2.9877302646636963,0.8094873428344727,-0.34139490127563477,0
-3.08808970451355,1.3655328750610352,0.2812838554382324,0
-3.100667953491211,1.8670291900634766,0.9627554416656494,0
-3.2239928245544434,2.3417367935180664,1.5717837810516357,0
-3.142730236053467,2.673828125,1.6609609127044678,0
-2.842808961868286,2.757533073425293,1.142331838607788,0
-2.5946943759918213,2.717238426208496,0.1819164752960205,0
-2.2340595722198486,2.708174705505371,-0.9968385696411133,0
-1.695054292678833,2.588815689086914,-2.0701959133148193,0
-0.8872733116149902,2.3141651153564453,-2.889160633087158,0
-0.14847706258296967,1.7558565139770508,-3.0112955570220947,0
0.168989896774292,0.8139619827270508,-2.442782402038574,0
0.380050390958786,-0.3343696594238281,-1.6022717952728271,0
0.41029900312423706,-1.2637648582458496,-0.9958975315093994,0
0.22621987760066986,-1.8435893058776855,-0.5719118118286133,0
-0.03522796928882599,-2.2228517532348633,-0.547271728515625,0
-0.1799633949995041,-2.4520201683044434,-0.8070774078369141,0
-0.20960861444473267,-2.631516933441162,-1.1963527202606201,0
-0.03187134861946106,-2.7658891677856445,-1.6585509777069092,0
-0.040637075901031494,-2.936441421508789,-2.1030662059783936,0
-0.11532697081565857,-3.291625499725342,-2.357454776763916,0
-0.12268702685832977,-3.9414052963256836,-2.6131081581115723,0
-0.15579524636268616,-4.429089069366455,-2.6303458213806152,0
-0.12098315358161926,-5.030345439910889,-2.5330426692962646,0
-0.07584194839000702,-5.520657539367676,-2.433164358139038,0
-0.13004867732524872,-5.819012641906738,-2.392831802368164,0
-0.239199697971344,-5.545531272888184,-2.297194242477417,0
-0.1709638237953186,-4.923213958740234,-2.1034910678863525,0
0.03723272681236267,-4.272965908050537,-1.7807214260101318,0
0.14749956130981445,-3.795637607574463,-1.5659146308898926,0
0.20571479201316833,-3.6035642623901367,-1.4468014240264893,0
0.06168368458747864,-3.562715530395508,-1.3751435279846191,0
0.014925330877304077,-3.6563782691955566,-1.3458051681518555,0
-0.15171778202056885,-3.836813449859619,-1.2890264987945557,0
-0.44743022322654724,-4.010829925537109,-1.2547886371612549,0
-0.6423914432525635,-4.178586959838867,-1.2236711978912354,0
-0.7536188364028931,-4.399921417236328,-1.0975050926208496,0
-0.853377640247345,-4.571799278259277,-0.9196391105651855,0
-0.9490534067153931,-4.658199310302734,-0.6928224563598633,0
-1.0070717334747314,-4.685283660888672,-0.4102954864501953,0
-1.0178052186965942,-4.786830902099609,-0.16323041915893555,0
-0.9262441992759705,-4.859780311584473,0.09849739074707031,0
-0.8523027896881104,-4.89461088180542,0.3679080009460449,0
-0.6699014902114868,-4.85307502746582,0.5638799667358398,0
-0.5614053010940552,-4.7447404861450195,0.6770505905151367,0
-0.4119890034198761,-4.602835655212402,0.6497626304626465,0
-0.3434584438800812,-4.355170726776123,0.6440463066101074,0
-0.35284900665283203,-4.0322699546813965,0.7423386573791504,0
-0.34800153970718384,-3.5665178298950195,0.9501571655273438,0
-0.3220469355583191,-3.0578250885009766,1.1414031982421875,0
-0.27370157837867737,-2.551008701324463,1.2761900424957275,0
-0.10019010305404663,-1.8132166862487793,1.2304117679595947,0
0.054644763469696045,-0.9653849601745605,0.7690677642822266,0
0.29679858684539795,0.1420154571533203,0.23072099685668945,0
0.5568129420280457,1.9281721115112305,0.19791626930236816,0
0.6136970520019531,4.548633575439453,0.7172162532806396,0
0.2777671217918396,8.10353946685791,2.4102158546447754,0
-0.5743794441223145,11.680768966674805,5.168543338775635,0
-1.4322123527526855,13.42365550994873,8.104935646057129,0
-0.8692795038223267,12.481666564941406,10.173551559448242,0
-0.7828723192214966,10.798335075378418,10.874441146850586,0
-0.6818850636482239,8.605680465698242,9.953169822692871,0
-0.4351345896720886,5.726840019226074,8.467629432678223,0
0.06551861763000488,2.199671745300293,6.8946452140808105,0
0.2914857864379883,-1.9382762908935547,5.067378044128418,0
-0.6481989622116089,-5.0535173416137695,2.8980555534362793,0
-1.7436678409576416,-4.352015972137451,1.0347614288330078,0
-2.4174978733062744,-0.5577869415283203,-0.803107738494873,0
-2.4565916061401367,3.6448373794555664,-2.234294891357422,0
-1.7125043869018555,7.597339630126953,-3.9698734283447266,0
-1.6365950107574463,11.131752967834473,-5.823163986206055,0
-2.8260679244995117,13.066535949707031,-7.398789405822754,0
-4.554117679595947,13.76887035369873,-8.083324432373047,0
-6.49234676361084,13.301430702209473,-7.837112903594971,0
-8.034540176391602,11.102594375610352,-6.659339904785156,0
-6.94791316986084,6.7270355224609375,-4.329662799835205,0
-5.2678680419921875,2.688264846801758,-2.1256980895996094,0
-4.737941741943359,1.3722190856933594,-1.1327860355377197,0
-4.476705074310303,1.4952373504638672,-1.4507505893707275,0
-3.8792030811309814,1.3915042877197266,-1.4284827709197998,0
-2.8357529640197754,0.6576480865478516,-0.8602898120880127,0
-1.9911473989486694,-0.2479724884033203,-0.38298702239990234,0
-1.6570518016815186,-1.3437881469726562,-0.742767333984375,0
-1.616527795791626,-2.1571574211120605,-2.022843599319458,0
-1.8758139610290527,-2.510295867919922,-3.314145803451538,0
-2.1536431312561035,-2.4689555168151855,-4.032731533050537,0
-2.21267032623291,-2.0535888671875,-4.295636177062988,0
-1.798145055770874,-1.3088998794555664,-4.1854119300842285,0
-1.0896104574203491,-0.2276935577392578,-3.569411277770996,0
-0.15620988607406616,0.8163518905639648,-2.681344985961914,0
1.1323636770248413,1.550149917602539,-1.8256677389144897,0
2.237571954727173,1.878279685974121,-1.5465123653411865,0
2.958484172821045,1.787139892578125,-1.7664800882339478,0
3.4465243816375732,1.44940185546875,-2.199577808380127,0
3.7111196517944336,0.8146724700927734,-2.6666769981384277,0
3.6972506046295166,0.09817981719970703,-3.2096052169799805,0
3.2725095748901367,-0.43428611755371094,-3.9056544303894043,0
2.4219532012939453,-0.7104520797729492,-4.716592311859131,0
1.5260895490646362,-0.7060031890869141,-5.303648948669434,0
0.8520752191543579,-0.6314153671264648,-5.255983352661133,0
0.41340458393096924,-0.7092533111572266,-4.570555686950684,0
0.0034427642822265625,-0.8153295516967773,-3.4889631271362305,0
-0.2873266339302063,-1.016810417175293,-2.3186795711517334,0
-0.25317060947418213,-1.167729377746582,-1.4369035959243774,0
0.054335832595825195,-1.251114845275879,-1.0615675449371338,0
0.3735487461090088,-1.4339752197265625,-0.935218095779419,0
0.651286244392395,-1.5413923263549805,-0.7021021842956543,0
0.8555574417114258,-1.6618432998657227,-0.3146514892578125,0
0.834632158279419,-1.8383374214172363,0.031157493591308594,0
0.8129712343215942,-1.884383201599121,0.23535990715026855,0
0.6684126853942871,-2.032228469848633,0.28670310974121094,0
0.5353134870529175,-2.1456408500671387,0.14279556274414062,0
0.3474332094192505,-2.126894950866699,-0.07836008071899414,0
0.004799008369445801,-2.0672073364257812,-0.41442203521728516,0
-0.3053187131881714,-1.9931483268737793,-0.8527334928512573,0
-0.5271782279014587,-1.7925519943237305,-1.2636806964874268,0
-0.7917580008506775,-1.6330113410949707,-1.6928613185882568,0
-0.9908296465873718,-1.3782157897949219,-1.937214732170105,0
-1.2223798036575317,-1.0210800170898438,-2.0856778621673584,0
-1.460429072380066,-0.815093994140625,-2.0453193187713623,0
-1.5166114568710327,-0.6284656524658203,-1.79255211353302,0
-1.3316888809204102,-0.5185232162475586,-1.4734588861465454,0
-1.1771588325500488,-0.5256929397583008,-1.2315120697021484,0
-0.8025634288787842,-0.4753227233886719,-0.948715329170227,0
-0.5365096926689148,-0.5970211029052734,-0.8349727392196655,0
-0.025157690048217773,-0.7540273666381836,-0.7861075401306152,0
0.3103165626525879,-0.9341640472412109,-0.5712031126022339,0
0.43471813201904297,-1.0107736587524414,-0.20951437950134277,0
0.5710738897323608,-1.2447052001953125,-0.09564924240112305,0
0.7075363397598267,-1.396733283996582,-0.25290513038635254,0
0.930486798286438,-1.3905868530273438,-0.4292615056037903,0
1.1799753904342651,-1.2863044738769531,-0.5811250805854797,0
1.33367919921875,-1.2513799667358398,-0.7273176312446594,0
1.4656034708023071,-1.2330780029296875,-0.8176319599151611,0
1.4969300031661987,-1.1572418212890625,-0.8235225677490234,0
1.5760366916656494,-1.1291284561157227,-0.8265317678451538,0
1.6072618961334229,-1.1534242630004883,-0.7504408955574036,0
1.6024987697601318,-1.2515830993652344,-0.6262865662574768,0
1.5617526769638062,-1.344625473022461,-0.515988826751709,0
1.4590213298797607,-1.456512451171875,-0.40740644931793213,0
1.3494898080825806,-1.4533071517944336,-0.40590548515319824,0
1.1784855127334595,-1.4642715454101562,-0.351493775844574,0
0.9868181943893433,-1.3793821334838867,-0.18711668252944946,0
0.7553774118423462,-1.2274274826049805,0.012692093849182129,0
0.5895392894744873,-1.1352500915527344,0.21936100721359253,0
0.44157731533050537,-1.0597496032714844,0.3179953098297119,0
0.3214395046234131,-1.0559415817260742,0.3754886984825134,0
0.1767822504043579,-1.030503273010254,0.3556827902793884,0
0.139349102973938,-1.0504093170166016,0.3059094548225403,0
0.08226454257965088,-0.9601821899414062,0.28817859292030334,0
0.012750625610351562,-0.8412857055664062,0.36492565274238586,0
-0.02128291130065918,-0.7152996063232422,0.37612947821617126,0
-0.06764709949493408,-0.5033540725708008,0.456420361995697,0
-0.0713963508605957,-0.2031545639038086,0.4673788547515869,0
-0.0037878751754760742,0.0751953125,0.44997847080230713,0
0.106514573097229,0.2695598602294922,0.4378431439399719,0
0.16356706619262695,0.5163946151733398,0.36609524488449097,0
0.30790334939956665,0.7368097305297852,0.31086570024490356,0
0.45799940824508667,0.9547700881958008,0.31265297532081604,0
0.5757590532302856,1.2013492584228516,0.33054184913635254,0
0.5337387919425964,1.3976736068725586,0.16529907286167145,0
0.6904270648956299,1.5868616104125977,0.04362861067056656,0
0.7512631416320801,1.6923913955688477,0.12292598187923431,0
0.7589307427406311,1.745457649230957,0.18523642420768738,0
0.761177659034729,1.7365407943725586,0.2522010803222656,0
0.7676061987876892,1.7876338958740234,0.29287993907928467,0
0.6179688572883606,1.7910442352294922,0.3219447135925293,0
0.4201318621635437,1.6607284545898438,0.45204535126686096,0
0.2435472011566162,1.5929183959960938,0.6141423583030701,0
0.05913513898849487,1.4225654602050781,0.7942780256271362,0
0.010409116744995117,1.3315191268920898,1.0405821800231934,0
0.07574969530105591,1.3100996017456055,1.2692612409591675,0
0.3003874123096466,1.243433952331543,1.4706823825836182,0
0.5142801403999329,1.239161491394043,1.5921289920806885,0
0.8319326639175415,1.4311017990112305,1.6097602844238281,0
1.1404829025268555,1.6038007736206055,1.5785837173461914,0
1.6551979780197144,1.7716121673583984,1.5488495826721191,0
1.9836210012435913,1.994297981262207,1.5228757858276367,0
2.2861270904541016,2.058964729309082,1.4981975555419922,0
2.572545289993286,2.1140241622924805,1.4674450159072876,0
2.8123974800109863,2.006406784057617,1.5713567733764648,0
2.967803478240967,1.8797273635864258,1.742214322090149,0
3.0845649242401123,1.7937259674072266,1.888313889503479,0
3.1509037017822266,1.678955078125,2.0065762996673584,0
3.195777416229248,1.6741132736206055,2.0777428150177,0
3.2835309505462646,1.802964210510254,2.0297904014587402,0
3.490229606628418,1.9601306915283203,1.8722115755081177,0
3.6574301719665527,1.992548942565918,1.5713541507720947,0
3.696288824081421,2.113157272338867,1.0523574352264404,0
3.8073792457580566,2.154447555541992,0.5032712817192078,0
3.7984657287597656,2.2002344131469727,0.16494625806808472,0
3.7361345291137695,2.351016044616699,-0.02509695291519165,0
3.6631808280944824,2.59481143951416,-0.15266552567481995,0
3.455374002456665,2.5968780517578125,-0.20017501711845398,0
3.1080210208892822,2.0898218154907227,-0.45924586057662964,0
2.7482149600982666,1.4593477249145508,-0.7912384271621704,0
2.337946653366089,0.7750663757324219,-1.1727675199508667,0
1.875057578086853,0.16631698608398438,-1.4461617469787598,0
1.5227018594741821,-0.3237905502319336,-1.6117045879364014,0
1.2000830173492432,-0.7478265762329102,-1.7891781330108643,0
0.8936035633087158,-0.8857221603393555,-1.7770150899887085,0
0.5159177184104919,-1.0006847381591797,-1.9436064958572388,0
0.25017231702804565,-0.9419527053833008,-1.9584764242172241,0
-0.17991717159748077,-0.9463396072387695,-1.8354507684707642,0
-0.5578826665878296,-0.9060745239257812,-1.6335153579711914,0
-0.9928187727928162,-0.9001226425170898,-1.2387573719024658,0
-1.3838779926300049,-0.8161182403564453,-0.874427318572998,0
-1.6597986221313477,-0.8169794082641602,-0.468309223651886,0
-1.8106008768081665,-0.6207447052001953,-0.09672367572784424,0
-1.7672442197799683,-0.263885498046875,0.14945852756500244,0
-1.580479621887207,0.24818801879882812,0.3034782409667969,0
-1.3575325012207031,0.7594537734985352,0.3475393056869507,0
-1.046407699584961,1.312821388244629,0.18760478496551514,0
-0.9697391986846924,1.8461904525756836,-0.05389988422393799,0
-1.063447117805481,2.335942268371582,-0.262439489364624,0
-1.214843988418579,2.7777557373046875,-0.38378989696502686,0
-1.6915371417999268,3.1506567001342773,-0.4283182621002197,0
-2.3909151554107666,3.4767704010009766,-0.3843955993652344,0
-3.259249210357666,3.715829849243164,-0.2125612497329712,0
-3.83428955078125,3.8610286712646484,0.005287647247314453,0
-3.919574022293091,3.7810983657836914,0.20958328247070312,0
-3.527315616607666,3.631673812866211,0.3561069965362549,0
-2.7497665882110596,3.312185287475586,0.3917660713195801,0
-2.0341200828552246,2.9660425186157227,0.2085094451904297,0
-1.5433170795440674,2.3562536239624023,-0.1319899559020996,0
-1.4262638092041016,1.946772575378418,-0.7121343612670898,0
-0.85953688621521,1.5720911026000977,-1.4136691093444824,0
-0.4226078987121582,1.234527587890625,-2.0501608848571777,0
-0.2061157524585724,0.8267202377319336,-2.517622470855713,0
-0.13004741072654724,0.19349002838134766,-2.6375253200531006,0
-0.16036903858184814,-0.5383768081665039,-2.4790382385253906,0
-0.35661089420318604,-1.2854928970336914,-2.1035690307617188,0
-0.3976883292198181,-1.8928327560424805,-1.7017269134521484,0
-0.2974378168582916,-2.6049904823303223,-1.2150394916534424,0
-0.368996798992157,-3.199761390686035,-1.0783488750457764,0
-0.4211452007293701,-3.708606243133545,-1.0805437564849854,0
-0.4775082468986511,-3.7010064125061035,-1.36100172996521,0
-0.5470606088638306,-3.6221823692321777,-1.5996360778808594,0
-0.29449689388275146,-3.7545485496520996,-1.8847987651824951,0
-0.4083053767681122,-3.9260783195495605,-2.0890517234802246,0
-0.3415084779262543,-4.0988945960998535,-2.142519950866699,0
-0.2412618100643158,-4.163313388824463,-2.2483179569244385,0
-0.061876535415649414,-4.284499645233154,-2.42570424079895,0
0.05251920223236084,-4.440828800201416,-2.598345994949341,0
0.14244961738586426,-4.735054969787598,-2.579967975616455,0
0.15822681784629822,-5.047510147094727,-2.4976139068603516,0
0.20087715983390808,-5.229944229125977,-2.3371500968933105,0
0.08673761785030365,-5.366201400756836,-2.161013603210449,0
-0.1914374679327011,-5.370224952697754,-2.0458829402923584,0
-0.29261016845703125,-5.058065414428711,-1.943889856338501,0
-0.23204562067985535,-4.521278381347656,-1.7731809616088867,0
-0.2995133399963379,-4.07127046585083,-1.7413873672485352,0
-0.4567926228046417,-3.854135036468506,-1.68513822555542,0
-0.5224252343177795,-3.759810447692871,-1.682988166809082,0
-0.5856682658195496,-3.819243907928467,-1.6463665962219238,0
-0.7979539632797241,-4.075230121612549,-1.6064903736114502,0
-1.004493236541748,-4.319602966308594,-1.3694469928741455,0
-1.0699694156646729,-4.418616771697998,-1.1336097717285156,0
-1.1603631973266602,-4.489626884460449,-0.949091911315918,0
-1.2111918926239014,-4.525451183319092,-0.7416834831237793,0
-1.2797679901123047,-4.452018737792969,-0.5399470329284668,0
-1.363455057144165,-4.36985969543457,-0.3078908920288086,0
-1.4285489320755005,-4.21189022064209,-0.024085044860839844,0
-1.4199587106704712,-4.03544807434082,0.34247446060180664,0
-1.320840835571289,-3.8451199531555176,0.6863365173339844,0
-1.2148921489715576,-3.575908660888672,0.9304013252258301,0
-1.0997498035430908,-3.1722970008850098,1.1479377746582031,0
-1.0809824466705322,-2.619418144226074,1.304326057434082,0
-1.0889465808868408,-1.9719219207763672,1.6569430828094482,0
-1.0193802118301392,-1.3058156967163086,2.077502489089966,0
-0.7171050906181335,-0.7299985885620117,2.1925976276397705,0
-0.2838289141654968,-0.0635995864868164,2.0826025009155273,0
0.23562216758728027,0.768925666809082,1.8104820251464844,0
0.9663389921188354,1.7352781295776367,1.6711359024047852,0
1.8322436809539795,3.0851821899414062,1.6724765300750732,0
2.468857526779175,4.893135070800781,2.053105354309082,0
2.4949951171875,7.1300811767578125,2.931614637374878,0
1.629075050354004,9.194805145263672,4.452751159667969,0
1.2114486694335938,9.814270973205566,6.502229690551758,0
1.5283827781677246,9.120010375976562,8.60602855682373,0
0.9779021739959717,8.082420349121094,9.281983375549316,0
0.2860833704471588,6.7644548416137695,8.907306671142578,0
-0.08308464288711548,4.547167778015137,7.995479583740234,0
-0.06706783175468445,1.563492774963379,6.348328590393066,0
-0.021593481302261353,-1.604759693145752,3.113018035888672,0
-0.7131752371788025,-2.1772122383117676,-0.08200621604919434,0
-1.6333552598953247,0.742304801940918,-2.5162758827209473,0
-2.6129109859466553,4.765637397766113,-3.5814414024353027,0
-3.80332088470459,8.771919250488281,-4.171866416931152,0
-3.941077470779419,12.918195724487305,-5.146053314208984,0
-4.004977703094482,16.302288055419922,-6.034459114074707,0
-3.8354005813598633,17.625701904296875,-5.978403091430664,0
-3.905303716659546,15.063132286071777,-4.459277629852295,0
-5.602645397186279,10.0828218460083,-3.2351465225219727,0
-7.6380462646484375,3.990138053894043,-3.067203998565674,0
-8.076963424682617,-0.35489940643310547,-2.988664150238037,0
-8.150750160217285,-1.7957229614257812,-3.1874003410339355,0
-7.951805114746094,-0.9860696792602539,-2.8542771339416504,0
-7.095273017883301,0.7079620361328125,-1.13824462890625,0
-5.521058559417725,1.5747747421264648,-0.20235252380371094,0
-3.8043031692504883,1.6671361923217773,0.07733631134033203,0
-2.5505881309509277,1.3528919219970703,-0.33753013610839844,0
-1.7397866249084473,0.9023590087890625,-1.0097637176513672,0
-0.9850199222564697,0.3549785614013672,-1.8599398136138916,0
-0.38971519470214844,-0.15520286560058594,-2.7402453422546387,0
-0.31090179085731506,-0.43590736389160156,-3.553231954574585,0
-0.24778956174850464,-0.517033576965332,-4.085336208343506,0
0.036826252937316895,-0.5146493911743164,-4.2135009765625,0
0.5096694827079773,-0.3612327575683594,-3.8438503742218018,0
1.0806740522384644,-0.2051544189453125,-3.232262134552002,0
1.688988447189331,0.04398155212402344,-2.4728598594665527,0
2.2389943599700928,0.16538429260253906,-1.833787202835083,0
2.5824921131134033,0.16340255737304688,-1.4419002532958984,0
2.8252739906311035,0.02817058563232422,-1.3380916118621826,0
3.1386868953704834,-0.2955780029296875,-1.4581129550933838,0
3.3038716316223145,-0.6332855224609375,-1.7578061819076538,0
3.1888961791992188,-0.8914566040039062,-2.239718437194824,0
3.0853307247161865,-0.9116859436035156,-2.7546987533569336,0
2.7442243099212646,-0.5669088363647461,-3.1084532737731934,0
2.306553840637207,-0.2563037872314453,-3.298349142074585,0
1.8142318725585938,-0.02254962921142578,-3.1918132305145264,0
1.494720458984375,-0.03281211853027344,-2.8493564128875732,0
1.49392831325531,-0.22474002838134766,-2.4407050609588623,0
1.4287341833114624,-0.629277229309082,-2.1257078647613525,0
1.3467750549316406,-1.09295654296875,-2.04323148727417,0
1.0928053855895996,-1.4169330596923828,-2.0242416858673096,0
0.9234378337860107,-1.6966047286987305,-2.221106767654419,0
0.6960302591323853,-2.0297555923461914,-2.3437037467956543,0
0.384871244430542,-2.301375389099121,-2.333752155303955,0
0.0069065093994140625,-2.559433937072754,-2.1487061977386475,0
-0.4904947876930237,-2.780261993408203,-1.874406099319458,0
-1.0218921899795532,-2.9616284370422363,-1.675431728363037,0
-1.4396049976348877,-3.024719715118408,-1.539520263671875,0
-1.794389247894287,-2.9099206924438477,-1.471388816833496,0
-2.0295968055725098,-2.7274322509765625,-1.4326319694519043,0
-2.0929768085479736,-2.522883892059326,-1.427565574645996,0
-2.0252790451049805,-2.327453136444092,-1.4633264541625977,0
-1.9222018718719482,-2.1459760665893555,-1.3126585483551025,0
-1.8679554462432861,-1.968945026397705,-1.0661098957061768,0
-1.7677366733551025,-1.7008204460144043,-0.8182422518730164,0
-1.5128412246704102,-1.5066947937011719,-0.5849435329437256,0
-1.1907941102981567,-1.2788400650024414,-0.5423797369003296,0
-0.8027693033218384,-1.0841598510742188,-0.4341064691543579,0
-0.28874385356903076,-1.1592817306518555,-0.4640740156173706,0
0.04308271408081055,-1.1499338150024414,-0.5874170064926147,0
0.30584394931793213,-1.2092609405517578,-0.512803852558136,0
0.4714527130126953,-1.212937355041504,-0.38382023572921753,0
0.6868351697921753,-1.1898736953735352,-0.3939942717552185,0
0.7274221181869507,-1.2812738418579102,-0.4565582275390625,0
1.0266118049621582,-1.443995475769043,-0.5523210763931274,0
1.2451330423355103,-1.3670921325683594,-0.9331549406051636,0
1.2303385734558105,-1.0891704559326172,-1.2495348453521729,0
1.133377194404602,-0.7325248718261719,-1.4313743114471436,0
1.117488980293274,-0.4288454055786133,-1.4546011686325073,0
1.1975269317626953,-0.22112178802490234,-1.3725733757019043,0
0.9999098777770996,-0.1688528060913086,-1.3400468826293945,0
0.8451471328735352,-0.061328887939453125,-1.1767637729644775,0
0.7000610828399658,-0.0038671493530273438,-0.7809940576553345,0
0.4472630023956299,-0.05861186981201172,-0.21734696626663208,0
0.11011087894439697,-0.22303009033203125,0.34479081630706787,0
-0.14446938037872314,-0.37502574920654297,0.6714044809341431,0
-0.19269925355911255,-0.4787406921386719,0.8705836534500122,0
-0.14984536170959473,-0.5772905349731445,1.024158239364624,0
-0.13588756322860718,-0.6180830001831055,1.1445101499557495,0
-0.11738818883895874,-0.5629615783691406,1.284865379333496,0
-0.02510511875152588,-0.4718446731567383,1.4603022336959839,0
0.0595209002494812,-0.3758811950683594,1.4993258714675903,0
0.22028040885925293,-0.32291698455810547,1.4625142812728882,0
0.39485615491867065,-0.3822364807128906,1.2880237102508545,0
0.6842032074928284,-0.4843883514404297,0.9732481837272644,0
0.7684000134468079,-0.512202262878418,0.6332725286483765,0
0.7458236813545227,-0.5757532119750977,0.2868777811527252,0
0.7267817854881287,-0.4454507827758789,0.06289505958557129,0
0.7951287627220154,-0.18610191345214844,0.020778972655534744,0
0.8407851457595825,0.13518619537353516,0.011732906103134155,0
0.9856827855110168,0.5446376800537109,-0.05804573744535446,0
1.1052899360656738,0.9249820709228516,-0.07162743806838989,0
1.2113373279571533,1.1638832092285156,-0.017325595021247864,0
1.2368369102478027,1.347590446472168,0.01614406704902649,0
1.27754545211792,1.3876991271972656,0.067192941904068,0
1.1610528230667114,1.2174491882324219,0.0785512924194336,0
1.052211046218872,0.9781932830810547,0.13165341317653656,0
1.0012383460998535,0.7656536102294922,0.2527313232421875,0
0.9095235466957092,0.6085119247436523,0.355714350938797,0
1.0375527143478394,0.37998485565185547,0.6037698984146118,0
1.1216094493865967,0.13755321502685547,0.8508622646331787,0
1.273389220237732,0.012773513793945312,1.0160671472549438,0
1.619210958480835,0.12027454376220703,1.1355767250061035,0
1.9768211841583252,0.3856496810913086,1.2768628597259521,0
2.2481231689453125,0.5743694305419922,1.4616155624389648,0
2.5147902965545654,0.8132438659667969,1.5679796934127808,0
2.803701162338257,0.9706697463989258,1.736915946006775,0
2.9909396171569824,1.1112689971923828,1.8100366592407227,0
3.031252861022949,1.1608924865722656,1.8345738649368286,0
3.058774471282959,1.1148395538330078,1.8795360326766968,0
2.9512178897857666,1.0234251022338867,1.9183484315872192,0
2.7660398483276367,1.044485092163086,1.9028651714324951,0
2.6465401649475098,1.1467828750610352,1.9932994842529297,0
2.6119260787963867,1.3182191848754883,2.150836229324341,0
2.700500011444092,1.5084352493286133,2.207319736480713,0
2.780322790145874,1.7460298538208008,2.0423200130462646,0
2.910360336303711,2.1025896072387695,1.6357146501541138,0
2.94850754737854,2.632901191711426,1.115925669670105,0
2.9872007369995117,3.386948585510254,0.7768179774284363,0
3.073824405670166,4.158879280090332,0.6928524971008301,0
3.232233762741089,4.771812438964844,0.7784839272499084,0
3.2830426692962646,5.163850784301758,0.6728093028068542,0
3.365530252456665,5.364006996154785,0.47162267565727234,0
3.4614145755767822,4.839330673217773,0.2461070716381073,0
3.480405330657959,4.195697784423828,-0.007254242897033691,0
3.5407724380493164,3.550464630126953,-0.2391878068447113,0
3.358276844024658,2.798508644104004,-0.5871618986129761,0
3.174858570098877,2.1529130935668945,-0.8724439144134521,0
2.876305103302002,1.5467643737792969,-1.2273566722869873,0
2.477734327316284,1.1954383850097656,-1.4912060499191284,0
2.085550308227539,0.9051523208618164,-1.7542692422866821,0
1.562211036682129,0.4966907501220703,-1.90790593624115,0
0.8873512148857117,0.37685108184814453,-2.0440053939819336,0
0.10053765773773193,0.42103004455566406,-2.1012699604034424,0
-0.6681077480316162,0.37082481384277344,-2.0303735733032227,0
-1.5327503681182861,0.38418102264404297,-1.969026803970337,0
-2.3494646549224854,0.4083681106567383,-1.8415192365646362,0
-3.0087673664093018,0.3188772201538086,-1.4684090614318848,0
-3.4550909996032715,0.1753826141357422,-1.0527902841567993,0
-3.6236884593963623,0.11149215698242188,-0.7616664171218872,0
-3.5001912117004395,0.2009744644165039,-0.641856849193573,0
-3.1940200328826904,0.44121360778808594,-0.6849184632301331,0
-2.7829225063323975,0.7676067352294922,-0.6156322360038757,0
-2.372452735900879,1.1467170715332031,-0.4097658395767212,0
-2.1395397186279297,1.4065971374511719,-0.19652831554412842,0
-2.028913974761963,1.6529474258422852,0.06969177722930908,0
-2.0635783672332764,1.9148998260498047,0.3147878646850586,0
-2.3023979663848877,2.1235265731811523,0.5417356491088867,0
-2.557534694671631,2.4130029678344727,0.7909353971481323,0
-2.624264717102051,2.64447021484375,0.9631369113922119,0
-2.7555577754974365,2.9611425399780273,0.8621857166290283,0
-2.9349148273468018,3.238248825073242,0.5310404300689697,0
-2.556736707687378,3.2916078567504883,0.047051429748535156,0
-1.9772560596466064,3.1741600036621094,-0.6448109149932861,0
-1.5082647800445557,2.9890050888061523,-1.3219798803329468,0
-1.2668588161468506,2.7504472732543945,-2.000434398651123,0
-0.8814811706542969,2.5061988830566406,-2.638800859451294,0
-0.5496475696563721,2.1749439239501953,-3.0721049308776855,0
-0.0391012579202652,1.7666034698486328,-3.1317546367645264,0
0.2964784502983093,1.2239694595336914,-2.9117376804351807,0
0.39004263281822205,0.613795280456543,-2.329948902130127,0
0.27470898628234863,-0.03802967071533203,-1.7177906036376953,0
0.11755888164043427,-0.8492116928100586,-1.1216440200805664,0
-0.11991051584482193,-1.6240129470825195,-0.6718685626983643,0
-0.4086024761199951,-2.3818345069885254,-0.6717722415924072,0
-0.5940707325935364,-2.962674140930176,-0.9366834163665771,0
-0.6484767198562622,-3.6275057792663574,-1.3253681659698486,0
-0.6133749485015869,-4.276007652282715,-1.7037250995635986,0
-0.5769636631011963,-4.755351543426514,-2.12911057472229,0
-0.29197388887405396,-5.4436540603637695,-2.369676113128662,0
-0.008494347333908081,-6.156559467315674,-2.5359790325164795,0
-0.083030566573143,-6.7864532470703125,-2.6020212173461914,0
-0.05432984232902527,-7.072605133056641,-2.7407031059265137,0
-0.1877271682024002,-7.01066780090332,-2.7010440826416016,0
-0.24505707621574402,-6.5031256675720215,-2.6457695960998535,0
-0.15369339287281036,-5.6966118812561035,-2.3903870582580566,0
-0.10161074995994568,-4.859474182128906,-2.090299606323242,0
-0.0626101940870285,-4.372128963470459,-1.8983433246612549,0
-0.20116865634918213,-4.19135046005249,-1.8092668056488037,0
-0.3204537630081177,-4.216424942016602,-1.8516080379486084,0
-0.4916123151779175,-4.43289852142334,-1.862443208694458,0
-0.5806736946105957,-4.565712928771973,-1.8511631488800049,0
-0.6358964443206787,-4.708263874053955,-1.8584144115447998,0
-0.7031961679458618,-4.817502021789551,-1.778982162475586,0
-0.8116368055343628,-4.9555983543396,-1.6704347133636475,0
-0.8352091312408447,-5.1009111404418945,-1.5353307723999023,0
-0.8817890882492065,-5.253539085388184,-1.3567194938659668,0
-0.8030037879943848,-5.427855014801025,-1.1225876808166504,0
-0.7499011754989624,-5.583183765411377,-0.8329160213470459,0
-0.7396049499511719,-5.621357440948486,-0.6649010181427002,0
-0.7887262105941772,-5.611725330352783,-0.542027473449707,0
-0.9279053211212158,-5.429863452911377,-0.42853641510009766,0
-1.1089026927947998,-5.166669845581055,-0.23855304718017578,0
-1.2166227102279663,-4.9151692390441895,-0.09942293167114258,0
-1.2555633783340454,-4.679942607879639,0.10584545135498047,0
-1.2705940008163452,-4.374683380126953,0.30751895904541016,0
-1.2443758249282837,-4.016177654266357,0.5678277015686035,0
-1.0635700225830078,-3.5875449180603027,0.9030780792236328,0
-0.6746689081192017,-3.052338123321533,1.0726401805877686,0
-0.35028076171875,-2.4455037117004395,1.1030523777008057,0
0.10088786482810974,-1.4814386367797852,1.1567323207855225,0
0.554341197013855,-0.4271259307861328,1.1299936771392822,0
1.0894832611083984,1.0987873077392578,1.2107329368591309,0
1.5936973094940186,3.202268600463867,1.3950920104980469,0
1.87334406375885,5.8980712890625,1.9883816242218018,0
1.7258028984069824,8.887014389038086,3.1923208236694336,0
0.7098134160041809,11.249856948852539,5.395548343658447,0
-0.09499111771583557,11.293163299560547,7.73948335647583,0
0.3787088990211487,9.865355491638184,9.826995849609375,0
0.4473010003566742,8.573001861572266,9.694926261901855,0
0.5303142070770264,6.956792831420898,8.67131233215332,0
0.7424849271774292,4.315033912658691,7.466398239135742,0
0.9630979299545288,0.7111892700195312,6.19782829284668,0
0.535069465637207,-3.094573974609375,4.731937408447266,0
-0.7808385491371155,-5.354448318481445,2.3977742195129395,0
-1.6910104751586914,-3.292783737182617,0.26752614974975586,0
-1.6069477796554565,1.672719955444336,-1.1771297454833984,0
-0.6259955763816833,6.381082534790039,-2.7571346759796143,0
-0.7017321586608887,10.881898880004883,-4.9153642654418945,0
-1.6066417694091797,14.380158424377441,-7.486010551452637,0
-2.9333150386810303,17.16029930114746,-8.120628356933594,0
-4.231713771820068,18.883392333984375,-6.919708251953125,0
-5.219765663146973,17.95278549194336,-5.3500261306762695,0
-5.543968200683594,12.795106887817383,-3.644275665283203,0
-5.220344066619873,6.519508361816406,-2.250321865081787,0
-5.504012107849121,3.2785825729370117,-2.041989803314209,0
-6.24317741394043,1.9612064361572266,-1.9562180042266846,0
-6.367055416107178,0.8957090377807617,-0.5376219749450684,0
-6.044549465179443,-0.3509845733642578,0.3173379898071289,0
-5.775933265686035,-1.2785158157348633,0.24605226516723633,0
-5.7023491859436035,-1.8804264068603516,-0.4698214530944824,0
-5.425012588500977,-2.0713248252868652,-1.248291254043579,0
-4.783054828643799,-2.014883041381836,-1.770766258239746,0
-4.233163356781006,-1.7876086235046387,-2.2110633850097656,0
-3.438370704650879,-1.440138339996338,-2.4810738563537598,0
-2.330242872238159,-1.0288305282592773,-2.6077613830566406,0
-1.1476178169250488,-0.42436981201171875,-2.709074020385742,0
-0.041935741901397705,0.2148284912109375,-2.8245816230773926,0
0.858823299407959,0.7038145065307617,-2.8945863246917725,0
1.7648481130599976,0.8430328369140625,-2.84635066986084,0
2.3727753162384033,0.6841373443603516,-2.795814275741577,0
2.849325656890869,0.16424083709716797,-2.967045783996582,0
3.226569175720215,-0.4967222213745117,-3.2960150241851807,0
3.1353366374969482,-1.1859807968139648,-3.8113696575164795,0
2.86319899559021,-1.630040168762207,-4.522098541259766,0
2.630220413208008,-1.574873924255371,-4.880213260650635,0
2.5548925399780273,-0.9033679962158203,-4.842213153839111,0
2.4822187423706055,0.05854988098144531,-4.434873580932617,0
2.2904505729675293,0.7053461074829102,-3.8323707580566406,0
2.0443482398986816,0.9801139831542969,-3.2620553970336914,0
2.024138927459717,0.8333768844604492,-2.7818944454193115,0
2.005657911300659,0.16322040557861328,-2.227982759475708,0
1.721947193145752,-0.6444473266601562,-1.6852084398269653,0
1.4393731355667114,-1.173065185546875,-1.2099529504776,0
1.2444921731948853,-1.5948781967163086,-0.8847036361694336,0
1.1517090797424316,-1.8834571838378906,-0.6388763189315796,0
1.0939134359359741,-2.218085765838623,-0.5883681774139404,0
0.872641921043396,-2.4551591873168945,-0.5496834516525269,0
0.5937056541442871,-2.6116700172424316,-0.5804438591003418,0
0.20222461223602295,-2.714160919189453,-0.6231716871261597,0
-0.2443922758102417,-2.662419319152832,-0.7279109954833984,0
-0.5979110598564148,-2.5477170944213867,-0.7194740772247314,0
-1.107749104499817,-2.2914133071899414,-0.7119565010070801,0
-1.4732249975204468,-2.023010730743408,-0.6516010761260986,0
-1.7143381834030151,-1.7999963760375977,-0.6286879777908325,0
-1.9415457248687744,-1.6126976013183594,-0.6911598443984985,0
-1.9709043502807617,-1.3653450012207031,-0.8106309175491333,0
-1.994208812713623,-1.172760009765625,-0.951283872127533,0
-2.0284457206726074,-1.0971641540527344,-0.8829174637794495,0
-2.086021900177002,-1.0739526748657227,-0.822621762752533,0
-1.9279813766479492,-1.0960302352905273,-0.8078014254570007,0
-1.6242130994796753,-1.192103385925293,-0.8880196213722229,0
-1.1393029689788818,-1.2042655944824219,-0.883597195148468,0
-0.6629527807235718,-1.1086177825927734,-0.9023750424385071,0
-0.17473375797271729,-0.9147262573242188,-0.7985033988952637,0
0.3318713903427124,-0.7040166854858398,-0.5931735038757324,0
0.8953522443771362,-0.6319637298583984,-0.4442325830459595,0
1.2578191757202148,-0.5238637924194336,-0.4377516508102417,0
1.5058927536010742,-0.4323453903198242,-0.4327319860458374,0
1.6808912754058838,-0.5917434692382812,-0.43166911602020264,0
1.8218086957931519,-0.7076778411865234,-0.4992276430130005,0
1.864783525466919,-0.8495759963989258,-0.5805864930152893,0
1.8679279088974,-0.9672412872314453,-0.6303391456604004,0
1.8073569536209106,-1.1706924438476562,-0.6054449081420898,0
1.8103879690170288,-1.3259572982788086,-0.5108287930488586,0
1.7292046546936035,-1.3494367599487305,-0.2607290744781494,0
1.5831193923950195,-1.3536491394042969,-0.03023582696914673,0
1.4991642236709595,-1.2668590545654297,0.1322852373123169,0
1.345911979675293,-1.0485191345214844,0.2599528431892395,0
1.1640474796295166,-0.9068269729614258,0.3528118133544922,0
0.9462732672691345,-0.7197580337524414,0.38734978437423706,0
0.8361175656318665,-0.5686740875244141,0.37082570791244507,0
0.6635805368423462,-0.43436241149902344,0.2812890410423279,0
0.48147982358932495,-0.3144054412841797,0.21890908479690552,0
0.3640620708465576,-0.2326974868774414,0.1474592685699463,0
0.24408918619155884,-0.24895572662353516,0.05970877408981323,0
0.13087761402130127,-0.19327545166015625,-0.0945495069026947,0
0.06482625007629395,-0.22116374969482422,-0.1740010529756546,0
0.0336298942565918,-0.3181753158569336,-0.10881799459457397,0
-0.05155438184738159,-0.3670501708984375,-0.04706162214279175,0
-0.04764509201049805,-0.4706382751464844,0.021018505096435547,0
-0.045993030071258545,-0.5642890930175781,-0.014505594968795776,0
0.04853248596191406,-0.667119026184082,0.07135216891765594,0
0.18274229764938354,-0.654754638671875,0.06774815917015076,0
0.38016724586486816,-0.7138471603393555,0.2307477593421936,0
0.5687810182571411,-0.6817150115966797,0.43116581439971924,0
0.6288664937019348,-0.5824003219604492,0.6522654294967651,0
0.6897381544113159,-0.41600608825683594,0.8559157848358154,0
0.6700373291969299,-0.22088909149169922,0.9056626558303833,0
0.7398350238800049,0.014844894409179688,1.0003775358200073,0
0.8681373596191406,0.2982940673828125,1.0277326107025146,0
1.0506772994995117,0.6437082290649414,1.1266487836837769,0
1.1657055616378784,0.9720878601074219,1.144032597541809,0
1.225177526473999,1.3456239700317383,1.209092140197754,0
1.3392750024795532,1.6494741439819336,1.3072558641433716,0
1.4792046546936035,2.008063316345215,1.3835585117340088,0
1.745499610900879,2.249155044555664,1.6176040172576904,0
2.0854156017303467,2.4326696395874023,1.731783390045166,0
2.477154493331909,2.508458137512207,1.7111074924468994,0
2.8488783836364746,2.5220603942871094,1.6460543870925903,0
3.1531717777252197,2.5213518142700195,1.5987768173217773,0
3.3496809005737305,2.573277473449707,1.435013771057129,0
3.5317606925964355,2.684917449951172,1.3696815967559814,0
3.744922637939453,2.8514013290405273,1.433568000793457,0
3.857445001602173,3.0893754959106445,1.5974479913711548,0
3.9363231658935547,3.202652931213379,1.863067388534546,0
4.005480766296387,3.2200489044189453,2.28224778175354,0
4.031213283538818,3.100996971130371,2.674461841583252,0
4.087507724761963,2.919774055480957,2.905254364013672,0
4.159714221954346,2.791224479675293,2.9432668685913086,0
4.230338096618652,2.638795852661133,2.6692376136779785,0
4.238369464874268,2.606024742126465,2.0573105812072754,0
4.175519943237305,2.7286787033081055,1.2562999725341797,0
3.8925774097442627,3.035310745239258,0.6251661777496338,0
3.6646454334259033,3.3655405044555664,0.3071581721305847,0
3.4494144916534424,3.5998430252075195,0.2852162718772888,0
3.269498586654663,3.554287910461426,0.40570053458213806,0
3.044421672821045,3.1790924072265625,0.25186362862586975,0
2.8439793586730957,2.7712793350219727,-0.23196503520011902,0
2.7044334411621094,2.139741897583008,-0.8402787446975708,0
2.558910608291626,1.4833898544311523,-1.4438931941986084,0
2.3910372257232666,0.7857036590576172,-2.138608455657959,0
1.9934710264205933,0.19759559631347656,-2.9609360694885254,0
1.643122673034668,-0.3980245590209961,-3.475761890411377,0
1.2152130603790283,-0.8933391571044922,-3.7647275924682617,0
0.5080692768096924,-1.297830581665039,-3.5860249996185303,0
-0.29789310693740845,-1.489609718322754,-3.0427122116088867,0
-1.1066724061965942,-1.4404973983764648,-2.0752906799316406,0
-1.8729532957077026,-1.2874765396118164,-1.072245478630066,0
-2.5088372230529785,-1.1003503799438477,-0.2873597741127014,0
-2.8766019344329834,-0.5972270965576172,0.25872838497161865,0
-3.024019956588745,-0.008297920227050781,0.5838923454284668,0
-2.865941047668457,0.6443796157836914,0.9556759595870972,0
-2.424928665161133,1.1571664810180664,1.1379203796386719,0
-1.836735486984253,1.4992446899414062,1.1096916198730469,0
-1.2426609992980957,1.8409929275512695,0.9205093383789062,0
-0.8533107042312622,2.1683835983276367,0.6639405488967896,0
-0.7717657685279846,2.400296211242676,0.45385515689849854,0
-0.8988854885101318,2.4819469451904297,0.2705252170562744,0
-1.2032403945922852,2.5452280044555664,0.08414149284362793,0
-1.7988057136535645,2.600038528442383,-0.15224504470825195,0
-2.50791335105896,2.7041015625,-0.40411901473999023,0
-3.137052297592163,2.8696794509887695,-0.6106225252151489,0
-3.6589760780334473,2.9941720962524414,-0.8753131628036499,0
-3.6426939964294434,2.8552350997924805,-1.0323998928070068,0
-3.28731369972229,2.5437355041503906,-1.1518629789352417,0
-2.8768861293792725,2.009183883666992,-1.197916030883789,0
-2.5176570415496826,1.3780574798583984,-1.3238762617111206,0
-2.2272067070007324,0.9246282577514648,-1.5412490367889404,0
-1.4011385440826416,0.47591590881347656,-1.958418846130371,0
-0.6908038258552551,0.07975101470947266,-2.413149833679199,0
-0.07464033365249634,-0.3781280517578125,-2.6039042472839355,0
0.33009272813796997,-0.7227334976196289,-2.4629578590393066,0
0.30741575360298157,-1.2841196060180664,-2.0460004806518555,0
0.1660296767950058,-1.9735636711120605,-1.6092379093170166,0
0.15800975263118744,-2.7338638305664062,-1.0777223110198975,0
-0.0048624202609062195,-3.2258806228637695,-0.6106288433074951,0
-0.08256479352712631,-3.6702346801757812,-0.5707428455352783,0
-0.11753088235855103,-4.055144786834717,-0.7446715831756592,0
-0.2767676115036011,-4.124885082244873,-1.1131367683410645,0
-0.47642651200294495,-4.207355499267578,-1.5471653938293457,0
-0.5201012492179871,-4.202167510986328,-1.8889204263687134,0
-0.5324978232383728,-4.217146396636963,-2.128845453262329,0
-0.4707266092300415,-4.113593101501465,-2.2982845306396484,0
-0.5284034609794617,-4.099604606628418,-2.4287307262420654,0
-0.6071572303771973,-4.022154331207275,-2.474660873413086,0
-0.6309398412704468,-3.845498561859131,-2.4338016510009766,0
-0.6574442386627197,-3.7730798721313477,-2.3038082122802734,0
-0.7750620245933533,-3.8406615257263184,-2.1589579582214355,0
-0.9529404640197754,-3.923800468444824,-1.9513823986053467,0
-1.2243292331695557,-4.094354152679443,-1.7598416805267334,0
-1.2869857549667358,-4.4074883460998535,-1.645995855331421,0
-1.6334439516067505,-4.791603088378906,-1.6856944561004639,0
-1.8155258893966675,-5.002830505371094,-1.7710058689117432,0
-2.0670642852783203,-5.323630332946777,-1.9137108325958252,0
-2.2923266887664795,-5.486159801483154,-1.9557700157165527,0
-2.4441773891448975,-5.473845481872559,-1.885432481765747,0
-2.3370308876037598,-5.282283782958984,-1.6785871982574463,0
-2.2396254539489746,-5.0194501876831055,-1.4378838539123535,0
-2.179018497467041,-4.869649887084961,-1.2276606559753418,0
-2.0729990005493164,-4.615189075469971,-1.0285885334014893,0
-1.7740323543548584,-4.411673069000244,-0.7973971366882324,0
-1.5096675157546997,-4.2925028800964355,-0.5866117477416992,0
-1.2846359014511108,-4.22880220413208,-0.4248809814453125,0
-1.1538944244384766,-4.143884658813477,-0.3217041492462158,0
-1.0075323581695557,-4.006392002105713,-0.20805072784423828,0
-0.8696283102035522,-3.7419395446777344,-0.04132962226867676,0
-0.7450399398803711,-3.386186122894287,0.20656466484069824,0
-0.570608377456665,-2.9362401962280273,0.4387359619140625,0
-0.6036754250526428,-2.396552085876465,0.8480329513549805,0
-0.6305334568023682,-1.8911404609680176,1.4070448875427246,0
-0.6285344958305359,-1.3857965469360352,1.838944673538208,0
-0.3569924533367157,-0.7601318359375,2.222949504852295,0
0.027933627367019653,0.0010471343994140625,2.4964146614074707,0
0.5519105195999146,0.9824857711791992,2.4667983055114746,0
1.1416808366775513,2.190114974975586,2.2208986282348633,0
1.7063761949539185,3.663447380065918,1.933577537536621,0
2.144268035888672,5.422590255737305,1.986006259918213,0
2.085991621017456,6.891424179077148,2.8310306072235107,0
1.9679360389709473,7.442872047424316,5.035365581512451,0
2.18291974067688,6.734328269958496,7.51264762878418,0
1.9571201801300049,6.192736625671387,9.465414047241211,0
1.8644840717315674,5.80616569519043,10.685062408447266,0
2.100231170654297,5.113516807556152,11.286931991577148,0
2.771162271499634,3.8412160873413086,10.923279762268066,0
3.488072395324707,1.8506135940551758,9.73521900177002,0
4.152767181396484,-0.5225582122802734,7.6584625244140625,0
4.725496768951416,-3.234238624572754,5.098712921142578,0
5.086700439453125,-5.742766380310059,2.3124020099639893,0
4.106235980987549,-6.753753185272217,-0.7718205451965332,0
2.1501893997192383,-4.64756441116333,-2.9177138805389404,0
1.4090585708618164,-0.08600997924804688,-4.075364589691162,0
0.9887428879737854,4.5674238204956055,-5.2180023193359375,0
-0.015833944082260132,9.024374008178711,-6.879900932312012,0
-1.1764166355133057,12.968955039978027,-7.431968688964844,0
-2.698676347732544,16.330699920654297,-6.711050033569336,0
-4.985458850860596,18.792495727539062,-5.70929479598999,0
-7.38886833190918,19.235973358154297,-6.007604598999023,0
-9.116737365722656,17.19162940979004,-6.272624969482422,0
-8.7116117477417,12.346311569213867,-5.746105194091797,0
-7.586374759674072,7.209770202636719,-4.3537516593933105,0
-7.833341598510742,4.172028541564941,-1.774099588394165,0
-8.373017311096191,2.2751169204711914,0.13732504844665527,0
-8.043343544006348,0.32574939727783203,1.132913589477539,0
-6.703155517578125,-1.2968955039978027,1.6805024147033691,0
-5.52913761138916,-2.084880828857422,1.4782259464263916,0
-4.983699798583984,-2.390836715698242,0.33601903915405273,0
-4.410490989685059,-2.5439610481262207,-1.1843876838684082,0
-3.66363787651062,-2.603330612182617,-2.3826589584350586,0
-2.6080079078674316,-2.439305305480957,-2.9556095600128174,0
-1.3118566274642944,-1.7949838638305664,-3.071927547454834,0
-0.043063342571258545,-0.8223152160644531,-2.9379830360412598,0
1.5990983247756958,0.16796875,-2.5634517669677734,0
3.114027738571167,0.8246660232543945,-2.3830578327178955,0
3.9610817432403564,1.1583185195922852,-2.7165582180023193,0
4.47271728515625,0.976654052734375,-3.348594903945923,0
4.332891464233398,0.2059926986694336,-4.506843566894531,0
3.757335901260376,-0.8241062164306641,-5.9559221267700195,0
3.031987428665161,-1.4179601669311523,-7.039693832397461,0
2.3903441429138184,-1.2346630096435547,-7.842900276184082,0
1.8011302947998047,-0.5055913925170898,-8.170740127563477,0
1.1565866470336914,0.5564718246459961,-7.449025630950928,0
0.38996022939682007,1.4777917861938477,-6.046280860900879,0
-0.21523702144622803,1.8207120895385742,-4.026862144470215,0
-0.3140296936035156,1.635873794555664,-2.17651629447937,0
-0.1845991611480713,1.3303108215332031,-0.8526887893676758,0
0.097861647605896,0.7774105072021484,-0.10705852508544922,0
0.31363141536712646,0.0038766860961914062,0.24218368530273438,0
0.36568641662597656,-0.8894081115722656,0.3448750972747803,0
0.3838857412338257,-1.782510757446289,0.3026161193847656,0
0.28464412689208984,-2.54374361038208,0.19800925254821777,0
0.20449542999267578,-3.2498831748962402,0.08590412139892578,0
0.3399219512939453,-3.6526389122009277,-0.07850527763366699,0
0.4015613794326782,-3.762289524078369,-0.3205294609069824,0
0.1907564401626587,-3.727663516998291,-0.6488263607025146,0
-0.01978468894958496,-3.5061087608337402,-0.95243239402771,0
-0.30929529666900635,-3.076488494873047,-1.3166804313659668,0
-0.38609373569488525,-2.7667441368103027,-1.6118719577789307,0
-0.520776629447937,-2.342494487762451,-1.854300618171692,0
-0.6081313490867615,-2.066925048828125,-1.9745349884033203,0
-0.6556795835494995,-1.6838679313659668,-2.076106071472168,0
-0.7234834432601929,-1.3440275192260742,-2.0326154232025146,0
-0.6945047378540039,-1.1286945343017578,-1.9706381559371948,0
-0.5668253302574158,-0.8631935119628906,-1.901742935180664,0
-0.25203895568847656,-1.0304803848266602,-1.91282320022583,0
-0.2050684094429016,-0.9580602645874023,-1.7098219394683838,0
-0.10513067245483398,-0.9404153823852539,-1.3069758415222168,0
-0.09876489639282227,-1.1663312911987305,-1.0559239387512207,0
0.06746482849121094,-1.3055105209350586,-0.8442056179046631,0
0.37416815757751465,-1.267197608947754,-0.6574949622154236,0
0.746782660484314,-1.2547903060913086,-0.45792537927627563,0
0.9527952671051025,-1.2634162902832031,-0.4441511034965515,0
