AccX,AccY,AccZ,stepCount
-0.959074079990387,1.3193140029907227,-0.1749114990234375,2.261174440383911
-0.9728825688362122,1.744974136352539,0.07611441612243652,-3.260089874267578
-0.980567455291748,2.1422901153564453,0.27077364921569824,3.044498920440674
-0.9772142767906189,2.496016502380371,0.2925701141357422,-3.4303555488586426
-0.9824303388595581,2.8035058975219727,0.04913067817687988,2.4024786949157715
-0.9264408349990845,3.065349578857422,-0.49480390548706055,-3.517941951751709
-0.850269079208374,3.2591686248779297,-1.2501208782196045,1.4827046394348145
-0.7022448182106018,3.309558868408203,-2.042518138885498,-2.7051990032196045
-0.5484394431114197,3.1689071655273438,-2.716179370880127,2.892266273498535
-0.44468075037002563,2.8270606994628906,-3.1631948947906494,-5.883280277252197
-0.39756226539611816,2.290203094482422,-3.320432186126709,-0.131852924823761
-0.41404667496681213,1.5789299011230469,-3.206756114959717,0
-0.48415490984916687,0.7859897613525391,-2.938141345977783,0
-0.5660452246665955,0.021195411682128906,-2.6269445419311523,0
-0.6362125277519226,-0.6940555572509766,-2.3356919288635254,0
-0.6824796199798584,-1.3071417808532715,-2.098517417907715,0
-0.7064955234527588,-1.8133277893066406,-1.9255547523498535,0
-0.7222057580947876,-2.222097873687744,-1.8390517234802246,0
-0.7415488958358765,-2.571706771850586,-1.8035333156585693,0
-0.7802042365074158,-2.879042625427246,-1.8094916343688965,0
-0.8151038885116577,-3.189688205718994,-1.852201223373413,0
-0.8665159940719604,-3.49661922454834,-1.9148502349853516,0
-0.9068750143051147,-3.77601957321167,-1.9927561283111572,0
-0.9547027349472046,-4.023127555847168,-2.0789875984191895,0
-1.004822015762329,-4.233229160308838,-2.1569411754608154,0
-1.04976224899292,-4.385010242462158,-2.1954095363616943,0
-1.0749849081039429,-4.426249980926514,-2.1725056171417236,0
-1.097233533859253,-4.359963893890381,-2.0970935821533203,0
-1.1024372577667236,-4.212934494018555,-1.975865364074707,0
-1.1076444387435913,-4.037946701049805,-1.8542287349700928,0
-1.1131316423416138,-3.856508255004883,-1.7394866943359375,0
-1.0909218788146973,-3.6588969230651855,-1.6366944313049316,0
-1.0561370849609375,-3.471336841583252,-1.5435693264007568,0
-1.0069653987884521,-3.3080196380615234,-1.4698731899261475,0
-0.9510858058929443,-3.1877903938293457,-1.4135925769805908,0
-0.8931028842926025,-3.1296029090881348,-1.3629627227783203,0
-0.8375320434570312,-3.140512466430664,-1.33237886428833,0
-0.7820453643798828,-3.2059412002563477,-1.3076753616333008,0
-0.7173389196395874,-3.3091015815734863,-1.2743747234344482,0
-0.6581020951271057,-3.4427661895751953,-1.2204461097717285,0
-0.6072311401367188,-3.5877199172973633,-1.150660514831543,0
-0.5676932334899902,-3.729600429534912,-1.0648958683013916,0
-0.5494847297668457,-3.8636116981506348,-0.9606673717498779,0
-0.5480906963348389,-3.9849324226379395,-0.8403303623199463,0
-0.5755324959754944,-4.091140270233154,-0.7086336612701416,0
-0.6175510883331299,-4.17266321182251,-0.55350661277771,0
-0.6789948344230652,-4.224686145782471,-0.37969493865966797,0
-0.7551596164703369,-4.235141277313232,-0.18013811111450195,0
-0.8387565612792969,-4.201500415802002,0.028209686279296875,0
-0.9342024326324463,-4.116308689117432,0.24958515167236328,0
-1.0599133968353271,-3.9624438285827637,0.4759206771850586,0
-1.2279927730560303,-3.744379997253418,0.7352018356323242,0
-1.3661866188049316,-3.466372489929199,0.9925587177276611,0
-1.4420933723449707,-3.10825252532959,1.1997311115264893,0
-1.399782657623291,-2.6543307304382324,1.309889316558838,0
-1.2108409404754639,-2.062378406524658,1.251194715499878,0
-0.9174580574035645,-1.2494244575500488,1.0088329315185547,0
-0.5339363813400269,-0.17841625213623047,0.7292726039886475,0
-0.1354491412639618,1.1535282135009766,0.5804286003112793,0
0.1937618851661682,2.7408676147460938,0.7722413539886475,0
0.3350635766983032,4.39006233215332,1.4489648342132568,0
0.387729287147522,5.7589826583862305,2.59079647064209,0
0.39028024673461914,6.743260383605957,3.9393162727355957,0
0.365142285823822,7.408892631530762,5.16512393951416,0
0.32510530948638916,7.838903427124023,6.057101249694824,0
0.27910155057907104,7.863649368286133,6.554836273193359,0
0.2920333743095398,7.192346572875977,6.728297710418701,0
0.34334468841552734,5.743993759155273,6.568180561065674,0
0.3660320043563843,3.8472328186035156,5.89458703994751,0
0.3192891478538513,2.1924400329589844,4.88564920425415,0
0.2538716197013855,1.2929019927978516,3.7594056129455566,0
0.07654368877410889,1.2437868118286133,2.897641658782959,0
-0.18461984395980835,1.851761817932129,2.0097403526306152,0
-0.47301408648490906,2.9646120071411133,0.782905101776123,0
-0.6810153722763062,4.357936859130859,-0.5764322280883789,0
-0.8116537928581238,5.663222312927246,-1.6946377754211426,0
-1.0192209482192993,6.505812644958496,-2.501858711242676,0
-1.2892740964889526,6.739230155944824,-3.126730442047119,0
-1.608083724975586,6.495672225952148,-3.554664373397827,0
-2.041731834411621,6.028485298156738,-3.690333604812622,0
-2.5244662761688232,5.505703926086426,-3.5703959465026855,0
-2.996622085571289,5.024479866027832,-3.3324060440063477,0
-3.3662405014038086,4.475719451904297,-2.94511079788208,0
-3.516113042831421,3.857701301574707,-2.3606221675872803,0
-3.34446120262146,3.2136011123657227,-1.775571584701538,0
-2.9351258277893066,2.5766515731811523,-1.3675520420074463,0
-2.5874688625335693,1.9451465606689453,-1.3892405033111572,0
-2.379059314727783,1.3050212860107422,-1.7940914630889893,0
-2.2918944358825684,0.6865434646606445,-2.3419017791748047,0
-2.257864475250244,0.17267799377441406,-2.8241894245147705,0
-2.225088596343994,-0.14553260803222656,-3.135199785232544,0
-2.1397712230682373,-0.22307872772216797,-3.270430564880371,0
-1.9508850574493408,-0.08780574798583984,-3.3130760192871094,0
-1.620267629623413,0.20557022094726562,-3.3471181392669678,0
-1.1892532110214233,0.5969018936157227,-3.3572354316711426,0
-0.7002628445625305,1.0016393661499023,-3.3175463676452637,0
-0.20739519596099854,1.364109992980957,-3.271625518798828,0
0.17679691314697266,1.6194782257080078,-3.27108097076416,0
0.38879644870758057,1.688868522644043,-3.3418736457824707,0
0.4443603754043579,1.570429801940918,-3.417693614959717,0
0.4112752676010132,1.293783187866211,-3.5510196685791016,0
0.28908276557922363,0.9486007690429688,-3.7016499042510986,0
0.12367653846740723,0.6098775863647461,-3.778487205505371,0
-0.052281737327575684,0.32583141326904297,-3.741976499557495,0
-0.2093721628189087,0.1248779296875,-3.569904088973999,0
-0.3567972779273987,-0.010334968566894531,-3.2749600410461426,0
-0.487343430519104,-0.11154747009277344,-2.9148104190826416,0
-0.5755982398986816,-0.22240543365478516,-2.5354158878326416,0
-0.6120924353599548,-0.3528013229370117,-2.1858506202697754,0
-0.6303280591964722,-0.5217370986938477,-1.9091062545776367,0
-0.6373742818832397,-0.7214422225952148,-1.7088297605514526,0
-0.6226866841316223,-0.9347133636474609,-1.5672404766082764,0
-0.6017513871192932,-1.1468563079833984,-1.478561520576477,0
-0.5758471488952637,-1.3361492156982422,-1.419980525970459,0
-0.574993371963501,-1.5242829322814941,-1.3701289892196655,0
-0.6106178760528564,-1.6875019073486328,-1.331276535987854,0
-0.6703639626502991,-1.8356456756591797,-1.3172705173492432,0
-0.7493310570716858,-1.983217716217041,-1.3229858875274658,0
-0.8526297807693481,-2.0895214080810547,-1.3484803438186646,0
-0.9180635213851929,-2.1473636627197266,-1.4132205247879028,0
-0.9554131031036377,-2.139993667602539,-1.488775610923767,0
-0.9745932221412659,-2.0243844985961914,-1.560996651649475,0
-0.9807900190353394,-1.807741641998291,-1.6397877931594849,0
-0.9790355563163757,-1.5284862518310547,-1.684349536895752,0
-0.9649074673652649,-1.2226247787475586,-1.6872010231018066,0
-0.9313428997993469,-0.9596385955810547,-1.6599494218826294,0
-0.9045862555503845,-0.7347440719604492,-1.6121022701263428,0
-0.8582252860069275,-0.5909624099731445,-1.5460981130599976,0
-0.8136038184165955,-0.5377597808837891,-1.4693725109100342,0
-0.743904173374176,-0.5870485305786133,-1.3845360279083252,0
-0.6557291746139526,-0.6694250106811523,-1.30623459815979,0
-0.5773199796676636,-0.7945175170898438,-1.2321052551269531,0
-0.496940016746521,-0.955103874206543,-1.1644601821899414,0
-0.4147239923477173,-1.1224775314331055,-1.1007510423660278,0
-0.3020803928375244,-1.284749984741211,-1.0357733964920044,0
-0.17152345180511475,-1.4371519088745117,-0.9882147908210754,0
-0.018728137016296387,-1.5438356399536133,-0.948067843914032,0
0.12954604625701904,-1.5833139419555664,-0.9317731261253357,0
0.2729685306549072,-1.5556812286376953,-0.9125922322273254,0
0.3922938108444214,-1.4993095397949219,-0.8805699944496155,0
0.4923452138900757,-1.4214324951171875,-0.8402745723724365,0
0.5707356929779053,-1.3483600616455078,-0.8012509942054749,0
0.6252018213272095,-1.2776994705200195,-0.7611088156700134,0
0.6535719633102417,-1.2118597030639648,-0.7197583913803101,0
0.6634435653686523,-1.148493766784668,-0.6771482825279236,0
0.6358124017715454,-1.0923585891723633,-0.6310281753540039,0
0.5901298522949219,-1.0601558685302734,-0.5913991928100586,0
0.5508145093917847,-1.0374717712402344,-0.5782995820045471,0
0.501311182975769,-1.0194196701049805,-0.5952751040458679,0
0.42690491676330566,-0.9843616485595703,-0.6262580156326294,0
0.3154793977737427,-0.9108266830444336,-0.6111447811126709,0
0.22511351108551025,-0.8229951858520508,-0.4723033308982849,0
0.1800994873046875,-0.7448997497558594,-0.2739678621292114,0
0.14646422863006592,-0.7098617553710938,-0.09596431255340576,0
0.1288597583770752,-0.7057981491088867,0.07281583547592163,0
0.14644253253936768,-0.6944169998168945,0.22735810279846191,0
0.16790544986724854,-0.6829261779785156,0.3419340252876282,0
0.20037353038787842,-0.6713886260986328,0.42471325397491455,0
0.23451483249664307,-0.6455106735229492,0.4858023524284363,0
0.272793173789978,-0.5957374572753906,0.5202508568763733,0
0.3343007564544678,-0.5388059616088867,0.5374276638031006,0
0.41394948959350586,-0.4627265930175781,0.5803633332252502,0
0.5159761905670166,-0.3889656066894531,0.6274204254150391,0
0.6492915153503418,-0.31984615325927734,0.6716861724853516,0
0.8060375452041626,-0.25768470764160156,0.6965600252151489,0
0.9808859825134277,-0.2024240493774414,0.6854290962219238,0
1.163995385169983,-0.14925861358642578,0.6528035402297974,0
1.338392734527588,-0.08143997192382812,0.603596568107605,0
1.508925199508667,-0.0061798095703125,0.5691821575164795,0
1.6589943170547485,0.06214714050292969,0.544691264629364,0
1.795811653137207,0.1378946304321289,0.519873321056366,0
1.905200719833374,0.2258138656616211,0.48918068408966064,0
1.9874353408813477,0.32584476470947266,0.4931347370147705,0
2.045210361480713,0.42597484588623047,0.5268603563308716,0
2.083519697189331,0.5237827301025391,0.6122552156448364,0
2.076300859451294,0.6168508529663086,0.7160788178443909,0
2.0383849143981934,0.7099266052246094,0.8312750458717346,0
1.9818423986434937,0.8029975891113281,0.9361969828605652,0
1.9306926727294922,0.8936634063720703,1.0283195972442627,0
1.8726842403411865,0.9795503616333008,1.1073777675628662,0
1.8455851078033447,1.060689926147461,1.175663709640503,0
1.8395622968673706,1.1394872665405273,1.2499573230743408,0
1.8646533489227295,1.232640266418457,1.3185735940933228,0
1.9066766500473022,1.328165054321289,1.4104914665222168,0
1.9658203125,1.4093017578125,1.5232360363006592,0
2.013335943222046,1.4832239151000977,1.6275529861450195,0
2.0705809593200684,1.5499420166015625,1.7424575090408325,0
2.1133620738983154,1.6046838760375977,1.8677637577056885,0
2.172618865966797,1.6570186614990234,2.003227710723877,0
2.2194173336029053,1.7332239151000977,2.117152452468872,0
2.2825088500976562,1.8212718963623047,2.1969637870788574,0
2.366459608078003,1.9354429244995117,2.186734914779663,0
2.4586663246154785,2.0493640899658203,2.08066463470459,0
2.5196027755737305,2.196491241455078,1.8512182235717773,0
2.550956964492798,2.3911209106445312,1.5648150444030762,0
2.5669562816619873,2.6547155380249023,1.269209623336792,0
2.5509703159332275,2.9537534713745117,1.0200377702713013,0
2.5273587703704834,3.2356491088867188,0.8470851182937622,0
2.5039336681365967,3.4454574584960938,0.7269924879074097,0
2.4424362182617188,3.494826316833496,0.6016544103622437,0
2.3739264011383057,3.419867515563965,0.4586713910102844,0
2.293705940246582,3.263838768005371,0.30003219842910767,0
2.2108209133148193,3.0436859130859375,0.10132279247045517,0
2.118056297302246,2.776339530944824,-0.14036917686462402,0
1.982429027557373,2.473935127258301,-0.4210105240345001,0
1.7882713079452515,2.1342620849609375,-0.7534113526344299,0
1.5564498901367188,1.7479476928710938,-1.1091153621673584,0
1.2113350629806519,1.363067626953125,-1.4518301486968994,0
0.8239500522613525,1.0036888122558594,-1.6876657009124756,0
0.4103268086910248,0.6698856353759766,-1.7960362434387207,0
-0.05238211154937744,0.44540882110595703,-1.7996327877044678,0
-0.5518417954444885,0.3421955108642578,-1.757392406463623,0
-1.0001933574676514,0.3530702590942383,-1.6662492752075195,0
-1.4005671739578247,0.4277067184448242,-1.5436127185821533,0
-1.728210210800171,0.5204963684082031,-1.3966522216796875,0
-1.9711718559265137,0.6312236785888672,-1.2564773559570312,0
-2.0885891914367676,0.7474937438964844,-1.1225136518478394,0
-2.070225238800049,0.8640289306640625,-1.0188045501708984,0
-1.9173619747161865,0.9661064147949219,-0.9804090261459351,0
-1.6787093877792358,1.0393791198730469,-1.0350706577301025,0
-1.3898288011550903,1.0961112976074219,-1.1832671165466309,0
-1.0757710933685303,1.1416330337524414,-1.3928215503692627,0
-0.8074995279312134,1.1861724853515625,-1.6051063537597656,0
-0.6056443452835083,1.2087335586547852,-1.7697851657867432,0
-0.47834569215774536,1.2119207382202148,-1.8513317108154297,0
-0.4747629761695862,1.2147703170776367,-1.8653678894042969,0
-0.5887107849121094,1.2121829986572266,-1.843625545501709,0
-0.7634646892547607,1.1966266632080078,-1.8131651878356934,0
-0.9259687662124634,1.184530258178711,-1.8085808753967285,0
-1.0393837690353394,1.1518144607543945,-1.836484432220459,0
-1.1332125663757324,1.1322107315063477,-1.9453920125961304,0
-1.2070940732955933,1.1357107162475586,-2.091003179550171,0
-1.2046234607696533,1.136134147644043,-2.2256510257720947,0
-1.116886854171753,1.0951251983642578,-2.310516357421875,0
-0.9985663890838623,1.05316162109375,-2.3351809978485107,0
-0.8764400482177734,1.0287399291992188,-2.300182580947876,0
-0.750313401222229,1.009018898010254,-2.2081522941589355,0
-0.6315084099769592,1.0007333755493164,-2.1158289909362793,0
-0.5108385682106018,0.9704389572143555,-2.0309982299804688,0
-0.43321147561073303,0.8631181716918945,-1.95630943775177,0
-0.3806820809841156,0.635493278503418,-1.867336392402649,0
-0.33735695481300354,0.30412960052490234,-1.770829439163208,0
-0.33557748794555664,-0.121429443359375,-1.7169911861419678,0
-0.3930838704109192,-0.6099843978881836,-1.7276086807250977,0
-0.4554016590118408,-1.1279683113098145,-1.826874017715454,0
-0.5238050222396851,-1.648935317993164,-1.9960792064666748,0
-0.5641769766807556,-2.1630778312683105,-2.209611415863037,0
-0.5838794112205505,-2.670231342315674,-2.4177422523498535,0
-0.5810397863388062,-3.1343917846679688,-2.6065573692321777,0
-0.5799338221549988,-3.5580058097839355,-2.747464895248413,0
-0.5586434006690979,-3.9413342475891113,-2.8402087688446045,0
-0.5502098798751831,-4.251187324523926,-2.891669988632202,0
-0.5591657161712646,-4.478282928466797,-2.9327356815338135,0
-0.5660248398780823,-4.596789836883545,-2.9484691619873047,0
-0.5926113128662109,-4.626290321350098,-2.9336018562316895,0
-0.6034637689590454,-4.574325084686279,-2.8805932998657227,0
-0.6230328679084778,-4.4748382568359375,-2.793632745742798,0
-0.6423301696777344,-4.337701320648193,-2.684307336807251,0
-0.6615099906921387,-4.182193756103516,-2.571648120880127,0
-0.6785012483596802,-4.051250457763672,-2.4822518825531006,0
-0.7078483700752258,-3.94952392578125,-2.392388105392456,0
-0.7499250173568726,-3.8791861534118652,-2.297604560852051,0
-0.8071602582931519,-3.8329415321350098,-2.1884875297546387,0
-0.8718876838684082,-3.818021297454834,-2.0672671794891357,0
-0.9540045261383057,-3.8416147232055664,-1.9433364868164062,0
-1.013087511062622,-3.884678840637207,-1.8115475177764893,0
-1.0755188465118408,-3.961394786834717,-1.6720683574676514,0
-1.1414148807525635,-4.047727108001709,-1.5105814933776855,0
-1.201435923576355,-4.129140853881836,-1.3224992752075195,0
-1.270153522491455,-4.205412864685059,-1.1105132102966309,0
-1.3357536792755127,-4.269144535064697,-0.8653583526611328,0
-1.4053828716278076,-4.305726051330566,-0.606586217880249,0
-1.4526726007461548,-4.298160076141357,-0.33942079544067383,0
-1.5017340183258057,-4.234107494354248,-0.06699585914611816,0
-1.501727819442749,-4.1036787033081055,0.22665166854858398,0
-1.4809085130691528,-3.9088687896728516,0.5404810905456543,0
-1.4387801885604858,-3.641875743865967,0.8345768451690674,0
-1.3449907302856445,-3.2827653884887695,1.0659480094909668,0
-1.2803151607513428,-2.8305273056030273,1.2224767208099365,0
-1.1491832733154297,-2.258169174194336,1.328322172164917,0
-0.9448131322860718,-1.5507559776306152,1.3738937377929688,0
-0.7157648801803589,-0.7293329238891602,1.3976478576660156,0
-0.4276684522628784,0.23987579345703125,1.452998399734497,0
-0.11161541938781738,1.409353256225586,1.630784511566162,0
0.22360849380493164,2.792928695678711,1.9628722667694092,0
0.4146369695663452,4.289450645446777,2.4556596279144287,0
0.4330900311470032,5.630115509033203,3.1188879013061523,0
0.40900999307632446,6.536665916442871,3.885821580886841,0
0.4259095788002014,6.925156593322754,4.595519542694092,0
0.46794527769088745,6.812351226806641,5.124750137329102,0
0.5115141272544861,6.269933700561523,5.4485931396484375,0
0.5287648439407349,5.290717124938965,5.6281843185424805,0
0.5592423677444458,3.872547149658203,5.690451145172119,0
0.5782793164253235,2.130704879760742,5.637681007385254,0
0.5455243587493896,0.3455619812011719,5.409753322601318,0
0.5134801864624023,-1.025886058807373,4.920815467834473,0
0.47413480281829834,-1.5943450927734375,4.169301509857178,0
0.4778255224227905,-1.43255615234375,3.215333938598633,0
0.4292150139808655,-0.6201171875,2.228451728820801,0
0.3152574300765991,0.7353572845458984,1.1215777397155762,0
0.15339583158493042,2.505438804626465,-0.11372852325439453,0
-0.022165119647979736,4.462477684020996,-1.2061619758605957,0
-0.21697640419006348,6.372041702270508,-1.8839561939239502,0
-0.5995964407920837,7.830287933349609,-2.2014901638031006,0
-1.1890370845794678,8.542326927185059,-2.392918586730957,0
-1.904010534286499,8.546835899353027,-2.628451108932495,0
-2.6648783683776855,8.208490371704102,-3.02608585357666,0
-3.4246108531951904,7.93365478515625,-3.4075608253479004,0
-3.9269232749938965,7.706489562988281,-3.4072728157043457,0
-3.984605073928833,7.285417556762695,-2.7962965965270996,0
-3.7215771675109863,6.482663154602051,-1.7983355522155762,0
-3.079799175262451,5.272522926330566,-0.7673311233520508,0
-2.236687660217285,3.8094043731689453,-0.2756233215332031,0
-1.8646653890609741,2.3489990234375,-0.6279876232147217,0
-2.0771265029907227,1.1037168502807617,-1.5348248481750488,0
-2.347121238708496,0.07291316986083984,-2.6300792694091797,0
-2.5610904693603516,-0.6953144073486328,-3.615086793899536,0
-2.772148609161377,-1.200209140777588,-4.267838954925537,0
-2.900111198425293,-1.4964160919189453,-4.593530178070068,0
-2.850919246673584,-1.635441780090332,-4.715723991394043,0
-2.598301410675049,-1.6680049896240234,-4.657035827636719,0
-2.2206807136535645,-1.569676399230957,-4.381278991699219,0
-1.7278560400009155,-1.283033847808838,-3.909472703933716,0
-1.1424534320831299,-0.8265676498413086,-3.3635857105255127,0
-0.5417206287384033,-0.29192638397216797,-2.8874127864837646,0
-0.10944163799285889,0.24187374114990234,-2.5468642711639404,0
0.14873230457305908,0.7005653381347656,-2.3312840461730957,0
0.22071874141693115,1.0534400939941406,-2.3033180236816406,0
0.15534913539886475,1.342188835144043,-2.4630026817321777,0
0.03759205341339111,1.5895299911499023,-2.7278873920440674,0
-0.06107175350189209,1.7631120681762695,-2.9990859031677246,0
-0.12579023838043213,1.7942161560058594,-3.159693479537964,0
-0.1546245813369751,1.6161222457885742,-3.165724754333496,0
-0.15352344512939453,1.2527618408203125,-3.0248701572418213,0
-0.1529906988143921,0.7903366088867188,-2.8095524311065674,0
-0.14583563804626465,0.2674121856689453,-2.6048381328582764,0
-0.12239396572113037,-0.2869291305541992,-2.467669725418091,0
-0.0511934757232666,-0.8461875915527344,-2.3877813816070557,0
6.471872329711914E-4,-1.4007492065429688,-2.3518762588500977,0
0.04953348636627197,-1.9077396392822266,-2.352820873260498,0
0.087821364402771,-2.3413314819335938,-2.341499090194702,0
0.08361995220184326,-2.649528980255127,-2.298970937728882,0
0.01901090145111084,-2.85426664352417,-2.2570149898529053,0
-0.09310853481292725,-2.9533987045288086,-2.206923007965088,0
-0.22082924842834473,-2.93276309967041,-2.123298406600952,0
-0.32179439067840576,-2.821229934692383,-2.048499822616577,0
-0.4154592752456665,-2.6595516204833984,-1.991796612739563,0
-0.5066375732421875,-2.4478349685668945,-1.9337034225463867,0
-0.6145511865615845,-2.205195426940918,-1.8959194421768188,0
-0.7079154253005981,-1.9411988258361816,-1.9001948833465576,0
-0.7962658405303955,-1.6821999549865723,-1.8864930868148804,0
-0.8412476778030396,-1.4519987106323242,-1.8601982593536377,0
-0.82806795835495,-1.2624187469482422,-1.808022141456604,0
-0.8073430061340332,-1.1037302017211914,-1.6921542882919312,0
-0.7816680669784546,-0.9878473281860352,-1.5101951360702515,0
-0.7367228269577026,-0.9123525619506836,-1.297974705696106,0
-0.6991004943847656,-0.8269205093383789,-1.0892301797866821,0
-0.6499558687210083,-0.7291402816772461,-0.8791826963424683,0
-0.582249641418457,-0.6286172866821289,-0.6772086024284363,0
-0.49109208583831787,-0.5349245071411133,-0.5098317861557007,0
-0.41482293605804443,-0.4312925338745117,-0.38922274112701416,0
-0.32684528827667236,-0.3393573760986328,-0.2910803556442261,0
-0.22432184219360352,-0.2855243682861328,-0.1959449052810669,0
-0.11886799335479736,-0.2721881866455078,-0.12064743041992188,0
-0.003070831298828125,-0.3088798522949219,-0.07508629560470581,0
0.12090885639190674,-0.36206626892089844,-0.05968809127807617,0
0.23392844200134277,-0.43175697326660156,-0.04557192325592041,0
0.32864105701446533,-0.5131692886352539,-0.013190031051635742,0
0.4098464250564575,-0.5919885635375977,0.028355717658996582,0
0.4825085401535034,-0.6682682037353516,0.07702630758285522,0
0.5467252731323242,-0.7372598648071289,0.12352001667022705,0
0.5954376459121704,-0.7822513580322266,0.16327553987503052,0
0.6429173946380615,-0.8176031112670898,0.21553975343704224,0
0.6913666725158691,-0.8528347015380859,0.25370335578918457,0
0.7527166604995728,-0.8831377029418945,0.28473761677742004,0
0.8173642158508301,-0.901331901550293,0.3061806559562683,0
0.8830243349075317,-0.9026556015014648,0.31549718976020813,0
0.9448963403701782,-0.9038610458374023,0.3318922519683838,0
0.9935224056243896,-0.8953962326049805,0.36022651195526123,0
1.0409915447235107,-0.8390178680419922,0.3955979645252228,0
1.0824601650238037,-0.7491092681884766,0.4184409976005554,0
1.1274949312210083,-0.6209201812744141,0.44262129068374634,0
1.1545253992080688,-0.4831838607788086,0.4870128631591797,0
1.1536438465118408,-0.37413692474365234,0.5539125204086304,0
1.1391332149505615,-0.2889556884765625,0.6384371519088745,0
1.091876745223999,-0.23001575469970703,0.7092331647872925,0
1.035618782043457,-0.18053627014160156,0.7345869541168213,0
0.9652601480484009,-0.1381053924560547,0.7333148121833801,0
0.8925058841705322,-0.10509681701660156,0.7345640659332275,0
0.8171241879463196,-0.07192516326904297,0.7508269548416138,0
0.7389684915542603,-0.03380870819091797,0.7728474736213684,0
0.6674512028694153,0.014033317565917969,0.7984981536865234,0
0.6097009181976318,0.06680488586425781,0.847408652305603,0
0.5705268979072571,0.10536575317382812,0.9247429966926575,0
0.5618481636047363,0.14407634735107422,1.0114246606826782,0
0.595721423625946,0.1757497787475586,1.107642412185669,0
0.6529572010040283,0.21234703063964844,1.201400637626648,0
0.7453488707542419,0.25864696502685547,1.2710766792297363,0
0.8631916642189026,0.31702232360839844,1.3237059116363525,0
1.0088704824447632,0.38984203338623047,1.3641083240509033,0
1.175330638885498,0.46271610260009766,1.3897645473480225,0
1.3530064821243286,0.5427970886230469,1.4051895141601562,0
1.5420801639556885,0.6109237670898438,1.4223074913024902,0
1.7139902114868164,0.6670780181884766,1.4264230728149414,0
1.8713710308074951,0.7231969833374023,1.4268414974212646,0
2.014519214630127,0.7744693756103516,1.4450745582580566,0
2.1411795616149902,0.8304481506347656,1.4833829402923584,0
2.261174440383911,0.8934860229492188,1.5270791053771973,0
2.36246395111084,0.9539976119995117,1.5855159759521484,0
2.4449868202209473,1.0048036575317383,1.665682315826416,0
2.5181925296783447,1.0243844985961914,1.7553513050079346,0
2.591327667236328,1.0342741012573242,1.8371585607528687,0
2.661635398864746,1.0464048385620117,1.8959507942199707,0
2.716646194458008,1.055964469909668,1.926248550415039,0
2.7607972621917725,1.0868282318115234,1.9032812118530273,0
2.81776762008667,1.1461410522460938,1.8435389995574951,0
2.8558905124664307,1.2410650253295898,1.7134664058685303,0
2.830751895904541,1.3644475936889648,1.4962623119354248,0
2.7745554447174072,1.5737476348876953,1.2285857200622559,0
2.6745142936706543,1.8115472793579102,0.9371718168258667,0
2.54475474357605,2.120903968811035,0.6388111114501953,0
2.4581387042999268,2.4061145782470703,0.3622960150241852,0
2.38236927986145,2.550046920776367,0.07085311412811279,0
2.3157668113708496,2.569655418395996,-0.29178565740585327,0
2.222761631011963,2.4532337188720703,-0.7363719940185547,0
2.1110589504241943,2.263275146484375,-1.1958973407745361,0
1.935776710510254,2.05502986907959,-1.6390926837921143,0
1.7305108308792114,1.8478574752807617,-2.0262844562530518,0
1.495811939239502,1.6276378631591797,-2.3361082077026367,0
1.1870551109313965,1.4735002517700195,-2.5339736938476562,0
0.8152621984481812,1.4022445678710938,-2.669156312942505,0
0.39147627353668213,1.3804073333740234,-2.740987777709961,0
-0.02524399757385254,1.367354393005371,-2.7535791397094727,0
-0.4458503723144531,1.3558940887451172,-2.6501076221466064,0
-0.8360822200775146,1.3219776153564453,-2.437788248062134,0
-1.212853193283081,1.2774744033813477,-2.148592472076416,0
-1.5510776042938232,1.2342767715454102,-1.8077330589294434,0
-1.8264124393463135,1.2543449401855469,-1.4371576309204102,0
-2.010146379470825,1.3276786804199219,-1.0702788829803467,0
-2.0805764198303223,1.4633378982543945,-0.7551803588867188,0
-2.04832124710083,1.6251554489135742,-0.5301645994186401,0
-1.9640552997589111,1.8181047439575195,-0.41938841342926025,0
-1.8732624053955078,2.040102005004883,-0.4064284563064575,0
-1.7272623777389526,2.2723188400268555,-0.46008288860321045,0
-1.5733673572540283,2.4792823791503906,-0.5442115068435669,0
-1.4634785652160645,2.635021209716797,-0.6265851259231567,0
-1.4326766729354858,2.732410430908203,-0.6661858558654785,0
-1.5021718740463257,2.7593231201171875,-0.6664314270019531,0
-1.628138780593872,2.7276248931884766,-0.6600383520126343,0
-1.7485240697860718,2.692410469055176,-0.7287060022354126,0
-1.803769826889038,2.649087905883789,-0.8636989593505859,0
-1.7979850769042969,2.583756446838379,-1.0591448545455933,0
-1.7395553588867188,2.463376998901367,-1.2654763460159302,0
-1.662804365158081,2.304812431335449,-1.4627177715301514,0
-1.578311562538147,2.14599609375,-1.6464492082595825,0
-1.4352226257324219,1.9769678115844727,-1.8318990468978882,0
-1.245371699333191,1.7757091522216797,-2.0009055137634277,0
-1.0553779602050781,1.5484743118286133,-2.1032962799072266,0
-0.8995850682258606,1.318608283996582,-2.178729295730591,0
-0.7928500175476074,1.0596933364868164,-2.1938862800598145,0
-0.7663819193840027,0.7334184646606445,-2.112977981567383,0
-0.7161898016929626,0.33480072021484375,-1.8879082202911377,0
-0.6430706977844238,-0.08344841003417969,-1.6100950241088867,0
-0.5786591172218323,-0.4971895217895508,-1.3664500713348389,0
-0.5265607833862305,-0.892216682434082,-1.2023487091064453,0
-0.4867672324180603,-1.252089500427246,-1.1772563457489014,0
-0.4977252781391144,-1.5891027450561523,-1.2740232944488525,0
-0.5334623456001282,-1.9154343605041504,-1.4829442501068115,0
-0.5738155841827393,-2.243077278137207,-1.775498867034912,0
-0.596750020980835,-2.586291790008545,-2.104231595993042,0
-0.6061978936195374,-2.9783825874328613,-2.4075374603271484,0
-0.6111181378364563,-3.4145002365112305,-2.6378650665283203,0
-0.6306589841842651,-3.875491142272949,-2.8025527000427246,0
-0.6574834585189819,-4.337492942810059,-2.904036045074463,0
-0.7014239430427551,-4.771912574768066,-2.970946788787842,0
-0.749262809753418,-5.099946022033691,-2.9959826469421387,0
-0.817135214805603,-5.286144256591797,-2.9618072509765625,0
-0.867372453212738,-5.309377193450928,-2.880054473876953,0
-0.9340115785598755,-5.2467169761657715,-2.781217575073242,0
-0.996619701385498,-5.12502908706665,-2.6739792823791504,0
-1.053691029548645,-4.999358177185059,-2.5823025703430176,0
-1.1204495429992676,-4.860058784484863,-2.4895758628845215,0
-1.18263840675354,-4.733486652374268,-2.3837714195251465,0
-1.2634837627410889,-4.641214370727539,-2.260017156600952,0
-1.3738548755645752,-4.635745525360107,-2.1280243396759033,0
-1.4506371021270752,-4.6139678955078125,-1.9640653133392334,0
-1.499374270439148,-4.580599308013916,-1.7777400016784668,0
-1.5388342142105103,-4.552252769470215,-1.5811901092529297,0
-1.554229497909546,-4.526477336883545,-1.3600380420684814,0
-1.5738389492034912,-4.486395835876465,-1.1239848136901855,0
-1.6190698146820068,-4.434242248535156,-0.875582218170166,0
-1.6874150037765503,-4.362671375274658,-0.6126012802124023,0
-1.7450642585754395,-4.2642340660095215,-0.34024477005004883,0
-1.7895338535308838,-4.128969192504883,-0.07594799995422363,0
-1.801361322402954,-3.9516234397888184,0.17456698417663574,0
-1.78013014793396,-3.72440767288208,0.4099252223968506,0
-1.72575044631958,-3.437030792236328,0.6259913444519043,0
-1.6668723821640015,-3.0817394256591797,0.8379292488098145,0
-1.5575296878814697,-2.670288562774658,1.1022462844848633,0
-1.368308424949646,-2.21658992767334,1.3814678192138672,0
-1.069433569908142,-1.743879795074463,1.6565442085266113,0
-0.6499314308166504,-1.2272601127624512,1.8859920501708984,0
-0.1375456154346466,-0.6226091384887695,2.0303680896759033,0
0.4266052544116974,0.18123149871826172,2.1146676540374756,0
0.9155019521713257,1.232839584350586,2.2224490642547607,0
1.1904364824295044,2.539030075073242,2.5266785621643066,0
1.1997169256210327,3.8328857421875,3.165032386779785,0
1.1516523361206055,4.780096054077148,4.042241096496582,0
1.0264302492141724,5.381653785705566,4.959615707397461,0
0.7998260855674744,5.6874542236328125,5.679856300354004,0
0.5787999629974365,5.774934768676758,6.091808795928955,0
0.546062171459198,5.643526077270508,6.065117359161377,0
0.7597726583480835,5.352809906005859,5.612054824829102,0
1.0367435216903687,5.102618217468262,4.940692901611328,0
1.0647976398468018,5.174835205078125,4.311012268066406,0
0.8076090812683105,5.709216117858887,3.552511692047119,0
0.4849686622619629,6.603268623352051,2.5514402389526367,0
0.19346678256988525,7.604153633117676,1.5581278800964355,0
-0.05616044998168945,8.357809066772461,0.6406974792480469,0
-0.4267280697822571,8.281025886535645,-0.27940845489501953,0
-0.8913159370422363,7.317291259765625,-1.2092974185943604,0
-1.331228494644165,5.9291181564331055,-1.950103998184204,0
-1.7844274044036865,4.582365036010742,-2.3454999923706055,0
-2.2478151321411133,3.371790885925293,-2.43863582611084,0
-2.718916893005371,2.27309513092041,-2.357621192932129,0
-3.260089874267578,1.363785743713379,-2.100402355194092,0
-3.548692226409912,0.6773796081542969,-1.8864552974700928,0
-3.4363136291503906,0.179718017578125,-1.7963953018188477,0
-3.12644362449646,-0.1258373260498047,-1.8839852809906006,0
-2.8488383293151855,-0.2977027893066406,-2.2031357288360596,0
-2.6568822860717773,-0.44419097900390625,-2.706735134124756,0
-2.5366134643554688,-0.5488967895507812,-3.233588218688965,0
-2.485093116760254,-0.545985221862793,-3.610396146774292,0
-2.402009963989258,-0.3780660629272461,-3.7361831665039062,0
-2.141404867172241,0.05650138854980469,-3.532594919204712,0
-1.6632882356643677,0.7424907684326172,-3.0278220176696777,0
-1.1233983039855957,1.5286903381347656,-2.3975393772125244,0
-0.5770323872566223,2.238368034362793,-1.8356730937957764,0
-0.059450775384902954,2.7290449142456055,-1.544229507446289,0
0.28111475706100464,2.9045934677124023,-1.4823949337005615,0
0.3981005549430847,2.773562431335449,-1.711512804031372,0
0.365730345249176,2.4168663024902344,-2.120154619216919,0
0.2476460337638855,1.9392480850219727,-2.599905014038086,0
0.10520726442337036,1.4499244689941406,-3.04710054397583,0
-0.01905113458633423,1.009857177734375,-3.4006645679473877,0
-0.1035798192024231,0.6581525802612305,-3.63478946685791,0
-0.16842031478881836,0.42883968353271484,-3.749328374862671,0
-0.2312767505645752,0.3266153335571289,-3.704324722290039,0
-0.28309500217437744,0.293548583984375,-3.4777724742889404,0
-0.3611378073692322,0.28827476501464844,-3.0871968269348145,0
-0.39988261461257935,0.25275707244873047,-2.5952870845794678,0
-0.39351099729537964,0.14601802825927734,-2.086749315261841,0
-0.35941845178604126,-0.029592514038085938,-1.6350579261779785,0
-0.29965782165527344,-0.27154064178466797,-1.2929964065551758,0
-0.26384007930755615,-0.5580387115478516,-1.0779837369918823,0
-0.23442578315734863,-0.8960847854614258,-0.9786765575408936,0
-0.23211026191711426,-1.25933837890625,-0.9690059423446655,0
-0.2468874454498291,-1.6193428039550781,-1.0243102312088013,0
-0.31958985328674316,-1.9594945907592773,-1.117710828781128,0
-0.4022480249404907,-2.2726941108703613,-1.2705788612365723,0
-0.4487866163253784,-2.5135416984558105,-1.459322452545166,0
-0.4467610716819763,-2.6629514694213867,-1.6509963274002075,0
-0.41261929273605347,-2.6827077865600586,-1.8510208129882812,0
-0.35161352157592773,-2.575336456298828,-1.9972549676895142,0
-0.3033040761947632,-2.355229377746582,-2.087238073348999,0
-0.2541656494140625,-2.075061321258545,-2.1329095363616943,0
-0.2118016481399536,-1.7731513977050781,-2.1150946617126465,0
-0.20029985904693604,-1.5165348052978516,-2.043142795562744,0
-0.19778478145599365,-1.321986198425293,-1.9504368305206299,0
-0.2181711196899414,-1.1800012588500977,-1.83429753780365,0
-0.22532522678375244,-1.097733497619629,-1.7114707231521606,0
-0.22384536266326904,-1.0536689758300781,-1.593679428100586,0
-0.24300158023834229,-1.0549163818359375,-1.485336422920227,0
-0.22349047660827637,-1.1156692504882812,-1.3769946098327637,0
-0.19673442840576172,-1.1950817108154297,-1.2452614307403564,0
-0.16964292526245117,-1.2453174591064453,-1.078446388244629,0
-0.1610393524169922,-1.2975006103515625,-0.9247957468032837,0
-0.1637204885482788,-1.325265884399414,-0.8159438967704773,0
-0.17281806468963623,-1.3238697052001953,-0.7496405243873596,0
-0.17390942573547363,-1.2982397079467773,-0.6774880886077881,0
-0.15971732139587402,-1.2412872314453125,-0.6017404198646545,0
-0.13274931907653809,-1.198486328125,-0.529549241065979,0
-0.08832800388336182,-1.1578741073608398,-0.45847368240356445,0
-0.026385188102722168,-1.1194610595703125,-0.3933967351913452,0
0.03861880302429199,-1.0880250930786133,-0.33198267221450806,0
0.10658657550811768,-1.0659866333007812,-0.276252806186676,0
0.17042255401611328,-1.0486040115356445,-0.24022352695465088,0
0.5101096630096436,-1.045496940612793,-0.233148455619812,0
0.5395163297653198,-1.192997932434082,-0.11573159694671631,0
0.5939077138900757,-1.2972984313964844,0.0025260448455810547,0
0.692481279373169,-1.3895759582519531,0.15563076734542847,0
0.7107160091400146,-1.4459161758422852,0.2912425994873047,0
0.8088893890380859,-1.3156938552856445,0.4118495583534241,0
0.8361541032791138,-1.140176773071289,0.5892736315727234,0
0.9311095476150513,-0.9217500686645508,0.8042365312576294,0
1.024256944656372,-0.7130298614501953,1.0829331874847412,0
1.1799700260162354,-0.4063405990600586,1.3294811248779297,0
1.2332732677459717,-0.12372112274169922,1.5460525751113892,0
1.3156591653823853,0.1277475357055664,1.5838756561279297,0
1.4822534322738647,0.3720207214355469,1.627052664756775,0
1.5110220909118652,0.4440765380859375,1.6854405403137207,0
1.4644544124603271,0.6023845672607422,1.5265485048294067,0
1.4290683269500732,0.7296590805053711,1.2813502550125122,0
1.2474820613861084,0.8115577697753906,1.030303716659546,0
1.044517993927002,0.8720054626464844,0.7942083477973938,0
0.7819505929946899,0.9301376342773438,0.5268155336380005,0
0.6750667691230774,0.933323860168457,0.4142093062400818,0
0.5965726375579834,0.931854248046875,0.4561033248901367,0
0.48118048906326294,0.9544544219970703,0.5517736673355103,0
0.43595582246780396,1.0513248443603516,0.6963247656822205,0
0.6229873895645142,1.1649961471557617,0.9211369156837463,0
0.7737258672714233,1.1663427352905273,1.18838369846344,0
1.0097897052764893,1.2085494995117188,1.390836477279663,0
1.2495205402374268,1.2556934356689453,1.4714117050170898,0
1.607743501663208,1.2814397811889648,1.5259733200073242,0
1.835415244102478,1.216461181640625,1.6239699125289917,0
2.1381263732910156,1.268876075744629,1.5881375074386597,0
2.4510245323181152,1.362009048461914,1.605229377746582,0
2.7763710021972656,1.4312400817871094,1.7064855098724365,0
3.044498920440674,1.5268077850341797,1.743645429611206,0
3.228717803955078,1.6869277954101562,1.7476773262023926,0
3.5203258991241455,1.8421449661254883,1.7733800411224365,0
3.66815185546875,1.882441520690918,1.772735357284546,0
3.820702075958252,1.819880485534668,1.7886642217636108,0
3.8777754306793213,1.6832447052001953,1.7897660732269287,0
3.906705379486084,1.5275583267211914,1.6941118240356445,0
3.8360214233398438,1.3527908325195312,1.4699901342391968,0
3.710820198059082,1.2808780670166016,1.128493309020996,0
3.5834054946899414,1.2231864929199219,0.6614792346954346,0
3.4004898071289062,1.356663703918457,0.14024776220321655,0
3.1422863006591797,1.4802732467651367,-0.3326987028121948,0
2.9205236434936523,1.7686939239501953,-0.5417059659957886,0
2.852198600769043,2.415546417236328,-0.44009917974472046,0
2.8220648765563965,2.839487075805664,-0.17259371280670166,0
2.7317636013031006,2.837649345397949,-0.09998413920402527,0
2.7013602256774902,2.721468925476074,-0.14058223366737366,0
2.6316423416137695,2.1969804763793945,-0.36689409613609314,0
2.452230215072632,1.4990215301513672,-0.634331464767456,0
2.296060562133789,0.8430347442626953,-1.0163447856903076,0
1.953401803970337,0.3558053970336914,-1.4615839719772339,0
1.4082956314086914,-0.022481918334960938,-2.043135643005371,0
0.8983866572380066,-0.2821941375732422,-2.5554111003875732,0
0.5558348298072815,-0.3993377685546875,-2.7807607650756836,0
-0.029721558094024658,-0.5915384292602539,-2.6435182094573975,0
-0.849432647228241,-0.5382814407348633,-2.224951982498169,0
-1.777585506439209,-0.3618602752685547,-1.8055262565612793,0
-2.6864395141601562,-0.11508941650390625,-1.4078681468963623,0
-3.352903127670288,0.03445720672607422,-0.9874669313430786,0
-3.767922878265381,0.2660560607910156,-0.5444954633712769,0
-3.9885337352752686,0.5100955963134766,-0.22250890731811523,0
-3.7304024696350098,0.9457492828369141,-0.012620091438293457,0
-3.266474485397339,1.4793787002563477,0.16035866737365723,0
-2.8359735012054443,2.0701513290405273,0.27979016304016113,0
-2.351966381072998,2.555514335632324,0.33244943618774414,0
-1.9351353645324707,2.9334535598754883,0.35947275161743164,0
-1.5927879810333252,3.2856931686401367,0.44729816913604736,0
-1.5230244398117065,3.5551767349243164,0.5605472326278687,0
-1.5809693336486816,3.7350778579711914,0.6021294593811035,0
-1.580265760421753,3.851834297180176,0.6362683773040771,0
-1.7149360179901123,3.8934335708618164,0.6872255802154541,0
-2.0098650455474854,3.9291954040527344,0.650231122970581,0
-2.2110648155212402,3.8252134323120117,0.42278265953063965,0
-2.2204103469848633,3.768291473388672,-0.0836477279663086,0
-1.7486555576324463,3.789714813232422,-0.7570939064025879,0
-1.231489658355713,3.798898696899414,-1.49552583694458,0
-0.687937319278717,3.6959333419799805,-2.1542577743530273,0
-0.4842504858970642,3.2733802795410156,-2.6408467292785645,0
-0.5923671722412109,3.014540672302246,-2.779627799987793,0
-0.6068843007087708,2.9089460372924805,-2.7449796199798584,0
-0.35865145921707153,2.776211738586426,-2.8475842475891113,0
-0.014769136905670166,2.5674619674682617,-2.955404758453369,0
0.2932724356651306,2.265456199645996,-3.131873369216919,0
0.1984207034111023,1.6406745910644531,-3.099623203277588,0
-0.10491126775741577,0.8635034561157227,-2.7185182571411133,0
-0.42204737663269043,-0.207061767578125,-2.074930191040039,0
-0.6315163969993591,-1.4614639282226562,-1.0743706226348877,0
-0.5390517711639404,-2.603736400604248,-0.21107053756713867,0
-0.5842077732086182,-3.2944936752319336,0.043521881103515625,0
-0.8854977488517761,-3.692051410675049,0.01467132568359375,0
-1.1902287006378174,-4.028775691986084,-0.35027503967285156,0
-1.2363897562026978,-4.3312153816223145,-0.7665243148803711,0
-1.2695749998092651,-4.491875171661377,-1.3060641288757324,0
-1.231600046157837,-4.73563289642334,-1.813826084136963,0
-1.1388943195343018,-5.088600158691406,-2.1755383014678955,0
-1.0754035711288452,-5.395061016082764,-2.4133713245391846,0
-1.0146267414093018,-5.588020324707031,-2.601975917816162,0
-0.9584205150604248,-5.705843925476074,-2.736895799636841,0
-1.0020028352737427,-5.691344261169434,-2.6675217151641846,0
-1.0871844291687012,-5.700366020202637,-2.515756845474243,0
-1.33229398727417,-5.328899383544922,-2.3172783851623535,0
-1.2528198957443237,-4.90767765045166,-2.0906968116760254,0
-1.1106410026550293,-4.455989837646484,-1.8812754154205322,0
-1.0427607297897339,-4.064716815948486,-1.7033753395080566,0
-1.0901398658752441,-3.843923568725586,-1.5853917598724365,0
-1.1305919885635376,-3.843723773956299,-1.5438411235809326,0
-1.2117146253585815,-3.9874157905578613,-1.55938720703125,0
-1.3597421646118164,-4.234155178070068,-1.572216510772705,0
-1.5032213926315308,-4.53835916519165,-1.548841953277588,0
-1.5417282581329346,-4.7924652099609375,-1.3886513710021973,0
-1.4899147748947144,-5.0826873779296875,-1.2159435749053955,0
-1.4150723218917847,-5.356393814086914,-1.0353760719299316,0
-1.3272581100463867,-5.606348514556885,-0.901953935623169,0
-1.2890160083770752,-5.83494758605957,-0.7676677703857422,0
-1.2457406520843506,-6.011139869689941,-0.5414395332336426,0
-1.2861676216125488,-6.09675407409668,-0.32354116439819336,0
-1.219084620475769,-6.122833251953125,-0.16421222686767578,0
-0.9609559774398804,-6.017563819885254,0.07528209686279297,0
-0.9306004643440247,-5.869411468505859,0.32788705825805664,0
-0.871589183807373,-5.532303810119629,0.5072779655456543,0
-0.8430743217468262,-5.077765941619873,0.7420392036437988,0
-0.9021481275558472,-4.55076265335083,0.904383659362793,0
-0.9215019941329956,-3.996091842651367,1.2106549739837646,0
-0.7374223470687866,-3.403268337249756,1.4911885261535645,0
-0.5421737432479858,-2.548952579498291,1.650219440460205,0
-0.40612998604774475,-1.429945468902588,1.493544101715088,0
-0.23045185208320618,-0.3946695327758789,1.2170488834381104,0
0.016446053981781006,0.6676826477050781,1.0432524681091309,0
0.38785022497177124,2.130732536315918,1.2231080532073975,0
0.7235317230224609,4.202939033508301,1.5905513763427734,0
0.9899000525474548,7.384305953979492,2.374494791030884,0
0.7843799591064453,11.073460578918457,4.0956902503967285,0
-0.030961990356445312,14.362434387207031,6.5244598388671875,0
-0.5563503503799438,15.222439765930176,8.920324325561523,0
0.11691245436668396,13.435606002807617,9.792875289916992,0
0.30756911635398865,10.762373924255371,9.386526107788086,0
0.1593533158302307,7.987509727478027,8.688167572021484,0
0.418050616979599,5.05293083190918,8.097731590270996,0
1.036292552947998,2.1572771072387695,7.211071968078613,0
1.5100164413452148,-0.74639892578125,5.416468620300293,0
1.482124924659729,-3.1763062477111816,2.4946563243865967,0
0.42576754093170166,-3.1532158851623535,-0.39556884765625,0
-0.6939147114753723,0.2934913635253906,-1.451890230178833,0
-1.552276611328125,4.900588035583496,-2.3437018394470215,0
-2.0073177814483643,8.635235786437988,-4.2418694496154785,0
-2.5137839317321777,10.984121322631836,-5.793295383453369,0
-3.4303555488586426,11.880685806274414,-6.388691425323486,0
-4.203214168548584,11.295124053955078,-6.004983901977539,0
-3.5671639442443848,8.801146507263184,-5.045444011688232,0
-3.5904929637908936,5.8979339599609375,-3.3648033142089844,0
-4.003543853759766,3.267889976501465,-1.5145230293273926,0
-4.06096076965332,1.3010034561157227,-0.5793838500976562,0
-3.932556390762329,0.31863975524902344,-0.4741988182067871,0
-3.674682378768921,-0.11737728118896484,-0.5707497596740723,0
-2.528937816619873,-0.47762298583984375,0.07955360412597656,0
-0.6696348786354065,-0.8184146881103516,-0.19379711151123047,0
-0.451379656791687,-1.1733942031860352,-1.66147780418396,0
-1.1884880065917969,-1.5767359733581543,-3.1185073852539062,0
-0.9934960603713989,-1.8132257461547852,-4.540389060974121,0
-0.7741074562072754,-1.2254548072814941,-4.755230903625488,0
-0.6423018574714661,-0.04998779296875,-3.6910693645477295,0
0.13419562578201294,1.4184608459472656,-2.611292600631714,0
1.471710443496704,2.9140281677246094,-1.7461011409759521,0
3.15224289894104,4.0966997146606445,-1.3298280239105225,0
4.3694562911987305,4.484375,-1.4360318183898926,0
4.629725456237793,4.187426567077637,-2.2818727493286133,0
4.2519378662109375,3.2044601440429688,-3.2609190940856934,0
3.5917720794677734,1.7233028411865234,-4.3521409034729,0
2.40651798248291,0.391448974609375,-5.416938781738281,0
1.4128128290176392,-0.6006460189819336,-6.093701362609863,0
0.3631361126899719,-1.2682695388793945,-6.201686859130859,0
-0.42595234513282776,-1.6341304779052734,-5.8759765625,0
-1.09951651096344,-1.738356590270996,-5.1922783851623535,0
-1.6088634729385376,-1.7582406997680664,-4.094046115875244,0
-2.031100273132324,-1.7614459991455078,-2.931474208831787,0
-2.211247682571411,-1.681640625,-1.927324652671814,0
-2.237936019897461,-1.5122466087341309,-1.1130177974700928,0
-2.0123884677886963,-1.351858139038086,-0.43881726264953613,0
-1.765587568283081,-1.2749013900756836,-0.058660030364990234,0
-1.455728530883789,-1.2599153518676758,0.1507558822631836,0
-1.2080878019332886,-1.1800870895385742,0.2665855884552002,0
-0.9969803094863892,-1.193282127380371,0.21998286247253418,0
-0.829328179359436,-1.2802467346191406,-0.014946937561035156,0
-0.6559276580810547,-1.4839191436767578,-0.2635829448699951,0
-0.4104004502296448,-1.825533390045166,-0.8568072319030762,0
-0.2848512530326843,-2.0920581817626953,-1.2640529870986938,0
-0.24697601795196533,-2.3360233306884766,-1.6803131103515625,0
-0.11411595344543457,-2.468751907348633,-2.061584711074829,0
-0.18229210376739502,-2.4711246490478516,-2.3947017192840576,0
-0.1856933832168579,-2.505831718444824,-2.6087706089019775,0
-0.105338454246521,-2.5632505416870117,-2.659022808074951,0
-0.07253336906433105,-2.555060863494873,-2.5000510215759277,0
-0.03462636470794678,-2.483917236328125,-2.368391513824463,0
-0.13311421871185303,-2.235276222229004,-2.09118390083313,0
-0.25860077142715454,-1.859696865081787,-1.9355065822601318,0
-0.33015549182891846,-1.491286277770996,-1.824354648590088,0
-0.12290298938751221,-1.4934358596801758,-1.662622332572937,0
-0.1443730592727661,-1.3061637878417969,-1.3882277011871338,0
-0.34229499101638794,-1.0923700332641602,-0.9384333491325378,0
-0.46793168783187866,-1.0410585403442383,-0.6310060024261475,0
-0.32497256994247437,-1.030146598815918,-0.4633327126502991,0
-0.27013468742370605,-1.1695337295532227,-0.4641929864883423,0
-0.16933917999267578,-1.1410369873046875,-0.39910924434661865,0
-0.010309934616088867,-1.243870735168457,-0.23426669836044312,0
0.17145049571990967,-1.3368940353393555,-0.048456668853759766,0
0.34759247303009033,-1.4727840423583984,0.050755858421325684,0
0.4416930675506592,-1.4123468399047852,-0.01823294162750244,0
0.5111347436904907,-1.2346868515014648,-0.13845252990722656,0
0.6201555728912354,-1.0068597793579102,-0.23099935054779053,0
0.7351105213165283,-0.9298553466796875,-0.2760322093963623,0
0.7169152498245239,-0.8719720840454102,-0.3257005214691162,0
0.7496271133422852,-0.7901458740234375,-0.3629213869571686,0
0.7491796016693115,-0.8206634521484375,-0.3229876756668091,0
0.7416770458221436,-0.8485689163208008,-0.3256251811981201,0
0.8013430833816528,-0.8690700531005859,-0.3016344904899597,0
0.760656476020813,-0.8917245864868164,-0.30137890577316284,0
0.6915038824081421,-0.9212942123413086,-0.2509515583515167,0
0.6560816764831543,-0.9147205352783203,-0.23666158318519592,0
0.6761990785598755,-0.9581823348999023,-0.16739115118980408,0
0.6421345472335815,-0.9751529693603516,-0.08110424876213074,0
0.6068638563156128,-0.9035358428955078,-0.05658692121505737,0
0.6041042804718018,-0.8510513305664062,-0.20382489264011383,0
0.5884691476821899,-0.781804084777832,-0.3003244400024414,0
0.6583695411682129,-0.6838846206665039,-0.3533155620098114,0
0.5916180610656738,-0.6027679443359375,-0.4206211268901825,0
0.486713171005249,-0.5169239044189453,-0.38798028230667114,0
0.4635121822357178,-0.37854576110839844,-0.2296442836523056,0
0.4336167573928833,-0.23314380645751953,0.010681979358196259,0
0.3587791323661804,-0.12137222290039062,0.32561615109443665,0
0.2578045725822449,-0.10531806945800781,0.5930202007293701,0
0.19505369663238525,-0.046156883239746094,0.7029626369476318,0
0.14386022090911865,0.025007247924804688,0.8112839460372925,0
0.13488709926605225,0.06276607513427734,0.7649701833724976,0
0.1483810544013977,0.24414443969726562,0.5544265508651733,0
0.2604129910469055,0.3753194808959961,0.5582505464553833,0
0.42966562509536743,0.561610221862793,0.6428758502006531,0
0.6218956708908081,0.7671241760253906,0.6600526571273804,0
0.8247876167297363,1.0157432556152344,0.5903832912445068,0
0.9778763651847839,1.2285137176513672,0.5555552244186401,0
1.119070291519165,1.510676383972168,0.6534799337387085,0
1.2408696413040161,1.6732368469238281,0.8770043849945068,0
1.4080405235290527,1.6732711791992188,1.1305155754089355,0
1.637751817703247,1.6041860580444336,1.3231570720672607,0
1.8562672138214111,1.4899215698242188,1.406928539276123,0
2.0233356952667236,1.366347312927246,1.441408395767212,0
2.1869735717773438,1.3219146728515625,1.5149812698364258,0
2.4024786949157715,1.325413703918457,1.646772861480713,0
2.605220317840576,1.3743782043457031,1.7338690757751465,0
2.8790321350097656,1.4328718185424805,1.8003816604614258,0
3.075381278991699,1.524785041809082,1.8055541515350342,0
3.251502513885498,1.5233144760131836,1.796895980834961,0
3.5339999198913574,1.6293840408325195,1.7069623470306396,0
3.6665728092193604,1.6706790924072266,1.6934314966201782,0
3.7205698490142822,1.7429084777832031,1.7273139953613281,0
3.815509080886841,1.812535285949707,1.7892903089523315,0
4.047347068786621,1.9129867553710938,1.733008623123169,0
4.200747966766357,2.017857551574707,1.4597253799438477,0
4.18652868270874,2.1868762969970703,1.093174695968628,0
3.9871649742126465,2.446247100830078,0.6758396029472351,0
3.812530517578125,3.0015182495117188,0.3821859657764435,0
3.5615949630737305,3.5009031295776367,0.33688440918922424,0
3.286691904067993,4.08323860168457,0.29861465096473694,0
3.2033591270446777,4.504616737365723,0.39472198486328125,0
3.180461883544922,4.695964813232422,0.5178355574607849,0
3.221039295196533,4.303704261779785,0.33250099420547485,0
3.2157466411590576,3.6872262954711914,-0.14095094799995422,0
3.0335261821746826,3.1983537673950195,-0.5877425670623779,0
2.8710145950317383,2.5979270935058594,-0.9366720914840698,0
2.733311891555786,1.9053668975830078,-1.1735190153121948,0
2.597166061401367,1.2835283279418945,-1.5116450786590576,0
2.264988422393799,0.7348690032958984,-2.0736312866210938,0
1.7667663097381592,0.2451314926147461,-2.6418604850769043,0
1.0109100341796875,-0.26928234100341797,-2.9477593898773193,0
0.1685175895690918,-0.6025533676147461,-2.8467891216278076,0
-0.5753921866416931,-1.0130434036254883,-2.4285926818847656,0
-1.3917279243469238,-1.2496395111083984,-1.8101751804351807,0
-2.291189193725586,-1.2241544723510742,-1.4759571552276611,0
-3.1536455154418945,-1.051727294921875,-1.1020910739898682,0
-3.737520694732666,-0.6368923187255859,-0.8006922602653503,0
-4.235651016235352,-0.23329448699951172,-0.559784471988678,0
-4.331878185272217,0.4484367370605469,-0.12480199337005615,0
-4.036282539367676,1.1998329162597656,0.3433011770248413,0
-3.593818187713623,2.070810317993164,0.779634952545166,0
-3.081484079360962,2.7262449264526367,1.0037485361099243,0
-2.381221294403076,3.1447200775146484,0.972948431968689,0
-1.8739216327667236,3.4197654724121094,0.743930459022522,0
-1.5234084129333496,3.6497039794921875,0.5234118700027466,0
-1.3215230703353882,3.7964954376220703,0.30503082275390625,0
-1.2759008407592773,3.748000144958496,0.08741819858551025,0
-1.310021162033081,3.5524415969848633,-0.14981722831726074,0
-1.7092723846435547,3.2460107803344727,-0.34772515296936035,0
-2.3480710983276367,3.039468765258789,-0.5621873140335083,0
-2.7400944232940674,2.8372926712036133,-0.8059700727462769,0
-2.7152323722839355,2.627643585205078,-1.127027153968811,0
-2.374258518218994,2.544475555419922,-1.386310338973999,0
-1.8586742877960205,2.570850372314453,-1.580915093421936,0
-1.2215174436569214,2.515317916870117,-1.6195656061172485,0
-0.8296023607254028,2.3946638107299805,-1.676378846168518,0
-0.47118741273880005,2.0413827896118164,-1.6521929502487183,0
-0.32467618584632874,1.7566070556640625,-1.6267518997192383,0
0.08071109652519226,1.5493078231811523,-1.7540152072906494,0
0.29872584342956543,1.3808202743530273,-2.047372341156006,0
0.6692291498184204,1.2578248977661133,-2.395742893218994,0
0.7696511745452881,0.9933805465698242,-2.8607215881347656,0
0.6702153086662292,0.4298267364501953,-3.158043622970581,0
0.3377046287059784,-0.10706329345703125,-3.3557376861572266,0
0.048135727643966675,-0.739384651184082,-3.126408100128174,0
-0.23911139369010925,-1.5987424850463867,-2.7022552490234375,0
-0.3949490487575531,-2.525014877319336,-2.075719118118286,0
-0.41005727648735046,-3.262484550476074,-1.5026521682739258,0
-0.5886063575744629,-3.8833441734313965,-1.1811769008636475,0
-0.8590263724327087,-4.318596363067627,-1.1298799514770508,0
-1.1087379455566406,-4.788741588592529,-1.2356956005096436,0
-1.2129197120666504,-5.308377265930176,-1.412034273147583,0
-1.1153665781021118,-5.789061546325684,-1.6279428005218506,0
-1.228696346282959,-6.3313398361206055,-1.8859930038452148,0
-1.3129632472991943,-6.722187042236328,-2.093426465988159,0
-1.3508960008621216,-6.923361778259277,-2.270007848739624,0
-1.4357470273971558,-6.8274149894714355,-2.217613935470581,0
-1.5989408493041992,-6.539938449859619,-2.089580774307251,0
-1.690086007118225,-6.070837020874023,-1.8523585796356201,0
-1.8174164295196533,-5.53270959854126,-1.6519572734832764,0
-1.762502908706665,-4.698395729064941,-1.3042702674865723,0
-1.5171040296554565,-3.9269556999206543,-0.9552133083343506,0
-1.5263912677764893,-3.4692673683166504,-0.7771835327148438,0
-1.3646526336669922,-3.1503281593322754,-0.6552984714508057,0
-1.3113999366760254,-3.175570011138916,-0.5585157871246338,0
-1.3663420677185059,-3.338898181915283,-0.5370759963989258,0
-1.3215582370758057,-3.6139559745788574,-0.5093073844909668,0
-1.2344446182250977,-3.998269557952881,-0.5611610412597656,0
-1.1216635704040527,-4.3698296546936035,-0.6110424995422363,0
-1.0503087043762207,-4.6952056884765625,-0.6444711685180664,0
-0.908281683921814,-4.95060920715332,-0.5727458000183105,0
-0.8705170154571533,-5.064460754394531,-0.41245293617248535,0
-0.8703880310058594,-5.12778377532959,-0.22811126708984375,0
-0.8770012855529785,-5.064090728759766,0.030578136444091797,0
-0.9022824168205261,-4.983509063720703,0.3541116714477539,0
-0.9246304035186768,-4.828523635864258,0.6107997894287109,0
-0.9129688739776611,-4.558248519897461,0.8241701126098633,0
-0.9415496587753296,-4.174741268157959,0.9910752773284912,0
-0.7926775217056274,-3.680065155029297,1.2135443687438965,0
-0.6172323226928711,-3.145660877227783,1.4428768157958984,0
-0.31431499123573303,-2.5615577697753906,1.6685068607330322,0
-0.0048503875732421875,-1.8938674926757812,1.8485610485076904,0
0.3405204117298126,-1.2090764045715332,1.9433319568634033,0
0.48010653257369995,-0.6620874404907227,1.8868932723999023,0
0.7912842631340027,0.010672569274902344,1.950575590133667,0
1.0605310201644897,0.9027776718139648,2.060635566711426,0
1.1478025913238525,2.0052127838134766,2.2453320026397705,0
1.3516149520874023,3.8950557708740234,2.7475364208221436,0
1.3222410678863525,6.467347145080566,3.46065616607666,0
0.9881385564804077,9.334835052490234,4.669190406799316,0
0.2503829002380371,11.260748863220215,6.595996856689453,0
0.11459308862686157,10.82470989227295,8.359029769897461,0
-0.07762980461120605,8.874699592590332,9.137444496154785,0
-0.384102463722229,6.224827766418457,8.662008285522461,0
-0.47926566004753113,3.4758033752441406,7.724127769470215,0
-0.11588549613952637,0.7447576522827148,6.6879096031188965,0
0.5151424407958984,-1.748331069946289,4.996003150939941,0
0.603871762752533,-3.2503085136413574,2.0940496921539307,0
-0.21368128061294556,-2.422069549560547,-0.15105605125427246,0
-0.7581510543823242,1.0468950271606445,-0.8045191764831543,0
-1.1967705488204956,4.957399368286133,-1.7184946537017822,0
-1.4640178680419922,8.27402114868164,-4.044867515563965,0
-1.653075933456421,10.959930419921875,-5.986547470092773,0
-2.2756876945495605,12.62355899810791,-6.677918434143066,0
-3.517941951751709,13.271559715270996,-6.562782287597656,0
-5.192690372467041,11.943626403808594,-6.198009490966797,0
-6.473877429962158,8.692550659179688,-5.251091003417969,0
-6.608320236206055,4.651238441467285,-3.4570765495300293,0
-6.07304048538208,1.4867334365844727,-1.7939701080322266,0
-5.18404483795166,0.6055049896240234,-0.8074946403503418,0
-4.264557361602783,1.4365415573120117,-0.6513867378234863,0
-3.3766069412231445,2.5552492141723633,-0.5777370929718018,0
-2.7534918785095215,2.756254196166992,-0.46036267280578613,0
-2.518501043319702,1.8472976684570312,-1.035494089126587,0
-2.2883949279785156,0.47727108001708984,-1.7827749252319336,0
-1.7979605197906494,-0.5221929550170898,-2.638535261154175,0
-1.282056212425232,-0.7947273254394531,-3.5568809509277344,0
-1.2029032707214355,-0.45351219177246094,-4.216097354888916,0
-1.0858079195022583,0.1863718032836914,-4.4762678146362305,0
-0.6717864871025085,0.9861030578613281,-4.366974830627441,0
0.020258605480194092,1.8539505004882812,-4.046669006347656,0
0.8231530785560608,2.4660825729370117,-3.6895105838775635,0
1.4495429992675781,2.5995712280273438,-3.3884003162384033,0
1.8577638864517212,2.099217414855957,-3.313894271850586,0
1.9213835000991821,1.3532543182373047,-3.4414873123168945,0
1.767108678817749,0.24735164642333984,-3.7184033393859863,0
1.410520315170288,-0.8421649932861328,-4.054379463195801,0
1.1044268608093262,-1.833205223083496,-4.200198650360107,0
0.7941543459892273,-2.4833130836486816,-4.305237770080566,0
0.4592708945274353,-2.71781587600708,-4.303890228271484,0
0.1381632685661316,-2.668397903442383,-3.985549211502075,0
-0.20222437381744385,-2.4909229278564453,-3.4561922550201416,0
-0.4578022360801697,-2.1501011848449707,-2.7507312297821045,0
-0.647447407245636,-1.7996273040771484,-1.9440346956253052,0
-0.5603155493736267,-1.4016227722167969,-1.39311683177948,0
-0.27210748195648193,-0.9705572128295898,-1.05867338180542,0
0.07535231113433838,-0.7453842163085938,-1.0795152187347412,0
0.43627119064331055,-0.5700798034667969,-1.0521551370620728,0
0.7814732789993286,-0.5160188674926758,-0.9775842428207397,0
0.8906182050704956,-0.5636987686157227,-0.8949098587036133,0
1.0274277925491333,-0.6460351943969727,-0.8571006059646606,0
1.031937837600708,-0.9973697662353516,-0.9119713306427002,0
0.9092347621917725,-1.3592185974121094,-0.9708008766174316,0
0.6788184642791748,-1.638333797454834,-1.069640040397644,0
0.5086053609848022,-1.9209299087524414,-1.2254503965377808,0
0.34173381328582764,-2.1019487380981445,-1.3375451564788818,0
0.09492290019989014,-2.2103629112243652,-1.5204520225524902,0
-0.06432473659515381,-2.236832618713379,-1.6086068153381348,0
-0.23674488067626953,-2.215066432952881,-1.6301212310791016,0
-0.33626240491867065,-2.1117262840270996,-1.6205780506134033,0
-0.37488776445388794,-1.9795141220092773,-1.5657503604888916,0
-0.4720965623855591,-1.8016948699951172,-1.434955358505249,0
-0.5872728228569031,-1.5209054946899414,-1.3552467823028564,0
-0.6344060301780701,-1.19232177734375,-1.2425717115402222,0
-0.5110175013542175,-1.1029348373413086,-1.1350951194763184,0
-0.2963683605194092,-1.0658588409423828,-0.920913577079773,0
-0.10955071449279785,-1.0953054428100586,-0.663557231426239,0
-0.017273426055908203,-1.250931739807129,-0.37106043100357056,0
0.21518385410308838,-1.3173999786376953,-0.22094273567199707,0
0.3245447874069214,-1.1609106063842773,-0.3497866988182068,0
0.16459059715270996,-0.8033514022827148,-0.45027846097946167,0
0.3600846529006958,-0.5680656433105469,-0.12595981359481812,0
0.7511630058288574,-0.643986701965332,0.011237740516662598,0
1.0174245834350586,-0.7819995880126953,-0.09668391942977905,0
1.1493147611618042,-0.9723491668701172,-0.13484841585159302,0
1.3209195137023926,-1.2053422927856445,-0.12972593307495117,0
1.5366629362106323,-1.263413429260254,-0.14243078231811523,0
1.535597801208496,-1.2472953796386719,-0.17641979455947876,0
1.5618391036987305,-1.269515037536621,-0.08736807107925415,0
1.5794235467910767,-1.387406349182129,0.012411534786224365,0
1.5738898515701294,-1.4405889511108398,-0.061537086963653564,0
1.5740292072296143,-1.443476676940918,-0.08433109521865845,0
1.5749820470809937,-1.5180788040161133,0.02083432674407959,0
1.4690570831298828,-1.530390739440918,0.14643830060958862,0
1.406821370124817,-1.4445667266845703,0.17512571811676025,0
1.3641254901885986,-1.4256696701049805,0.23120731115341187,0
1.3718273639678955,-1.387495994567871,0.3026236593723297,0
1.326897144317627,-1.3826427459716797,0.34633398056030273,0
1.224560260772705,-1.427779197692871,0.38132643699645996,0
1.1199946403503418,-1.3865423202514648,0.4169919490814209,0
0.9346805810928345,-1.2877473831176758,0.400188148021698,0
0.8030169606208801,-1.1386632919311523,0.368820458650589,0
0.7157289981842041,-1.0637264251708984,0.5502341389656067,0
0.6181289553642273,-0.9074497222900391,0.7576631903648376,0
0.5486800074577332,-0.7823238372802734,0.9310908913612366,0
0.6007409691810608,-0.6094112396240234,1.0607388019561768,0
0.6448274254798889,-0.4102621078491211,1.180105447769165,0
0.7191082239151001,-0.2040252685546875,1.2605534791946411,0
0.8686997294425964,-0.019378662109375,1.211199402809143,0
0.9951722621917725,0.18677711486816406,1.1327348947525024,0
1.1461429595947266,0.44073963165283203,1.08769690990448,0
1.2829084396362305,0.7927055358886719,0.937535285949707,0
1.4244791269302368,1.0656232833862305,0.8546785116195679,0
1.4462192058563232,1.2859134674072266,0.716946005821228,0
1.5154705047607422,1.544499397277832,0.6101269125938416,0
1.5458807945251465,1.7217655181884766,0.5863384008407593,0
1.4991841316223145,1.8871231079101562,0.6522403955459595,0
1.4281437397003174,2.0692338943481445,0.7786107063293457,0
1.3423652648925781,2.14129638671875,0.8906867504119873,0
1.234788179397583,2.208590507507324,1.0262820720672607,0
1.1914734840393066,2.1419496536254883,1.2136790752410889,0
1.1214978694915771,2.053896903991699,1.3764197826385498,0
1.0799081325531006,1.9994287490844727,1.5744298696517944,0
1.1217424869537354,1.952188491821289,1.719398856163025,0
1.2612662315368652,1.9241085052490234,1.892822027206421,0
1.299533486366272,1.9438409805297852,1.9008705615997314,0
1.4827046394348145,1.9611263275146484,2.023871898651123,0
1.70973801612854,2.0429115295410156,2.020203113555908,0
1.980369210243225,2.155634880065918,2.0312185287475586,0
2.196115255355835,2.131856918334961,2.0304744243621826,0
2.4333951473236084,2.1008358001708984,1.984271764755249,0
2.692077159881592,2.0577621459960938,1.9904913902282715,0
2.814225673675537,2.012221336364746,1.975162386894226,0
2.974785327911377,2.0645980834960938,2.0048575401306152,0
3.1332926750183105,1.9946260452270508,1.7548093795776367,0
3.1436188220977783,1.9817628860473633,1.5357906818389893,0
3.125072717666626,2.0618228912353516,1.1588693857192993,0
3.1418299674987793,2.2562055587768555,0.5855932831764221,0
3.02352237701416,2.701043128967285,-0.017240703105926514,0
2.759941339492798,3.3171310424804688,-0.6645763516426086,0
2.580955743789673,3.8389663696289062,-0.9299929738044739,0
2.4296913146972656,4.008563995361328,-0.9492311477661133,0
2.3881077766418457,3.905344009399414,-1.1721123456954956,0
2.296703815460205,3.4172792434692383,-1.590072512626648,0
2.1512610912323,2.812689781188965,-2.0992746353149414,0
1.9739333391189575,2.142024040222168,-2.636648416519165,0
1.7582770586013794,1.4390010833740234,-3.0790841579437256,0
1.4861751794815063,0.8091020584106445,-3.424896478652954,0
1.240248441696167,0.4629392623901367,-3.5008411407470703,0
0.995574951171875,-0.008456230163574219,-3.3628854751586914,0
0.537729024887085,-0.46124744415283203,-2.9538722038269043,0
-0.23780480027198792,-0.6084136962890625,-2.488600730895996,0
-1.0575568675994873,-0.9261655807495117,-2.168050765991211,0
-1.8781473636627197,-1.14892578125,-1.8041350841522217,0
-2.5534138679504395,-1.126272201538086,-1.3813297748565674,0
-3.157802104949951,-1.2076635360717773,-0.9592918157577515,0
-3.4936752319335938,-1.1657991409301758,-0.5981417894363403,0
-3.646505832672119,-0.991206169128418,-0.23850548267364502,0
-3.5702271461486816,-0.4736757278442383,0.266035795211792,0
-3.228400468826294,0.2595348358154297,0.7581719160079956,0
-2.785587787628174,1.0933027267456055,1.1663919687271118,0
-2.377322196960449,1.7118186950683594,1.4571560621261597,0
-1.815548300743103,2.1440038681030273,1.5513817071914673,0
-1.5022743940353394,2.4116153717041016,1.374592661857605,0
-1.168624758720398,2.6632766723632812,1.0644536018371582,0
-1.0265982151031494,2.829822540283203,0.7851521968841553,0
-0.9125691056251526,2.9138593673706055,0.5505313873291016,0
-0.8038766384124756,2.8676748275756836,0.3415215015411377,0
-0.7644862532615662,2.846813201904297,0.14885950088500977,0
-0.7940702438354492,2.8870849609375,-0.0774681568145752,0
-0.7417293787002563,3.021921157836914,-0.42832279205322266,0
-0.6596473455429077,3.0720043182373047,-0.8681223392486572,0
-0.3872848153114319,3.0112991333007812,-1.306319236755371,0
-0.24299463629722595,2.976304054260254,-1.661652684211731,0
-0.07574991881847382,2.8807477951049805,-1.888047695159912,0
0.20514842867851257,2.6309690475463867,-1.869200348854065,0
0.40279877185821533,2.3965225219726562,-2.041804790496826,0
0.7220758199691772,2.052988052368164,-2.204803228378296,0
0.7499500513076782,1.6769351959228516,-2.231492519378662,0
0.7340467572212219,1.3040876388549805,-2.0261363983154297,0
0.7364163398742676,0.6878480911254883,-1.7533944845199585,0
0.538849413394928,-0.028267860412597656,-1.5133891105651855,0
0.38779085874557495,-0.5242481231689453,-1.2452468872070312,0
0.15403544902801514,-1.0875740051269531,-1.312098741531372,0
-0.028197243809700012,-1.51777982711792,-1.1914641857147217,0
-0.14665141701698303,-2.1671500205993652,-0.9015626907348633,0
-0.3591129183769226,-2.7894301414489746,-0.7770435810089111,0
-0.619936466217041,-3.1840286254882812,-0.7912373542785645,0
-0.9053246378898621,-3.6310291290283203,-0.9848623275756836,0
-0.9629345536231995,-4.03956413269043,-1.1378343105316162,0
-1.1915019750595093,-4.493111610412598,-1.4901072978973389,0
-1.3084356784820557,-4.871762275695801,-1.8318512439727783,0
-1.323805809020996,-5.220940589904785,-1.9578180313110352,0
-1.4560422897338867,-5.411457061767578,-2.1269025802612305,0
-1.5084257125854492,-5.562894821166992,-2.193702220916748,0
-1.5524154901504517,-5.584220886230469,-2.1708760261535645,0
-1.6430519819259644,-5.224446773529053,-2.159226417541504,0
-1.5819467306137085,-4.701674461364746,-2.0009114742279053,0
-1.4109365940093994,-4.204812526702881,-1.8352153301239014,0
-1.258119821548462,-3.716942310333252,-1.5811529159545898,0
-1.09567391872406,-3.3454861640930176,-1.35394287109375,0
-1.0966352224349976,-3.1833767890930176,-1.1108548641204834,0
-1.0647778511047363,-3.167914867401123,-1.005504846572876,0
-1.1217756271362305,-3.3229432106018066,-0.8557596206665039,0
-1.1603740453720093,-3.4210457801818848,-0.6784927845001221,0
-1.1534640789031982,-3.785198211669922,-0.5524449348449707,0
-1.2900301218032837,-4.137820243835449,-0.4844660758972168,0
-1.2808630466461182,-4.421780109405518,-0.3161435127258301,0
-1.2811654806137085,-4.673312664031982,-0.16655492782592773,0
-1.2838085889816284,-4.832931041717529,0.02227020263671875,0
-1.2268257141113281,-4.944070339202881,0.2939729690551758,0
-1.1461308002471924,-5.026098251342773,0.5365262031555176,0
-1.0785129070281982,-4.902368068695068,0.8295602798461914,0
-0.9288010597229004,-4.78840446472168,1.0322542190551758,0
-0.852888286113739,-4.68184232711792,1.168912410736084,0
-0.6879404783248901,-4.592250823974609,1.330732822418213,0
-0.6136622428894043,-4.443012237548828,1.4771416187286377,0
-0.5368976593017578,-4.1956987380981445,1.5792303085327148,0
-0.4384665787220001,-3.9887380599975586,1.6819431781768799,0
-0.3184341788291931,-3.6493539810180664,1.875128984451294,0
-0.07253333926200867,-3.2845239639282227,1.941734790802002,0
0.17331305146217346,-2.929060935974121,1.9055843353271484,0
0.41090118885040283,-2.4074440002441406,1.8430933952331543,0
0.9768276214599609,-1.6852974891662598,1.712723970413208,0
1.661684513092041,-0.7522392272949219,1.5182795524597168,0
2.477924346923828,0.5983333587646484,1.224764347076416,0
3.3126723766326904,2.4293346405029297,0.9262924194335938,0
3.635180711746216,4.482795715332031,0.9000473022460938,0
3.5597825050354004,6.92811393737793,1.5646634101867676,0
2.626324415206909,9.17299747467041,3.334510564804077,0
1.4695760011672974,9.446390151977539,5.649715423583984,0
0.910207986831665,8.408916473388672,7.460254669189453,0
0.2992173433303833,6.933625221252441,8.256231307983398,0
-0.5054358839988708,5.498368263244629,8.028923034667969,0
-0.9489080905914307,3.8706417083740234,7.358891010284424,0
-1.0114901065826416,1.9147214889526367,6.29547119140625,0
-1.1599867343902588,-0.06871891021728516,4.496198654174805,0
-1.2459516525268555,-0.9592485427856445,2.200315475463867,0
-1.0049097537994385,0.2796907424926758,0.9623281955718994,0
-1.2823227643966675,2.853853225708008,0.0814218521118164,0
-1.7921305894851685,5.836526870727539,-1.4464867115020752,0
-2.0787572860717773,8.89097785949707,-3.742906093597412,0
-1.857802152633667,11.215204238891602,-5.330630302429199,0
-1.9244691133499146,12.033018112182617,-6.166882038116455,0
-2.7051990032196045,11.419257164001465,-6.822344779968262,0
-4.738694667816162,9.168055534362793,-7.175453186035156,0
-6.811051368713379,6.15803337097168,-6.662837028503418,0
-7.065224647521973,3.0396242141723633,-5.547001838684082,0
-6.562835693359375,0.9513425827026367,-3.667253255844116,0
-5.790136814117432,1.0659055709838867,-0.915555477142334,0
-4.512133598327637,1.515106201171875,0.1387462615966797,0
-3.2795424461364746,1.4582090377807617,0.010473489761352539,0
-2.7876572608947754,0.8721551895141602,-0.5355987548828125,0
-2.484801769256592,0.13980388641357422,-1.3449082374572754,0
-2.1769933700561523,-0.49207592010498047,-2.1408920288085938,0
-1.7986533641815186,-0.7561750411987305,-2.646308422088623,0
-1.427611231803894,-0.3883962631225586,-2.695341110229492,0
-1.034583568572998,0.5817012786865234,-2.5440421104431152,0
-0.2875347137451172,1.9704198837280273,-2.313809871673584,0
0.9006884098052979,3.3070363998413086,-2.0964508056640625,0
2.05946683883667,4.124154090881348,-2.249941349029541,0
2.8673479557037354,4.306939125061035,-2.8052735328674316,0
3.197028875350952,3.674191474914551,-3.4571456909179688,0
3.1592934131622314,2.303713798522949,-4.040450096130371,0
2.958509683609009,0.5677452087402344,-4.620864391326904,0
2.5013742446899414,-0.9917030334472656,-5.009353160858154,0
2.1812593936920166,-1.873499870300293,-5.092592716217041,0
1.9186874628067017,-2.0672874450683594,-5.0139360427856445,0
1.7186955213546753,-1.7110481262207031,-4.826238632202148,0
1.3029234409332275,-0.9382972717285156,-4.523993015289307,0
0.7913622260093689,-0.2442646026611328,-4.137646675109863,0
0.1877669095993042,0.25334739685058594,-3.3168675899505615,0
-0.3993666172027588,0.4773101806640625,-2.303338050842285,0
-0.5787568092346191,0.3600473403930664,-1.3932212591171265,0
-0.7099630832672119,0.06626415252685547,-0.6342747211456299,0
-0.6928151845932007,-0.2606163024902344,-0.27162981033325195,0
-0.6278724670410156,-0.6468391418457031,-0.22345757484436035,0
-0.4219706952571869,-1.0513782501220703,-0.3277587890625,0
-0.2955302596092224,-1.4953832626342773,-0.38467860221862793,0
-0.24175453186035156,-1.8421335220336914,-0.43627381324768066,0
-0.07387489080429077,-2.156139373779297,-0.48342597484588623,0
-0.05971872806549072,-2.2175021171569824,-0.605117678642273,0
-4.8828125E-4,-2.1941962242126465,-0.7046962976455688,0
-0.0898023247718811,-2.1823763847351074,-0.9026064872741699,0
-0.2220894694328308,-2.160773277282715,-1.369818925857544,0
-0.4134693145751953,-2.141508102416992,-1.9620336294174194,0
-0.47648942470550537,-2.25848388671875,-2.5191802978515625,0
-0.5852215886116028,-2.243650436401367,-2.8626046180725098,0
-0.7175067067146301,-2.14253568649292,-3.1079983711242676,0
-0.882799506187439,-2.0556588172912598,-3.05487060546875,0
-1.0118772983551025,-1.9471826553344727,-2.7799341678619385,0
-1.1408491134643555,-1.8219456672668457,-2.539149284362793,0
-1.1622636318206787,-1.6871929168701172,-2.1959075927734375,0
-1.1482592821121216,-1.5859642028808594,-1.946373701095581,0
-1.0729581117630005,-1.4751176834106445,-1.7188435792922974,0
-0.9156389832496643,-1.199183464050293,-1.4103902578353882,0
-0.7151395082473755,-0.990239143371582,-1.1551432609558105,0
-0.39048999547958374,-0.8193807601928711,-0.9824194312095642,0
-0.09706789255142212,-0.6314458847045898,-0.7712217569351196,0
0.1941472291946411,-0.6177301406860352,-0.5532554388046265,0
0.6938033103942871,-0.6488876342773438,-0.4390771985054016,0
0.44714856147766113,-0.48328113555908203,-0.4769354462623596,0
-0.20776402950286865,-0.18843936920166016,-0.29857295751571655,0
0.27646851539611816,-0.4465818405151367,-0.052318453788757324,0
0.3967564105987549,-0.802647590637207,-0.3889980912208557,0
0.5430104732513428,-1.1535453796386719,-0.4718884825706482,0
0.7434374094009399,-1.5350799560546875,-0.45210856199264526,0
0.8511675596237183,-1.657766342163086,-0.585798978805542,0
0.992945671081543,-1.617624282836914,-0.8674075603485107,0
1.0162956714630127,-1.5871877670288086,-0.9298230409622192,0
0.8807569742202759,-1.8055644035339355,-0.7730058431625366,0
0.8231496810913086,-2.1050100326538086,-0.5457492470741272,0
0.9101654291152954,-2.2318763732910156,-0.4065791368484497,0
0.9236805438995361,-2.313042163848877,-0.2144714593887329,0
0.9806175231933594,-2.2767882347106934,-0.05801117420196533,0
0.9946315288543701,-2.187802791595459,0.015195667743682861,0
1.0231716632843018,-2.1322431564331055,0.08924466371536255,0
1.0614718198776245,-2.067035675048828,0.1979588270187378,0
1.0955393314361572,-1.827244758605957,0.3416481614112854,0
1.1352190971374512,-1.3700542449951172,0.4893139898777008,0
1.0901871919631958,-0.9468183517456055,0.5977559685707092,0
1.1212741136550903,-0.46184825897216797,0.7047930955886841,0
1.0875111818313599,0.10155296325683594,0.7569819092750549,0
1.1229519844055176,0.504206657409668,0.8015159368515015,0
1.1149859428405762,0.7463483810424805,0.7396620512008667,0
1.252872347831726,0.9668474197387695,0.673561692237854,0
1.1751245260238647,0.9744577407836914,0.46141156554222107,0
0.9746203422546387,0.788609504699707,0.3400651216506958,0
0.7826436161994934,0.7610378265380859,0.24039506912231445,0
0.6155450344085693,0.7911272048950195,0.23691417276859283,0
0.4776127338409424,1.0031604766845703,0.33693498373031616,0
0.4019545316696167,1.2319307327270508,0.5717059373855591,0
0.4241292476654053,1.4415483474731445,0.8216410875320435,0
0.5055623054504395,1.5746393203735352,1.1486101150512695,0
0.7082699537277222,1.662353515625,1.3416736125946045,0
0.9269600510597229,1.6664485931396484,1.572726845741272,0
1.1041147708892822,1.6563425064086914,1.7482333183288574,0
1.3161369562149048,1.519648551940918,1.8778061866760254,0
1.5533499717712402,1.4023561477661133,1.8778156042099,0
1.8182612657546997,1.3378896713256836,1.7796692848205566,0
2.103802442550659,1.3237791061401367,1.720207929611206,0
2.347681760787964,1.3886613845825195,1.7070525884628296,0
2.530566453933716,1.623307228088379,1.6998409032821655,0
2.6762146949768066,1.8146991729736328,1.7346402406692505,0
2.892266273498535,1.967667579650879,1.8665075302124023,0
2.9680187702178955,2.067890167236328,1.9514844417572021,0
3.02528715133667,2.139317512512207,2.001044750213623,0
3.090550661087036,2.088705062866211,2.196749210357666,0
3.132941961288452,2.0620412826538086,2.4857840538024902,0
3.157465696334839,1.9134111404418945,2.6620965003967285,0
3.1308434009552,1.733790397644043,2.651034116744995,0
3.1918535232543945,1.561436653137207,2.468796491622925,0
3.2179553508758545,1.5469541549682617,2.0883989334106445,0
3.2490639686584473,1.678187370300293,1.5788015127182007,0
3.2674713134765625,2.024311065673828,1.090286374092102,0
3.26057767868042,2.513361930847168,0.7734470367431641,0
3.2304725646972656,3.1189193725585938,0.6140578985214233,0
3.172438859939575,3.6448307037353516,0.573981523513794,0
3.0079591274261475,3.749326705932617,0.6078386902809143,0
2.9337093830108643,3.5358047485351562,0.5909226536750793,0
2.9119627475738525,2.9568967819213867,0.39795634150505066,0
3.0390946865081787,2.388540267944336,0.03994190692901611,0
3.260632276535034,1.8093194961547852,-0.4264538884162903,0
3.2901649475097656,1.2767915725708008,-0.9949235320091248,0
3.106912136077881,0.8006706237792969,-1.6302170753479004,0
2.917534112930298,0.3476428985595703,-2.195997953414917,0
2.5771708488464355,-0.005603790283203125,-2.5069050788879395,0
1.989091157913208,-0.26145267486572266,-2.608978748321533,0
1.168749213218689,-0.4008197784423828,-2.780367612838745,0
0.1363399624824524,-0.5481863021850586,-2.811089038848877,0
-0.7933067083358765,-0.7609720230102539,-2.845906972885132,0
-1.6708080768585205,-1.0127220153808594,-2.659952402114868,0
-2.2641751766204834,-1.040431022644043,-2.2090559005737305,0
-2.8179140090942383,-0.9402103424072266,-1.6325085163116455,0
-3.278348684310913,-0.7340126037597656,-1.0668833255767822,0
-3.45147705078125,-0.4030942916870117,-0.5011289119720459,0
-3.4688708782196045,0.09035968780517578,0.05875599384307861,0
-3.1239845752716064,0.8558540344238281,0.5727496147155762,0
-2.7984440326690674,1.531907081604004,0.9421368837356567,0
-2.389962911605835,2.0374679565429688,1.203535556793213,0
-2.080775737762451,2.3922548294067383,1.2754470109939575,0
-1.9787801504135132,2.6996383666992188,1.187027096748352,0
-1.8824626207351685,3.0389204025268555,0.9989418983459473,0
-1.9032005071640015,3.2930240631103516,0.7538976669311523,0
-1.9821281433105469,3.4070253372192383,0.5359964370727539,0
-1.8642040491104126,3.5052671432495117,0.3269538879394531,0
-2.036559820175171,3.554178237915039,0.03168845176696777,0
-2.067706823348999,3.575347900390625,-0.34967589378356934,0
-1.803649663925171,3.6144886016845703,-0.8680936098098755,0
-1.5431787967681885,3.590566635131836,-1.3688071966171265,0
-1.5235079526901245,3.453843116760254,-1.797891616821289,0
-1.4462522268295288,3.0755138397216797,-1.940377950668335,0
-1.3995755910873413,2.6708717346191406,-1.8122724294662476,0
-1.3301730155944824,2.189146041870117,-1.5577046871185303,0
-0.9281713962554932,1.7563867568969727,-1.1936492919921875,0
-0.6178932785987854,1.3193206787109375,-1.0654447078704834,0
-0.3496119976043701,1.042332649230957,-1.0041279792785645,0
-0.2797725796699524,0.7095909118652344,-1.121338129043579,0
-0.33470815420150757,0.4046802520751953,-1.349973440170288,0
-0.21570028364658356,0.017536163330078125,-1.5180938243865967,0
-0.017999887466430664,-0.3917198181152344,-1.753446340560913,0
0.14446431398391724,-0.9519243240356445,-1.8894190788269043,0
0.2052345722913742,-1.579237937927246,-1.7444746494293213,0
0.2919441759586334,-2.242765426635742,-1.3543157577514648,0
0.24783775210380554,-2.8734145164489746,-1.1466972827911377,0
0.04478511959314346,-3.3925929069519043,-1.0659503936767578,0
-0.05118836462497711,-3.858079433441162,-1.1019761562347412,0
-0.0894918441772461,-4.3753886222839355,-1.2088525295257568,0
-0.08386271446943283,-4.875174045562744,-1.4200313091278076,0
-0.07923122495412827,-5.304756164550781,-1.613823413848877,0
-0.027653031051158905,-5.652048110961914,-1.8817405700683594,0
0.07341248542070389,-5.9717817306518555,-2.1385245323181152,0
0.17943906784057617,-6.201565742492676,-2.363302230834961,0
0.07964859902858734,-6.2289204597473145,-2.5709800720214844,0
0.06324119865894318,-5.956094741821289,-2.5607047080993652,0
0.015210239216685295,-5.701572418212891,-2.4210638999938965,0
-0.09608622640371323,-5.486952304840088,-2.228550434112549,0
-0.1895940750837326,-5.300236701965332,-2.0334458351135254,0
-0.3183622658252716,-5.1509504318237305,-1.8836030960083008,0
-0.6288490891456604,-5.101278305053711,-1.8194849491119385,0
-0.7126367688179016,-4.950329780578613,-1.7379844188690186,0
-0.7974126935005188,-4.794021129608154,-1.6316370964050293,0
-0.9551599621772766,-4.7161865234375,-1.4905970096588135,0
-1.0522160530090332,-4.7551164627075195,-1.3098087310791016,0
-1.1844902038574219,-4.87477445602417,-1.201704502105713,0
-1.3188875913619995,-4.953129768371582,-1.0465290546417236,0
-1.4247182607650757,-5.002182960510254,-0.7868695259094238,0
-1.4663896560668945,-5.026763916015625,-0.5494446754455566,0
-1.577768325805664,-4.983853340148926,-0.29824304580688477,0
-1.75882887840271,-4.878269672393799,-0.07386374473571777,0
-1.7676804065704346,-4.741065979003906,0.10931587219238281,0
-1.7143659591674805,-4.576953887939453,0.3541281223297119,0
-1.6179955005645752,-4.376120567321777,0.5452945232391357,0
-1.5836536884307861,-4.114253044128418,0.6533586978912354,0
