AccX,AccY,AccZ,SampleRate
-4.404946804046631,4.962376594543457,0.994339108467102,0.01
-3.7915303707122803,3.269256591796875,1.5252639055252075,0.02
-3.0879831314086914,1.5870256423950195,1.0316013097763062,0.03
-2.757704257965088,0.46494388580322266,-0.26774096488952637,0.04
-2.590609550476074,0.0028371810913085938,-1.2742232084274292,0.05
-2.560661554336548,-0.4577045440673828,-1.9724417924880981,0.060000000000000005
-2.505112886428833,-0.7848529815673828,-2.27522873878479,0.07
-2.2934165000915527,-1.0861778259277344,-2.042788028717041,0.08
-2.161916732788086,-1.0873818397521973,-1.8275233507156372,0.09
-2.337507963180542,-0.9223055839538574,-1.9527140855789185,0.09999999999999999
-2.16041898727417,-1.0496983528137207,-2.1376991271972656,0.10999999999999999
-1.7436022758483887,-1.3720202445983887,-2.264411687850952,0.11999999999999998
-1.2689402103424072,-1.6614117622375488,-2.5143306255340576,0.12999999999999998
-0.8421711921691895,-1.855597972869873,-2.6807808876037598,0.13999999999999999
-0.7011623382568359,-2.029538631439209,-2.8676602840423584,0.15
-1.0157451629638672,-1.8974571228027344,-2.9194352626800537,0.16
-1.2925031185150146,-1.7348394393920898,-2.7138755321502686,0.17
-1.4085893630981445,-1.6985735893249512,-2.5332889556884766,0.18000000000000002
-1.3807897567749023,-1.9131908416748047,-2.234490156173706,0.19000000000000003
-1.5610313415527344,-2.190931797027588,-2.597017765045166,0.20000000000000004
-2.19541072845459,-2.3382835388183594,-2.524009943008423,0.21000000000000005
-3.4130024909973145,-2.2574167251586914,-2.3504886627197266,0.22000000000000006
-4.2976460456848145,-2.1577320098876953,-2.454171657562256,0.23000000000000007
-5.170281887054443,-2.1465773582458496,-2.550164222717285,0.24000000000000007
-5.8355712890625,-2.1578927040100098,-2.5785930156707764,0.25000000000000006
-6.002696990966797,-2.29811429977417,-2.3346755504608154,0.26000000000000006
-5.528545379638672,-2.621948719024658,-1.7873282432556152,0.2700000000000001
-4.900899887084961,-2.8996615409851074,-0.8546285629272461,0.2800000000000001
-4.535428047180176,-3.0892724990844727,-0.35814952850341797,0.2900000000000001
-4.134142875671387,-3.3310680389404297,-0.07444310188293457,0.3000000000000001
-3.361685276031494,-3.4011330604553223,0.17108893394470215,0.3100000000000001
-2.2475733757019043,-2.869955062866211,0.39900684356689453,0.3200000000000001
-0.8721060752868652,-1.5823564529418945,0.9292342662811279,0.3300000000000001
0.7736110687255859,1.2915239334106445,0.7103402614593506,0.34000000000000014
4.276607036590576,5.153538703918457,7.186055660247803,0.35000000000000014
9.318473815917969,8.49138069152832,11.252057075500488,0.36000000000000015
11.156394958496094,10.158472061157227,7.819863319396973,0.37000000000000016
11.7083740234375,9.751152038574219,3.7340095043182373,0.38000000000000017
10.656285285949707,6.900311470031738,0.7989866733551025,0.3900000000000002
6.558576583862305,2.1570024490356445,-0.9756470918655396,0.4000000000000002
3.8027596473693848,-1.2523393630981445,-0.7429376840591431,0.4100000000000002
1.8058371543884277,-3.9289727210998535,0.4390418529510498,0.4200000000000002
0.4468522071838379,-5.556378364562988,2.1896746158599854,0.4300000000000002
-0.46419668197631836,-4.132439613342285,2.4862866401672363,0.4400000000000002
-0.6428236961364746,2.457085609436035,2.387136697769165,0.45000000000000023
-2.4777965545654297,8.277846336364746,-2.3729424476623535,0.46000000000000024
-2.6288630962371826,8.136136054992676,-6.5854034423828125,0.47000000000000025
-3.4666452407836914,8.909812927246094,-8.458834648132324,0.48000000000000026
-5.398772239685059,10.361833572387695,-8.174962997436523,0.49000000000000027
-6.674452781677246,10.089447975158691,-6.564809799194336,0.5000000000000002
-4.72638463973999,8.07565689086914,-7.060782432556152,0.5100000000000002
-3.135803699493408,5.475024223327637,-5.177923202514648,0.5200000000000002
-1.025010108947754,2.7419471740722656,3.43900728225708,0.5300000000000002
-1.7593939304351807,-0.2432575225830078,9.28963851928711,0.5400000000000003
-5.708252906799316,-1.952712059020996,-0.8501317501068115,0.5500000000000003
-5.52836275100708,-2.715303421020508,-8.247282981872559,0.5600000000000003
-3.313666820526123,-2.581112861633301,-9.709501266479492,0.5700000000000003
-3.4901814460754395,-2.2480077743530273,-7.9560651779174805,0.5800000000000003
-4.083887577056885,-1.3935904502868652,-6.087074279785156,0.5900000000000003
-4.261063575744629,0.42145538330078125,-4.588986873626709,0.6000000000000003
-3.629387378692627,2.200015068054199,-2.606463670730591,0.6100000000000003
-1.6671757698059082,2.819272994995117,0.4918491840362549,0.6200000000000003
-0.679633617401123,2.7936229705810547,0.5994288921356201,0.6300000000000003
-1.4161415100097656,2.719240188598633,-2.3283629417419434,0.6400000000000003
-1.3931398391723633,2.1006412506103516,-3.9128646850585938,0.6500000000000004
-0.9077608585357666,0.6754903793334961,-4.403063774108887,0.6600000000000004
-0.6326558589935303,-1.2824039459228516,-3.463467836380005,0.6700000000000004
-1.2512922286987305,-3.1611452102661133,-0.976649284362793,0.6800000000000004
-1.9932799339294434,-4.159821033477783,-0.2996349334716797,0.6900000000000004
-1.9974541664123535,-4.165942192077637,-0.9530385732650757,0.7000000000000004
-1.5094521045684814,-3.641617774963379,-1.25202476978302,0.7100000000000004
-0.9177560806274414,-2.2038369178771973,-1.279655933380127,0.7200000000000004
-0.3792421817779541,-1.023930549621582,-1.2522681951522827,0.7300000000000004
0.4357450008392334,-0.556793212890625,-0.9250005483627319,0.7400000000000004
0.5104660987854004,-0.5955095291137695,-0.687768816947937,0.7500000000000004
2.3093249797821045,-1.1334857940673828,0.8188425302505493,0.7600000000000005
2.4738271236419678,-1.3797407150268555,1.2941102981567383,0.7700000000000005
2.411067485809326,-1.5675630569458008,1.0499452352523804,0.7800000000000005
2.305032253265381,-1.714979648590088,0.624492883682251,0.7900000000000005
2.096149444580078,-1.6410913467407227,0.2663804888725281,0.8000000000000005
1.6829204559326172,-1.272496223449707,0.18477052450180054,0.8100000000000005
1.7484891414642334,-0.8366613388061523,0.8061094284057617,0.8200000000000005
1.872704029083252,-0.5131044387817383,1.4443529844284058,0.8300000000000005
1.5909900665283203,-0.5385112762451172,1.4508893489837646,0.8400000000000005
1.0018105506896973,-0.8983993530273438,1.0172847509384155,0.8500000000000005
0.43909406661987305,-1.3567109107971191,0.06997129321098328,0.8600000000000005
0.3592836856842041,-1.575270652770996,-0.3130134642124176,0.8700000000000006
1.3909406661987305,-1.4881014823913574,-0.11996546387672424,0.8800000000000006
2.3848845958709717,-1.4151701927185059,0.11018100380897522,0.8900000000000006
3.0136845111846924,-1.3235368728637695,-0.3738556504249573,0.9000000000000006
3.265035629272461,-1.4287300109863281,-1.0522587299346924,0.9100000000000006
3.336008310317993,-1.7166142463684082,-0.5681659579277039,0.9200000000000006
4.269808292388916,-1.9525165557861328,0.7700291872024536,0.9300000000000006
5.4976091384887695,-1.4902896881103516,2.1437034606933594,0.9400000000000006
5.357760906219482,-0.61456298828125,2.1051454544067383,0.9500000000000006
5.0138468742370605,0.19999217987060547,0.6733129024505615,0.9600000000000006
5.209799766540527,0.38799190521240234,-0.1803697943687439,0.9700000000000006
4.989081382751465,0.8615350723266602,-0.09032487869262695,0.9800000000000006
4.82164192199707,0.7853107452392578,-0.5246852040290833,0.9900000000000007
4.822782516479492,0.7822437286376953,-0.5590644478797913,1.0000000000000007
3.1390841007232666,0.2834024429321289,-2.0839552879333496,1.0100000000000007
2.785369634628296,1.6637639999389648,-0.5719011425971985,1.0200000000000007
1.990363597869873,3.7614898681640625,2.1285250186920166,1.0300000000000007
0.5805509090423584,6.171136856079102,3.2778971195220947,1.0400000000000007
-0.4713320732116699,7.862207412719727,2.0146052837371826,1.0500000000000007
-0.5053074359893799,8.544413566589355,0.38850170373916626,1.0600000000000007
-0.2483823299407959,8.428433418273926,-0.6739395260810852,1.0700000000000007
-0.17386102676391602,8.043728828430176,-0.7792469263076782,1.0800000000000007
-1.3682975769042969,8.52248764038086,0.05420798063278198,1.0900000000000007
-2.266968011856079,8.67946720123291,0.6795101165771484,1.1000000000000008
-3.1907858848571777,8.137072563171387,0.48776912689208984,1.1100000000000008
-2.812554359436035,6.098517417907715,0.5504153966903687,1.1200000000000008
-2.518085479736328,4.238231658935547,0.5121253728866577,1.1300000000000008
-2.2788262367248535,2.395021438598633,0.13702726364135742,1.1400000000000008
-2.313943862915039,1.4664239883422852,-0.38321077823638916,1.1500000000000008
-2.3015363216400146,0.9592623710632324,-0.6983258724212646,1.1600000000000008
-2.3181118965148926,0.7770247459411621,-0.9779537320137024,1.1700000000000008
-2.1083991527557373,0.6599087715148926,-1.0999881029129028,1.1800000000000008
-2.182358741760254,0.6880373954772949,-1.1633610725402832,1.1900000000000008
-2.198096990585327,0.5664043426513672,-1.6234066486358643,1.2000000000000008
-2.3270761966705322,0.19660282135009766,-2.209934711456299,1.2100000000000009
-2.4179465770721436,-0.39873504638671875,-2.578864574432373,1.2200000000000009
-2.1133973598480225,-1.342947006225586,-2.705322027206421,1.2300000000000009
-1.5911610126495361,-2.2617363929748535,-2.581742525100708,1.2400000000000009
-1.2820415496826172,-2.6634020805358887,-2.427013635635376,1.2500000000000009
-1.3852038383483887,-2.885744571685791,-2.6082303524017334,1.260000000000001
-1.9320025444030762,-2.731456756591797,-2.7871742248535156,1.270000000000001
-2.4650843143463135,-2.508239269256592,-2.653297185897827,1.280000000000001
-2.9442875385284424,-2.340425491333008,-2.430814266204834,1.290000000000001
-3.530592441558838,-2.1787819862365723,-2.3719961643218994,1.300000000000001
-3.8755908012390137,-2.133005142211914,-2.36649227142334,1.310000000000001
-4.197842597961426,-2.2191786766052246,-2.121126174926758,1.320000000000001
-4.458732604980469,-2.340019702911377,-2.0627808570861816,1.330000000000001
-4.9102630615234375,-2.5904746055603027,-1.790038824081421,1.340000000000001
-5.334280014038086,-2.8668527603149414,-1.4895107746124268,1.350000000000001
-5.740161418914795,-3.2075352668762207,-1.1839301586151123,1.360000000000001
-5.755930423736572,-3.563443183898926,-0.8193504810333252,1.370000000000001
-5.139832496643066,-3.9302027225494385,-0.35008907318115234,1.380000000000001
-4.260532855987549,-4.1768341064453125,0.05914306640625,1.390000000000001
-3.292905569076538,-4.252589702606201,0.38652539253234863,1.400000000000001
-2.1546106338500977,-4.145362854003906,0.5696473121643066,1.410000000000001
-0.5828413963317871,-3.47123384475708,0.7189929485321045,1.420000000000001
0.9664316177368164,-2.1143736839294434,0.8650221824645996,1.430000000000001
2.726245403289795,0.28560876846313477,1.1359400749206543,1.440000000000001
5.637966632843018,3.292603015899658,4.874427795410156,1.450000000000001
9.87110424041748,6.047794342041016,7.849774360656738,1.460000000000001
10.989267349243164,7.201345443725586,6.006492614746094,1.470000000000001
11.058048248291016,6.678646087646484,3.909757137298584,1.480000000000001
9.271108627319336,4.5642499923706055,2.2752954959869385,1.490000000000001
6.741080284118652,1.7931995391845703,2.02042555809021,1.500000000000001
4.0907487869262695,-0.36570215225219727,2.128951072692871,1.5100000000000011
1.8988032341003418,-1.5969657897949219,1.6472036838531494,1.5200000000000011
-0.49133825302124023,-2.4356136322021484,1.0344970226287842,1.5300000000000011
-2.430119276046753,-1.9240660667419434,0.7651138305664062,1.5400000000000011
-2.2471680641174316,0.6383638381958008,0.6153383255004883,1.5500000000000012
-1.925443410873413,6.735215663909912,0.18495464324951172,1.5600000000000012
-1.313621997833252,8.358831405639648,-3.544971227645874,1.5700000000000012
-1.5746288299560547,9.754209518432617,-6.276132106781006,1.5800000000000012
-4.157103538513184,11.187105178833008,-7.463440895080566,1.5900000000000012
-6.635382652282715,10.8059663772583,-8.036252975463867,1.6000000000000012
-5.636681079864502,8.159552574157715,-8.75986099243164,1.6100000000000012
-4.072094440460205,5.667259216308594,-6.912174224853516,1.6200000000000012
-0.7708311080932617,2.84378719329834,5.0868425369262695,1.6300000000000012
-2.0829365253448486,0.03249931335449219,15.39279842376709,1.6400000000000012
-6.801619529724121,-2.648003578186035,-1.8954941034317017,1.6500000000000012
-5.4371161460876465,-3.2438883781433105,-11.976506233215332,1.6600000000000013
-3.6477441787719727,-2.3354034423828125,-12.294687271118164,1.6700000000000013
-3.5847020149230957,-1.8894433975219727,-10.090867042541504,1.6800000000000013
-4.119275093078613,-1.2962069511413574,-7.29216194152832,1.6900000000000013
-4.22104024887085,0.6768093109130859,-5.198286056518555,1.7000000000000013
-3.4037866592407227,2.914639472961426,-3.2551980018615723,1.7100000000000013
-0.038767337799072266,4.213852882385254,3.6482832431793213,1.7200000000000013
0.9367809295654297,3.8331594467163086,4.207275390625,1.7300000000000013
-1.3972158432006836,3.180424690246582,-1.2473441362380981,1.7400000000000013
-1.5653924942016602,2.2037200927734375,-4.278959274291992,1.7500000000000013
-0.708611249923706,0.4661550521850586,-5.303816795349121,1.7600000000000013
-0.1401662826538086,-1.1558270454406738,-5.718686103820801,1.7700000000000014
-0.2327561378479004,-2.652398109436035,-4.334266662597656,1.7800000000000014
-0.4227120876312256,-4.187234401702881,0.5336670875549316,1.7900000000000014
-0.645064115524292,-5.237024307250977,2.320002555847168,1.8000000000000014
-0.9598886966705322,-4.95394229888916,0.17057394981384277,1.8100000000000014
-1.1867635250091553,-3.9215903282165527,-1.8153414726257324,1.8200000000000014
-1.2392802238464355,-2.711484432220459,-2.8931753635406494,1.8300000000000014
-0.8626890182495117,-1.5023274421691895,-3.521739959716797,1.8400000000000014
0.008045196533203125,-1.1419925689697266,-2.793919086456299,1.8500000000000014
1.4689879417419434,-1.2512893676757812,-0.7840372323989868,1.8600000000000014
2.704857349395752,-1.457313060760498,1.49428129196167,1.8700000000000014
3.186290740966797,-1.6073551177978516,2.7751479148864746,1.8800000000000014
3.0367259979248047,-1.6149344444274902,2.418170213699341,1.8900000000000015
2.4449522495269775,-1.5154170989990234,0.937721848487854,1.9000000000000015
1.7743639945983887,-1.41688871383667,-0.0743514895439148,1.9100000000000015
1.150313138961792,-1.4815449714660645,-0.18472492694854736,1.9200000000000015
0.6153564453125,-1.268174171447754,0.23929983377456665,1.9300000000000015
0.7259221076965332,-0.7218742370605469,0.4687049984931946,1.9400000000000015
1.0932354927062988,-0.09469318389892578,0.935976505279541,1.9500000000000015
1.341736078262329,0.6578035354614258,1.624208927154541,1.9600000000000015
1.5612802505493164,1.0944299697875977,1.6978936195373535,1.9700000000000015
1.7747247219085693,1.285196304321289,1.242537498474121,1.9800000000000015
1.8938355445861816,1.108351707458496,0.5798825025558472,1.9900000000000015
2.535447835922241,0.44609832763671875,-0.16983383893966675,2.0000000000000013
2.9520137310028076,-0.4695320129394531,-0.08759862184524536,2.010000000000001
3.529100179672241,-1.430891990661621,0.05720067024230957,2.020000000000001
3.9538676738739014,-2.2668848037719727,0.24231398105621338,2.0300000000000007
4.184340476989746,-2.7943801879882812,0.9525440335273743,2.0400000000000005
4.3792314529418945,-2.5482397079467773,1.8395261764526367,2.0500000000000003
4.312484264373779,-1.300802230834961,2.614697217941284,2.06
4.289029598236084,-0.12696552276611328,2.8678629398345947,2.07
4.113953590393066,0.6354446411132812,1.8639756441116333,2.0799999999999996
4.149204254150391,0.6366090774536133,1.938783049583435,2.0899999999999994
4.50482177734375,1.3696231842041016,-0.056578993797302246,2.099999999999999
3.781712770462036,1.276289939880371,-0.890088677406311,2.109999999999999
2.965463876724243,0.5585556030273438,-1.0154168605804443,2.1199999999999988
1.8772192001342773,0.40462493896484375,-0.8035014867782593,2.1299999999999986
1.310976266860962,1.7053937911987305,-0.08815902471542358,2.1399999999999983
1.2734975814819336,3.4091081619262695,0.1874326467514038,2.149999999999998
1.495924949645996,4.210111618041992,0.35192739963531494,2.159999999999998
1.5140447616577148,5.554875373840332,1.486368179321289,2.1699999999999977
1.113790512084961,7.27156925201416,1.785560131072998,2.1799999999999975
0.9476442337036133,8.085851669311523,0.7998974919319153,2.1899999999999973
1.1519784927368164,8.316396713256836,-0.3671261668205261,2.199999999999997
1.1262595653533936,8.475642204284668,-1.0190885066986084,2.209999999999997
0.2782630920410156,8.734506607055664,-0.9661941528320312,2.2199999999999966
-0.600919246673584,8.800707817077637,0.0337371826171875,2.2299999999999964
-1.6129519939422607,7.566671371459961,1.4674047231674194,2.239999999999996
-1.9359138011932373,4.431804656982422,1.7931462526321411,2.249999999999996
-2.0891406536102295,0.9969272613525391,0.694440484046936,2.259999999999996
-2.22514009475708,-0.6318678855895996,-0.6427856683731079,2.2699999999999956
-2.1575794219970703,-1.307856559753418,-1.472435712814331,2.2799999999999954
-2.028459310531616,-1.5630526542663574,-1.905760645866394,2.289999999999995
-1.9117977619171143,-1.5153918266296387,-2.131997585296631,2.299999999999995
-2.0228207111358643,-1.430408000946045,-1.9349336624145508,2.3099999999999947
-2.296192169189453,-1.397244930267334,-1.6234073638916016,2.3199999999999945
-2.4002139568328857,-1.5096960067749023,-1.4242675304412842,2.3299999999999943
-2.474484443664551,-1.67225980758667,-1.4166595935821533,2.339999999999994
-2.3869664669036865,-1.890054702758789,-1.7324488162994385,2.349999999999994
-2.3004798889160156,-2.0001163482666016,-2.5409433841705322,2.3599999999999937
-2.521341323852539,-1.965205192565918,-3.2623493671417236,2.3699999999999934
-2.939220428466797,-1.9063048362731934,-3.7993593215942383,2.3799999999999932
-3.1080522537231445,-1.9149408340454102,-3.77116322517395,2.389999999999993
-2.960209369659424,-2.1648807525634766,-3.224612236022949,2.399999999999993
-2.8740086555480957,-2.429917812347412,-2.9117352962493896,2.4099999999999926
-3.0281572341918945,-2.5550875663757324,-2.7193045616149902,2.4199999999999924
-3.925598621368408,-2.418851852416992,-2.5278825759887695,2.429999999999992
-5.123065948486328,-2.01362943649292,-2.386054515838623,2.439999999999992
-6.293571949005127,-1.7769145965576172,-2.129117488861084,2.4499999999999917
-7.085602760314941,-1.7568931579589844,-1.6009718179702759,2.4599999999999915
-6.907863616943359,-1.9860072135925293,-1.0647473335266113,2.4699999999999913
-6.336330413818359,-2.2487034797668457,-0.7187092304229736,2.479999999999991
-6.042021751403809,-2.4489407539367676,-0.6434509754180908,2.489999999999991
-5.761541366577148,-2.699061393737793,-0.6391310691833496,2.4999999999999907
-5.230905532836914,-3.0112433433532715,-0.15670228004455566,2.5099999999999905
-4.22691535949707,-3.2380757331848145,0.5699129104614258,2.5199999999999902
-2.591827154159546,-2.655372142791748,1.6480484008789062,2.52999999999999
-0.7374224662780762,-0.9187979698181152,2.726125955581665,2.53999999999999
1.8130955696105957,2.2714576721191406,3.4967575073242188,2.5499999999999896
7.600994110107422,5.428757667541504,10.716766357421875,2.5599999999999894
12.312034606933594,7.530032157897949,10.671789169311523,2.569999999999989
12.163904190063477,9.19144058227539,4.66489315032959,2.579999999999989
11.719562530517578,8.589051246643066,1.4532368183135986,2.5899999999999888
10.797318458557129,5.385985374450684,-0.17871379852294922,2.5999999999999885
7.060673236846924,1.503854751586914,-0.8000390529632568,2.6099999999999883
3.9969325065612793,-1.4100017547607422,0.1961362361907959,2.619999999999988
2.5468263626098633,-2.3011374473571777,0.8120183944702148,2.629999999999988
2.5722885131835938,1.253366470336914,1.6904921531677246,2.6399999999999877
3.709181785583496,7.481058120727539,2.7952375411987305,2.6499999999999875
2.0664234161376953,12.019908905029297,1.7734060287475586,2.6599999999999873
-2.575377941131592,11.203104019165039,-5.749998092651367,2.669999999999987
-5.677354335784912,6.793456077575684,-10.423491477966309,2.679999999999987
-6.091626167297363,4.103299140930176,-10.370285987854004,2.6899999999999866
-5.865590572357178,1.3973712921142578,-8.545679092407227,2.6999999999999864
-5.597472190856934,-0.9823145866394043,-4.017269611358643,2.709999999999986
-5.342679500579834,-1.4923176765441895,14.687797546386719,2.719999999999986
-5.409233093261719,-1.9221153259277344,9.994352340698242,2.7299999999999858
-5.764314651489258,-2.159205913543701,-5.6944379806518555,2.7399999999999856
-4.771366596221924,-1.9669170379638672,-10.342583656311035,2.7499999999999853
-3.789254665374756,-1.1573982238769531,-9.823447227478027,2.759999999999985
-3.707686424255371,-1.1904973983764648,-9.91240406036377,2.769999999999985
-4.745476722717285,1.618551254272461,-5.6849446296691895,2.7799999999999847
-4.733765125274658,3.7405996322631836,-4.574993133544922,2.7899999999999845
-4.017553329467773,5.547016143798828,-3.904500722885132,2.7999999999999843
-3.2089061737060547,6.196934700012207,-3.7036538124084473,2.809999999999984
-2.183610200881958,5.289107322692871,-3.4276063442230225,2.819999999999984
-1.1890826225280762,3.5132055282592773,-2.5879602432250977,2.8299999999999836
-0.44715142250061035,1.6409969329833984,-1.7192234992980957,2.8399999999999834
-0.35052943229675293,1.5639114379882812,-1.6286654472351074,2.849999999999983
0.0224761962890625,-2.121032238006592,-0.4500143527984619,2.859999999999983
-0.4814796447753906,-3.073117256164551,-0.29228901863098145,2.869999999999983
-1.1133699417114258,-3.9691853523254395,-0.22181403636932373,2.8799999999999826
-1.1347451210021973,-4.236490249633789,-0.5258680582046509,2.8899999999999824
-0.6152067184448242,-3.328599452972412,-0.9811272621154785,2.899999999999982
-0.288832426071167,-2.2198328971862793,-1.500272512435913,2.909999999999982
-0.09089875221252441,-1.3196139335632324,-2.855396032333374,2.9199999999999817
0.1970834732055664,-1.0440053939819336,-3.3123977184295654,2.9299999999999815
1.1024127006530762,-1.2588329315185547,-2.3260176181793213,2.9399999999999813
2.0237412452697754,-1.431983470916748,-0.3341056704521179,2.949999999999981
2.6380670070648193,-1.621953010559082,1.3551546335220337,2.959999999999981
2.4973809719085693,-1.884340763092041,2.0153188705444336,2.9699999999999807
1.8139102458953857,-2.0730371475219727,1.5946192741394043,2.9799999999999804
1.3486754894256592,-2.181763172149658,0.6698538064956665,2.9899999999999802
0.8845510482788086,-2.0961098670959473,-0.0614621639251709,2.99999999999998
0.685683012008667,-1.887035846710205,-0.2000584602355957,3.00999999999998
0.8665761947631836,-1.551483154296875,0.17579495906829834,3.0199999999999796
1.1476480960845947,-1.2046480178833008,0.9935657978057861,3.0299999999999794
1.4460856914520264,-0.7901020050048828,1.3824543952941895,3.039999999999979
1.3661305904388428,-0.40977954864501953,0.9503636360168457,3.049999999999979
1.0640897750854492,-0.005240440368652344,0.6345111727714539,3.0599999999999787
0.801077127456665,0.26055049896240234,0.9197390675544739,3.0699999999999785
0.9229872226715088,0.45104503631591797,1.0794897079467773,3.0799999999999783
1.484877347946167,0.5824317932128906,0.6604151129722595,3.089999999999978
2.2492105960845947,0.5977010726928711,0.17947477102279663,3.099999999999978
2.7371675968170166,0.399993896484375,0.05192524194717407,3.1099999999999777
3.3073270320892334,-0.167633056640625,-0.10670292377471924,3.1199999999999775
3.785944700241089,-1.1560773849487305,0.3437790870666504,3.1299999999999772
4.171407699584961,-1.6514148712158203,1.0648562908172607,3.139999999999977
4.594669818878174,-1.4281206130981445,1.627476453781128,3.149999999999977
5.047353267669678,-0.48468685150146484,2.0261881351470947,3.1599999999999766
5.320687294006348,0.2360858917236328,1.5633563995361328,3.1699999999999764
5.411645889282227,0.6948413848876953,0.4792593717575073,3.179999999999976
5.396470069885254,0.6328125,0.3032264709472656,3.189999999999976
5.312265872955322,0.4201383590698242,0.6572401523590088,3.1999999999999758
4.976057529449463,0.20993900299072266,0.6717568635940552,3.2099999999999755
4.671176433563232,-0.2652425765991211,0.16729116439819336,3.2199999999999753
3.7962076663970947,-0.644989013671875,-0.4840165972709656,3.229999999999975
2.830915927886963,-0.46152496337890625,-0.11111336946487427,3.239999999999975
2.1254231929779053,1.5370702743530273,1.4486615657806396,3.2499999999999747
1.511962652206421,4.743743896484375,2.52707576751709,3.2599999999999745
0.38436222076416016,6.747772216796875,2.386772394180298,3.2699999999999743
-0.6416749954223633,7.249601364135742,1.0115575790405273,3.279999999999974
-1.2396290302276611,7.058192253112793,-0.23562626540660858,3.289999999999974
-1.8189678192138672,6.393428802490234,-0.6198544502258301,3.2999999999999736
-2.3548388481140137,5.611874580383301,-0.2960335910320282,3.3099999999999734
-2.4326915740966797,5.365970611572266,0.012631058692932129,3.319999999999973
-2.266746997833252,5.412226676940918,0.16510522365570068,3.329999999999973
-1.77197265625,5.381155967712402,0.651907205581665,3.3399999999999728
-1.5369009971618652,4.992134094238281,1.0204918384552002,3.3499999999999726
-1.0759246349334717,3.2402706146240234,1.379062533378601,3.3599999999999723
-1.0168437957763672,1.6492414474487305,1.162044644355774,3.369999999999972
-1.6893751621246338,1.0821409225463867,0.739057183265686,3.379999999999972
-1.5965335369110107,0.5069341659545898,-0.13999497890472412,3.3899999999999717
-0.9228239059448242,0.027683258056640625,-0.8721391558647156,3.3999999999999715
-0.6214027404785156,-0.11766815185546875,-1.094570517539978,3.4099999999999713
-0.49868345260620117,-0.26899003982543945,-1.4017677307128906,3.419999999999971
-0.448850154876709,-0.6047277450561523,-1.6753203868865967,3.429999999999971
-0.5709900856018066,-1.043217658996582,-1.913433313369751,3.4399999999999706
-0.8219137191772461,-1.5857319831848145,-2.206019163131714,3.4499999999999704
-1.0518040657043457,-1.9577841758728027,-2.4874277114868164,3.45999999999997
-1.2377972602844238,-2.0476179122924805,-2.7456130981445312,3.46999999999997
-1.8709337711334229,-1.9171419143676758,-2.703601360321045,3.47999999999997
-2.73750376701355,-1.5347838401794434,-2.4913523197174072,3.4899999999999696
-3.2788171768188477,-1.2921113967895508,-2.350680351257324,3.4999999999999694
-3.528965473175049,-1.1378307342529297,-2.28554630279541,3.509999999999969
-3.8509678840637207,-1.017301082611084,-1.995145559310913,3.519999999999969
-4.157844066619873,-0.8640851974487305,-2.2945077419281006,3.5299999999999687
-4.843052864074707,-0.855952262878418,-2.435431957244873,3.5399999999999685
-5.6861090660095215,-1.2020235061645508,-2.376384735107422,3.5499999999999683
-6.324729919433594,-1.61000394821167,-2.232750415802002,3.559999999999968
-6.715887069702148,-2.051927089691162,-1.9135371446609497,3.569999999999968
-6.813555717468262,-2.6223907470703125,-1.414152979850769,3.5799999999999677
-6.540632724761963,-3.0999388694763184,-0.9203295707702637,3.5899999999999674
-5.985345840454102,-3.4758460521698,-0.5547845363616943,3.5999999999999672
-5.487195014953613,-3.5464954376220703,-0.18201565742492676,3.609999999999967
-4.933852672576904,-3.438119411468506,0.2675502300262451,3.619999999999967
-4.007047653198242,-3.3363447189331055,0.8924915790557861,3.6299999999999666
-2.3819968700408936,-2.9696879386901855,1.553316593170166,3.6399999999999664
-0.5639247894287109,-2.064603805541992,1.8831140995025635,3.649999999999966
1.3868889808654785,-0.1130666732788086,1.8346986770629883,3.659999999999966
4.516343593597412,3.2441091537475586,3.050103187561035,3.6699999999999657
9.59208869934082,6.007997512817383,8.82878303527832,3.6799999999999655
12.049375534057617,7.283866882324219,9.573909759521484,3.6899999999999653
11.625185012817383,7.03758430480957,5.857141494750977,3.699999999999965
12.066248893737793,5.310910224914551,3.047747850418091,3.709999999999965
8.817673683166504,1.817124366760254,0.44217658042907715,3.7199999999999647
4.952854633331299,-0.6826176643371582,1.2433781623840332,3.7299999999999645
2.176985740661621,-1.822864055633545,1.7776679992675781,3.7399999999999642
-0.4665226936340332,-2.3797688484191895,1.748476505279541,3.749999999999964
-2.7899527549743652,-2.8539133071899414,2.4750964641571045,3.759999999999964
-3.5424981117248535,-2.831749439239502,2.870314359664917,3.7699999999999636
-2.1610169410705566,0.3711099624633789,2.719180107116699,3.7799999999999634
-0.5450706481933594,6.891448020935059,2.2395029067993164,3.789999999999963
0.4184422492980957,10.049893379211426,-1.5337364673614502,3.799999999999963
-0.5700416564941406,11.701942443847656,-4.654858589172363,3.8099999999999627
-5.555159091949463,12.014618873596191,-7.058921813964844,3.8199999999999625
-8.892501831054688,8.271536827087402,-7.244060039520264,3.8299999999999623
-7.475494384765625,3.2906627655029297,-8.179366111755371,3.839999999999962
-4.683619022369385,0.3317718505859375,-8.097600936889648,3.849999999999962
-2.6183624267578125,-0.6021876335144043,-6.071378231048584,3.8599999999999617
1.6891794204711914,-1.5726819038391113,4.088746070861816,3.8699999999999615
-0.9886410236358643,-2.491450309753418,5.5537109375,3.8799999999999613
-4.272119522094727,-3.06099796295166,-1.9187244176864624,3.889999999999961
-4.492431163787842,-2.362177848815918,-7.140716075897217,3.899999999999961
-3.16392183303833,-1.036308765411377,-8.176859855651855,3.9099999999999606
-2.7896065711975098,0.013484001159667969,-7.465409278869629,3.9199999999999604
-2.732386589050293,1.5317411422729492,-5.902219295501709,3.92999999999996
-1.466005802154541,3.2526473999023438,-2.323331832885742,3.93999999999996
0.8836278915405273,3.4427967071533203,1.615574598312378,3.9499999999999598
1.4906554222106934,2.7781543731689453,1.4129199981689453,3.9599999999999596
-0.13333725929260254,2.0355587005615234,-2.525568723678589,3.9699999999999593
-0.8343119621276855,1.0633869171142578,-4.884739875793457,3.979999999999959
-0.48181939125061035,-0.3812112808227539,-4.657794952392578,3.989999999999959
0.1503129005432129,-2.2137722969055176,-1.998002290725708,3.9999999999999587
