AccX,AccY,AccZ,stepCount
2.955998659133911,2.437211036682129,0.7855269908905029,2.714677333831787
2.8277411460876465,2.7528676986694336,0.9513235092163086,-0.10828796029090881
2.8672900199890137,2.2218151092529297,1.1083688735961914,2.3607306480407715
2.5833740234375,2.497288703918457,0.6871781349182129,-4.854451656341553
2.8326501846313477,2.119823455810547,0.3001083731651306,-1.8699815273284912
2.6911356449127197,2.0777587890625,-0.13016313314437866,3.296645164489746
2.577479600906372,1.8064775466918945,-0.5089040994644165,-1.893784523010254
2.5669400691986084,1.480865478515625,-0.5609498023986816,0
2.193880319595337,1.1823453903198242,-0.8254404067993164,0
1.8387181758880615,0.9062376022338867,-1.1646581888198853,0
1.6723241806030273,0.5761079788208008,-1.3556994199752808,0
1.2743360996246338,0.0295867919921875,-1.572835087776184,0
0.709470272064209,-0.4292116165161133,-1.9213883876800537,0
0.1572977900505066,-0.6878452301025391,-2.0811002254486084,0
-0.22336038947105408,-0.9926595687866211,-2.2104711532592773,0
-0.6849473714828491,-1.1258678436279297,-2.1730189323425293,0
-1.12849760055542,-1.1138334274291992,-2.0759425163269043,0
-1.4650827646255493,-1.0665740966796875,-1.8921451568603516,0
-1.988967776298523,-1.0223255157470703,-1.5743443965911865,0
-2.391355037689209,-0.8975229263305664,-1.2132248878479004,0
-2.7180063724517822,-0.7834281921386719,-0.9872987270355225,0
-2.98917293548584,-0.5751562118530273,-0.8365240097045898,0
-2.9741415977478027,-0.45481300354003906,-0.7402876615524292,0
-2.8734331130981445,-0.36992740631103516,-0.6378869414329529,0
-2.5840556621551514,-0.19637584686279297,-0.44724392890930176,0
-2.294340133666992,-0.04440879821777344,-0.3383150100708008,0
-2.0123891830444336,0.2294597625732422,-0.3454180955886841,0
-1.8080284595489502,0.5055837631225586,-0.37146127223968506,0
-1.6545344591140747,0.8057785034179688,-0.5070160627365112,0
-1.6530553102493286,1.0684089660644531,-0.6881545782089233,0
-1.7558016777038574,1.3324108123779297,-0.745785117149353,0
-1.9175219535827637,1.5312747955322266,-0.5384248495101929,0
-2.181572198867798,1.818110466003418,-0.2646515369415283,0
-2.470212697982788,2.070591926574707,-0.03307676315307617,0
-2.9121828079223633,2.391298294067383,-0.031131505966186523,0
-3.0529158115386963,2.794283866882324,-0.32208895683288574,0
-2.7587924003601074,3.0641088485717773,-0.7829530239105225,0
-2.3297111988067627,3.179337501525879,-1.4321262836456299,0
-1.5608241558074951,3.1259078979492188,-2.071000576019287,0
-0.8291402459144592,3.0764570236206055,-2.6642751693725586,0
-0.265308141708374,2.7490758895874023,-2.9516971111297607,0
0.007202804088592529,2.223036766052246,-2.99786639213562,0
0.13798466324806213,1.5677614212036133,-2.733013391494751,0
0.28906893730163574,0.7977914810180664,-2.387033700942993,0
-0.002571403980255127,-0.09189796447753906,-1.87037193775177,0
-0.2663698196411133,-0.3805427551269531,-1.6125032901763916,0
0.07227879762649536,-0.5692129135131836,-1.6863420009613037,0
0.10519745945930481,-0.9880466461181641,-1.764296054840088,0
0.015221714973449707,-1.6104669570922852,-1.7152292728424072,0
-0.19882524013519287,-2.0944480895996094,-1.709179401397705,0
-0.40421339869499207,-2.5909194946289062,-1.861008644104004,0
-0.7866554260253906,-3.2245378494262695,-1.9167311191558838,0
-0.9723718166351318,-3.832981586456299,-1.8831126689910889,0
-1.0091381072998047,-4.478597640991211,-1.8105227947235107,0
-1.044351577758789,-5.058100700378418,-2.03020977973938,0
-1.0811127424240112,-5.604679107666016,-2.4281675815582275,0
-1.0180656909942627,-6.063422679901123,-2.5548887252807617,0
-1.0205386877059937,-6.350898742675781,-2.5564496517181396,0
-1.0391323566436768,-6.3478803634643555,-2.368309497833252,0
-0.862250804901123,-6.009547710418701,-2.126560926437378,0
-0.9142909646034241,-5.511317253112793,-1.9643940925598145,0
-0.9011013507843018,-4.935248851776123,-1.8186581134796143,0
-0.8949313163757324,-4.425261497497559,-1.7939846515655518,0
-1.037128210067749,-4.163071155548096,-1.8519065380096436,0
-1.1487680673599243,-4.021492958068848,-1.894561529159546,0
-1.2394933700561523,-3.9861373901367188,-1.9074947834014893,0
-1.2615282535552979,-4.12632942199707,-2.012514352798462,0
-1.256221055984497,-4.150094509124756,-1.958484172821045,0
-1.3265457153320312,-4.279998302459717,-1.7694013118743896,0
-1.3957173824310303,-4.449028491973877,-1.4907326698303223,0
-1.3678058385849,-4.659502983093262,-1.1584672927856445,0
-1.4004051685333252,-4.789369106292725,-0.8133721351623535,0
-1.4022185802459717,-4.797939300537109,-0.37435388565063477,0
-1.3349940776824951,-4.721203804016113,0.14420509338378906,0
-1.3638970851898193,-4.640585899353027,0.6156983375549316,0
-1.4080389738082886,-4.498619079589844,1.00205659866333,0
-1.3215677738189697,-4.333434581756592,1.2243614196777344,0
-1.2088570594787598,-4.261906147003174,1.265617847442627,0
-1.2491105794906616,-3.8530192375183105,1.4030508995056152,0
-0.8077822327613831,-3.6016225814819336,1.6691718101501465,0
-0.394732803106308,-3.4614338874816895,1.832839012145996,0
-0.36412450671195984,-3.1345553398132324,1.8439865112304688,0
-0.21900534629821777,-2.5965943336486816,2.109935760498047,0
-0.046808063983917236,-1.9668397903442383,2.4711127281188965,0
0.0814390778541565,-1.1649680137634277,2.04860782623291,0
0.25703686475753784,-0.18887805938720703,1.091310977935791,0
0.5146718621253967,1.0847387313842773,0.6954686641693115,0
1.3060717582702637,3.2611427307128906,1.1284902095794678,0
1.9852585792541504,6.597597122192383,2.5927040576934814,0
2.173616886138916,10.152430534362793,4.6589813232421875,0
1.4273896217346191,13.046361923217773,6.922364234924316,0
1.22346830368042,12.334382057189941,8.778525352478027,0
1.8720951080322266,9.637887954711914,9.413860321044922,0
2.1821069717407227,6.944211006164551,8.321693420410156,0
2.3050425052642822,4.342860221862793,6.909419059753418,0
2.1879985332489014,1.7659454345703125,5.211702346801758,0
1.899308681488037,-0.32598209381103516,3.172811985015869,0
1.143402338027954,-1.2854604721069336,1.4505372047424316,0
0.17955106496810913,-0.5364618301391602,0.28188276290893555,0
-0.6642435789108276,1.7094221115112305,-0.9870040416717529,0
-1.2223862409591675,4.8674421310424805,-2.501147747039795,0
-1.8550260066986084,7.7975568771362305,-4.291391849517822,0
-2.639406204223633,9.683320999145508,-5.475625514984131,0
-3.6516504287719727,10.406597137451172,-5.691102027893066,0
-4.574618816375732,9.78722858428955,-5.620082855224609,0
-5.729741096496582,8.674036979675293,-4.899228096008301,0
-7.694875717163086,7.50832462310791,-3.6176021099090576,0
-9.123062133789062,6.157193183898926,-2.321518659591675,0
-8.69063663482666,4.659867286682129,-0.8832530975341797,0
-7.553820610046387,3.7130117416381836,1.2077851295471191,0
-5.658437728881836,3.2569189071655273,2.7079124450683594,0
-2.8127450942993164,2.584188461303711,2.826596260070801,0
-1.212060570716858,1.7061481475830078,0.7076520919799805,0
-1.8362467288970947,0.9727544784545898,-1.98606276512146,0
-2.471524715423584,0.3038482666015625,-4.020159721374512,0
-2.391319990158081,0.1207876205444336,-4.713958263397217,0
-2.3155033588409424,0.4760723114013672,-4.505586624145508,0
-2.1610360145568848,1.2334966659545898,-4.14312219619751,0
-1.5734858512878418,2.0452957153320312,-4.287222385406494,0
-0.8111467957496643,2.68593692779541,-4.753690719604492,0
0.15371102094650269,3.1912031173706055,-5.182536602020264,0
0.9149717688560486,3.429661750793457,-5.518012046813965,0
1.4940483570098877,3.3108911514282227,-5.4654459953308105,0
1.6954174041748047,2.776230812072754,-5.6403961181640625,0
1.6405034065246582,1.9611387252807617,-5.673526763916016,0
1.48500657081604,1.013005256652832,-5.497890949249268,0
1.1442331075668335,0.23399925231933594,-5.148910045623779,0
0.7122186422348022,-0.33266162872314453,-4.728145122528076,0
0.3549696207046509,-0.6537809371948242,-4.34823751449585,0
0.0471264123916626,-0.8205757141113281,-3.9949235916137695,0
-0.3427075743675232,-1.0293655395507812,-3.601137161254883,0
-0.635107159614563,-1.172842025756836,-3.1373579502105713,0
-0.8659965991973877,-1.4213018417358398,-2.6981067657470703,0
-0.8626893758773804,-1.6553592681884766,-2.3662796020507812,0
-0.9624314308166504,-1.7626943588256836,-2.146231174468994,0
-0.7103796601295471,-1.8700108528137207,-2.069291591644287,0
-0.3749948740005493,-1.8883066177368164,-2.1245386600494385,0
0.08859503269195557,-1.9007148742675781,-2.174777030944824,0
0.33550047874450684,-1.9067254066467285,-2.1305723190307617,0
0.5213619470596313,-1.9251904487609863,-1.9763129949569702,0
0.5867387056350708,-1.977529525756836,-1.7629859447479248,0
0.6045373678207397,-1.9203681945800781,-1.507755160331726,0
0.4372842311859131,-1.962141990661621,-1.272865653038025,0
0.02092874050140381,-2.0360021591186523,-1.1034409999847412,0
-0.3573777675628662,-2.0847158432006836,-1.0802870988845825,0
-0.4750401973724365,-2.2089109420776367,-1.1552199125289917,0
-0.49407315254211426,-2.391894817352295,-1.3021305799484253,0
-0.5666645169258118,-2.4162368774414062,-1.2746641635894775,0
-0.6618504524230957,-2.437547206878662,-1.369783878326416,0
-0.6145366430282593,-2.2551116943359375,-1.3169479370117188,0
-0.6811887621879578,-2.19691801071167,-1.1778159141540527,0
-0.6974448561668396,-1.944833755493164,-1.0356266498565674,0
-0.5825690031051636,-1.6043963432312012,-0.8323591947555542,0
-0.5070469379425049,-1.4197301864624023,-0.6293220520019531,0
-0.33501458168029785,-1.2878446578979492,-0.5407949686050415,0
0.004569411277770996,-1.1129846572875977,-0.3583080768585205,0
0.3651401996612549,-0.902099609375,-0.23837006092071533,0
0.5485936403274536,-0.6551189422607422,-0.0910254716873169,0
0.5699057579040527,-0.6112909317016602,0.04542434215545654,0
0.7599742412567139,-0.715580940246582,0.03276979923248291,0
0.798291802406311,-0.9344072341918945,-0.12613177299499512,0
1.0010374784469604,-1.0190401077270508,-0.23486816883087158,0
1.155386209487915,-1.2566280364990234,-0.2742801904678345,0
1.3138816356658936,-1.3934850692749023,-0.3306248188018799,0
1.3829129934310913,-1.5803594589233398,-0.3151458501815796,0
1.4867159128189087,-1.7095766067504883,-0.2683757543563843,0
1.5367822647094727,-1.8194589614868164,-0.30276304483413696,0
1.564182162284851,-1.8382863998413086,-0.3248598575592041,0
1.5017032623291016,-1.80198335647583,-0.30598509311676025,0
1.5429587364196777,-1.7081761360168457,-0.2750314474105835,0
1.508142352104187,-1.5903081893920898,-0.3136957883834839,0
1.5047212839126587,-1.5272741317749023,-0.20202064514160156,0
1.472658634185791,-1.49505615234375,-0.1435154676437378,0
1.421759843826294,-1.4529991149902344,-0.018629908561706543,0
1.3307065963745117,-1.4035367965698242,0.09838569164276123,0
1.3145190477371216,-1.3921279907226562,0.2240886092185974,0
1.1675947904586792,-1.3828744888305664,0.26985734701156616,0
1.0742685794830322,-1.3924922943115234,0.2114056944847107,0
0.9913450479507446,-1.3420372009277344,0.14669525623321533,0
0.8542187213897705,-1.3320322036743164,0.11646425724029541,0
0.7036745548248291,-1.2022428512573242,0.13737255334854126,0
0.6711320877075195,-1.0795354843139648,0.13024765253067017,0
0.5768152475357056,-0.9208345413208008,0.22886037826538086,0
0.5116060972213745,-0.7285852432250977,0.3541489541530609,0
0.4633246660232544,-0.5769443511962891,0.33614182472229004,0
0.4581787586212158,-0.47306060791015625,0.3905571699142456,0
0.43372035026550293,-0.48623180389404297,0.36012735962867737,0
0.46165430545806885,-0.4991788864135742,0.2791098952293396,0
0.44620847702026367,-0.4258270263671875,0.14293965697288513,0
0.40885472297668457,-0.2854137420654297,0.028516709804534912,0
0.3877086639404297,-0.1330108642578125,0.003030925989151001,0
0.2534836530685425,0.11028575897216797,-0.08407007157802582,0
0.1976689100265503,0.3463144302368164,-0.0076485127210617065,0
0.12450909614562988,0.45552730560302734,0.18474648892879486,0
0.074459969997406,0.7059183120727539,0.31109315156936646,0
0.09775370359420776,0.9586324691772461,0.34489259123802185,0
0.1562078595161438,1.2016992568969727,0.4007508456707001,0
0.28080111742019653,1.4973087310791016,0.45188474655151367,0
0.428646445274353,1.7066850662231445,0.3086925148963928,0
0.7196862697601318,1.9542226791381836,0.2505544424057007,0
0.9939573407173157,2.356985092163086,0.21247491240501404,0
1.4965190887451172,2.3168907165527344,0.3360360860824585,0
1.528594732284546,2.8985376358032227,0.11544753611087799,0
1.8820903301239014,3.2068653106689453,0.11000833660364151,0
2.1187150478363037,3.3020029067993164,0.13782912492752075,0
2.257645606994629,3.203352928161621,0.32148277759552,0
2.3057503700256348,3.1479034423828125,0.5868158340454102,0
2.540346622467041,2.996908187866211,0.837705135345459,0
2.666696786880493,3.035036087036133,1.0858968496322632,0
2.9193644523620605,2.7909812927246094,1.4605447053909302,0
2.984429121017456,2.7528905868530273,1.5544382333755493,0
3.014559030532837,2.820094108581543,1.7334327697753906,0
3.1480863094329834,2.758146286010742,1.9616475105285645,0
3.1690006256103516,2.9832849502563477,1.9517302513122559,0
3.292614221572876,2.8591089248657227,2.098543167114258,0
3.343777656555176,3.0985946655273438,1.7958474159240723,0
3.492582321166992,3.074796676635742,1.6894582509994507,0
3.5477242469787598,3.1562795639038086,1.5900959968566895,0
3.5301995277404785,3.254474639892578,1.140243411064148,0
3.583632469177246,3.2355079650878906,0.9767484664916992,0
3.542872428894043,3.1593809127807617,0.7342163324356079,0
3.3769378662109375,3.155353546142578,0.47787588834762573,0
3.181624412536621,2.5897531509399414,0.013727053999900818,0
2.7843894958496094,2.242879867553711,-0.45805221796035767,0
2.6811399459838867,1.7749748229980469,-0.8160030841827393,0
2.547255277633667,1.1838493347167969,-1.11566162109375,0
2.3286468982696533,0.5366830825805664,-1.5226013660430908,0
1.967958927154541,0.14457130432128906,-2.0115463733673096,0
1.696204662322998,-0.3824329376220703,-2.5595569610595703,0
1.2846410274505615,-0.8287467956542969,-3.1847715377807617,0
0.8059183359146118,-1.1679153442382812,-3.622044801712036,0
0.46008366346359253,-1.3927726745605469,-3.7051196098327637,0
-0.2688213586807251,-1.713754653930664,-3.6238019466400146,0
-1.1024973392486572,-1.7242107391357422,-3.3233485221862793,0
-1.9251340627670288,-1.5800361633300781,-3.01943302154541,0
-2.666806697845459,-1.410689353942871,-2.638260841369629,0
-3.2578892707824707,-1.1184511184692383,-2.1367602348327637,0
-3.708824634552002,-0.7397031784057617,-1.600652813911438,0
-3.914041042327881,-0.2557945251464844,-1.0918656587600708,0
-3.8142833709716797,0.5074548721313477,-0.7261161208152771,0
-3.55108380317688,1.1932125091552734,-0.3709491491317749,0
-3.198415756225586,1.789586067199707,-0.1512366533279419,0
-2.7266502380371094,2.2585744857788086,0.0392078161239624,0
-2.4405624866485596,2.7633190155029297,0.24810636043548584,0
-2.253418207168579,3.335404396057129,0.3860788345336914,0
-2.179537296295166,3.7098312377929688,0.45963621139526367,0
-2.1184000968933105,3.9611892700195312,0.6013138294219971,0
-2.3747799396514893,4.029820442199707,0.7179491519927979,0
-2.8858723640441895,4.131131172180176,0.6641623973846436,0
-3.4241929054260254,4.31056022644043,0.45470333099365234,0
-3.779268741607666,4.367276191711426,0.13748550415039062,0
-3.5939462184906006,4.251002311706543,-0.3176567554473877,0
-3.11193585395813,4.076745986938477,-1.1233919858932495,0
-2.4343454837799072,3.7899742126464844,-1.969345211982727,0
-1.6208884716033936,3.2213172912597656,-2.4781880378723145,0
-0.8866974115371704,2.5312366485595703,-2.5420639514923096,0
-0.16979533433914185,1.6405038833618164,-2.2338643074035645,0
-0.016910314559936523,0.9165258407592773,-1.9044830799102783,0
0.2763746976852417,0.3633108139038086,-2.0018465518951416,0
0.7218616008758545,-0.17673778533935547,-1.9119001626968384,0
0.874433159828186,-0.8442354202270508,-1.6477930545806885,0
0.8841364979743958,-1.4696197509765625,-1.1538488864898682,0
0.5383167266845703,-2.041741371154785,-0.9070160388946533,0
0.34135937690734863,-2.599881172180176,-0.8313198089599609,0
0.20440441370010376,-3.094632148742676,-0.9423527717590332,0
-0.06726950407028198,-3.5742340087890625,-1.2589924335479736,0
-0.27356982231140137,-3.998051166534424,-1.7386558055877686,0
-0.40139058232307434,-4.471386432647705,-2.001502752304077,0
-0.6445267200469971,-4.95576286315918,-2.172785758972168,0
-0.732114315032959,-5.508394241333008,-2.3226377964019775,0
-0.7878109812736511,-5.978599548339844,-2.3892009258270264,0
-0.9235052466392517,-6.366415500640869,-2.5929765701293945,0
-0.9764894247055054,-6.530821800231934,-2.6447207927703857,0
-0.9429421424865723,-6.4840497970581055,-2.5350468158721924,0
-0.8975811004638672,-6.2338080406188965,-2.2971608638763428,0
-1.0246886014938354,-5.909834861755371,-2.129106044769287,0
-1.1036607027053833,-5.698965072631836,-2.001851797103882,0
-1.2305221557617188,-5.314056873321533,-1.927466869354248,0
-1.2054160833358765,-4.898773193359375,-1.736067533493042,0
-1.2374703884124756,-4.517730712890625,-1.6022429466247559,0
-1.2080192565917969,-4.24733829498291,-1.4518218040466309,0
-1.2874350547790527,-4.085080623626709,-1.4067134857177734,0
-1.3702335357666016,-4.059476852416992,-1.4238653182983398,0
-1.4775367975234985,-4.12498140335083,-1.436208724975586,0
-1.5112392902374268,-4.243246078491211,-1.4197909832000732,0
-1.5409104824066162,-4.438138484954834,-1.3482520580291748,0
-1.5356848239898682,-4.685771465301514,-1.1926684379577637,0
-1.5868072509765625,-4.921576499938965,-0.9983506202697754,0
-1.5749552249908447,-5.167187690734863,-0.7913250923156738,0
-1.5533244609832764,-5.374855041503906,-0.5784201622009277,0
-1.6108747720718384,-5.453784942626953,-0.3641495704650879,0
-1.751929521560669,-5.430323600769043,-0.18204069137573242,0
-1.8301525115966797,-5.251836776733398,0.10892009735107422,0
-1.8625906705856323,-5.016439437866211,0.4560885429382324,0
-1.8924062252044678,-4.76230525970459,0.8785495758056641,0
-1.9339784383773804,-4.405512809753418,1.297144889831543,0
-1.8245227336883545,-4.029586315155029,1.728367805480957,0
-1.8415265083312988,-3.648362159729004,2.1188559532165527,0
-1.8383996486663818,-3.25150728225708,2.230527877807617,0
-1.650970458984375,-2.7880935668945312,2.4087939262390137,0
-1.0503652095794678,-2.2333474159240723,2.534012794494629,0
0.034532785415649414,-1.5785455703735352,2.080538272857666,0
1.173121690750122,-0.6799106597900391,0.8451817035675049,0
2.044884204864502,0.8072185516357422,-0.47695159912109375,0
2.5638411045074463,2.936314582824707,-0.6545581817626953,0
3.3727149963378906,5.993673324584961,0.5687682628631592,0
3.7416179180145264,9.79794979095459,3.1875600814819336,0
2.8954365253448486,13.93016529083252,6.915501594543457,0
0.49266356229782104,16.253570556640625,11.108840942382812,0
0.38161706924438477,15.03807258605957,12.638169288635254,0
0.925686776638031,13.093552589416504,11.502264022827148,0
1.404665470123291,11.187952995300293,9.463571548461914,0
1.1683268547058105,7.968540191650391,7.728004455566406,0
0.9162659645080566,3.571011543273926,6.033242225646973,0
1.662081241607666,-0.9219341278076172,4.054493427276611,0
2.35939359664917,-4.466163158416748,1.5975489616394043,0
2.017019748687744,-4.619915008544922,-0.14637422561645508,0
0.746281087398529,-1.3861908912658691,-1.6259427070617676,0
-0.36909860372543335,2.693084716796875,-3.356524705886841,0
-0.5510914325714111,6.398341178894043,-5.47166109085083,0
-1.1040533781051636,9.448018074035645,-6.935005187988281,0
-2.354222297668457,11.028634071350098,-7.535518646240234,0
-3.484006643295288,10.914909362792969,-7.525943756103516,0
-5.170942783355713,8.923822402954102,-7.153651237487793,0
-8.095479011535645,6.391419410705566,-6.237549781799316,0
-9.810928344726562,4.359925270080566,-4.841338634490967,0
-9.998047828674316,2.978801727294922,-3.834350109100342,0
-9.196834564208984,2.599569320678711,-2.8892722129821777,0
-7.333540916442871,3.7034387588500977,-0.7506835460662842,0
-5.260427951812744,5.202252388000488,0.6798996925354004,0
-3.1381874084472656,5.214286804199219,1.44685697555542,0
-1.766615390777588,3.4484424591064453,1.675706386566162,0
-1.2806965112686157,1.3439388275146484,-0.2595529556274414,0
-1.1226069927215576,0.05461597442626953,-3.1154847145080566,0
-1.3222768306732178,-0.420623779296875,-4.688970565795898,0
-1.5664461851119995,-0.4513359069824219,-5.318744659423828,0
-1.4560706615447998,-0.19693946838378906,-5.382370948791504,0
-1.0175693035125732,0.24469566345214844,-5.0873332023620605,0
-0.25119268894195557,0.7916584014892578,-4.516165733337402,0
0.6672225594520569,1.2779884338378906,-3.962801694869995,0
1.7201170921325684,1.514296531677246,-3.563779354095459,0
2.433063268661499,1.4364137649536133,-3.579044818878174,0
2.7417917251586914,0.9903116226196289,-3.8676669597625732,0
2.779428482055664,0.26818180084228516,-4.294620037078857,0
2.584042549133301,-0.6473617553710938,-4.744722843170166,0
2.2051427364349365,-1.3436508178710938,-5.113214015960693,0
1.8235856294631958,-1.690826416015625,-5.082630634307861,0
1.417529821395874,-1.8297677040100098,-4.849557399749756,0
1.0106391906738281,-1.6697883605957031,-4.413056373596191,0
0.4309474229812622,-1.4601569175720215,-3.8426568508148193,0
-0.12382739782333374,-1.2683277130126953,-3.1445538997650146,0
-0.5899963974952698,-1.0709609985351562,-2.4606025218963623,0
-0.8174357414245605,-1.1579408645629883,-1.9779225587844849,0
-0.9166470766067505,-1.302032470703125,-1.8291903734207153,0
-0.8424445390701294,-1.5221481323242188,-1.9808965921401978,0
-0.6814988851547241,-1.676692008972168,-2.08250093460083,0
-0.4773748517036438,-1.8777451515197754,-2.0492873191833496,0
-0.2517802119255066,-2.09639835357666,-1.831943392753601,0
-0.15581828355789185,-2.3804526329040527,-1.4953174591064453,0
-0.08190256357192993,-2.739518642425537,-1.1778961420059204,0
-0.09193503856658936,-3.0038089752197266,-0.9298926591873169,0
-0.05134415626525879,-3.2046399116516113,-0.7727463245391846,0
-0.07953202724456787,-3.332568645477295,-0.7184492349624634,0
-0.0660938024520874,-3.177356719970703,-0.8386121988296509,0
-0.2170497179031372,-2.844790458679199,-0.7183365821838379,0
-0.30519163608551025,-2.729724884033203,-0.8619948625564575,0
-0.2488030195236206,-2.5235962867736816,-1.0751581192016602,0
-0.15762877464294434,-2.176457405090332,-1.2066338062286377,0
-0.08206796646118164,-1.7340021133422852,-1.2200946807861328,0
0.041895389556884766,-1.2394256591796875,-1.1939421892166138,0
0.08426523208618164,-0.8003673553466797,-1.185018539428711,0
0.31995952129364014,-0.5648622512817383,-1.1053507328033447,0
0.5982215404510498,-0.5014324188232422,-0.8243117332458496,0
0.7834187746047974,-0.4591856002807617,-0.45772916078567505,0
0.5890734195709229,-0.6604070663452148,-0.3245229721069336,0
0.410025954246521,-0.7317304611206055,-0.25740838050842285,0
0.4647449254989624,-0.8456430435180664,-0.1533445119857788,0
0.5919538736343384,-0.9544916152954102,-0.0699530839920044,0
0.6554309129714966,-1.1898212432861328,-0.0576249361038208,0
0.8459922075271606,-1.417414665222168,-0.198580801486969,0
1.0508853197097778,-1.419656753540039,-0.34243541955947876,0
1.1812032461166382,-1.3427200317382812,-0.46008002758026123,0
1.2126500606536865,-1.2608699798583984,-0.6082433462142944,0
1.24063241481781,-1.2076492309570312,-0.63055419921875,0
1.2242753505706787,-1.1160926818847656,-0.6127797365188599,0
1.215662956237793,-1.02923583984375,-0.4328654706478119,0
1.2933624982833862,-0.8657321929931641,-0.17953306436538696,0
1.32780921459198,-0.7643270492553711,0.10404253005981445,0
1.383437991142273,-0.7751445770263672,0.35091716051101685,0
1.3312227725982666,-0.7904586791992188,0.5729406476020813,0
1.2383503913879395,-0.9752702713012695,0.7389789819717407,0
1.0667635202407837,-1.1046295166015625,0.8180444836616516,0
0.9461792707443237,-1.2073783874511719,0.9036497473716736,0
0.8361281156539917,-1.2644681930541992,0.9505977630615234,0
0.6531223058700562,-1.3166427612304688,0.968856692314148,0
0.5576653480529785,-1.1654653549194336,0.9034489989280701,0
0.4973636865615845,-1.0551204681396484,0.8383325338363647,0
0.3551161289215088,-0.9640378952026367,0.6946296691894531,0
0.2793782949447632,-0.7821922302246094,0.5510817766189575,0
0.13358557224273682,-0.6459560394287109,0.36923253536224365,0
0.08998334407806396,-0.47396183013916016,0.2949901819229126,0
0.009714722633361816,-0.28536415100097656,0.19863975048065186,0
-0.06415146589279175,-0.08017826080322266,0.09427100419998169,0
-0.08640319108963013,0.01726245880126953,0.16848336160182953,0
-0.21783554553985596,0.20560455322265625,0.09584976732730865,0
-0.27472996711730957,0.2480611801147461,0.05378948897123337,0
-0.25018638372421265,0.3313331604003906,0.10000615566968918,0
-0.27338552474975586,0.4290599822998047,0.11229357868432999,0
-0.2914179563522339,0.6033697128295898,0.12655551731586456,0
-0.29968878626823425,0.8015737533569336,0.13793984055519104,0
-0.11190974712371826,1.1192913055419922,0.19384123384952545,0
0.21438032388687134,1.475041389465332,0.23864570260047913,0
0.5857368111610413,1.8161487579345703,0.2311653196811676,0
0.9061846137046814,1.9226360321044922,0.25009799003601074,0
1.2879019975662231,1.9119653701782227,0.3769862949848175,0
1.603935718536377,1.8321094512939453,0.624204158782959,0
1.8854153156280518,1.7142362594604492,0.8078709840774536,0
2.161120891571045,1.6874961853027344,0.9926292300224304,0
2.553252696990967,1.696763038635254,1.1859322786331177,0
2.925701141357422,1.471792221069336,1.5699595212936401,0
2.892838716506958,1.7421598434448242,1.581852912902832,0
3.2401483058929443,1.684661865234375,1.8342351913452148,0
3.372138500213623,1.605748176574707,2.0039758682250977,0
3.4541115760803223,1.498260498046875,2.1867644786834717,0
3.4643611907958984,1.4698219299316406,2.2363526821136475,0
3.634859085083008,1.3529176712036133,2.2431554794311523,0
3.7303898334503174,1.589980125427246,1.9934531450271606,0
3.932522773742676,1.8170795440673828,1.7882004976272583,0
3.979858636856079,2.1537551879882812,1.4377708435058594,0
4.010713577270508,2.444437026977539,1.1524646282196045,0
3.9716570377349854,2.875687599182129,0.8338710069656372,0
3.687178611755371,3.4329891204833984,0.5437440276145935,0
3.508573055267334,4.106634140014648,0.47805747389793396,0
3.2343759536743164,4.831944465637207,0.3494519293308258,0
3.2332606315612793,4.970473289489746,0.34964340925216675,0
3.190110206604004,4.582751274108887,0.2081967294216156,0
3.1680073738098145,3.997030258178711,-0.15433993935585022,0
3.1265835762023926,3.3570632934570312,-0.5258195996284485,0
2.9939143657684326,2.9619035720825195,-0.8183239698410034,0
3.0530829429626465,2.7587451934814453,-1.13239324092865,0
2.7681989669799805,2.563370704650879,-1.6433674097061157,0
2.4433412551879883,2.445296287536621,-2.0614967346191406,0
1.9206948280334473,2.0340042114257812,-2.563553810119629,0
1.1744738817214966,1.7556695938110352,-3.058101177215576,0
0.387563019990921,1.399881362915039,-3.45188570022583,0
-0.3216918706893921,1.0864553451538086,-3.7424442768096924,0
-1.0381245613098145,0.7509050369262695,-3.773690700531006,0
-1.7434165477752686,0.5081310272216797,-3.6410515308380127,0
-2.5725691318511963,0.26720237731933594,-3.140239953994751,0
-3.2320477962493896,0.1116790771484375,-2.4628260135650635,0
-3.6754517555236816,-0.15721797943115234,-1.831233024597168,0
-3.9652509689331055,-0.25501441955566406,-1.2075170278549194,0
-4.105382919311523,-0.07692718505859375,-0.6902620792388916,0
-4.206557750701904,0.2688426971435547,-0.19347083568572998,0
-4.054322242736816,0.8391523361206055,0.24166083335876465,0
-3.7589774131774902,1.3895893096923828,0.5750908851623535,0
-3.3219244480133057,1.616633415222168,0.6876065731048584,0
-2.9062633514404297,1.843912124633789,0.5902100801467896,0
-2.6651759147644043,2.021723747253418,0.5189454555511475,0
-2.380685329437256,2.191168785095215,0.514732837677002,0
-2.1070780754089355,2.1756086349487305,0.6312364339828491,0
-1.9413728713989258,2.145183563232422,0.7125704288482666,0
-1.9037683010101318,2.0377111434936523,0.7640993595123291,0
-1.9116508960723877,1.9678430557250977,0.717782735824585,0
-1.9922116994857788,1.8899478912353516,0.4811863899230957,0
-2.0438525676727295,1.9425830841064453,0.038352012634277344,0
-1.9184720516204834,1.8026342391967773,-0.5523673295974731,0
-1.2782891988754272,1.5012235641479492,-1.2686505317687988,0
-0.7758809924125671,1.2513675689697266,-2.172708034515381,0
-0.4640350341796875,1.175206184387207,-3.0284132957458496,0
-0.22183389961719513,0.8830947875976562,-3.678778648376465,0
0.03894004225730896,0.4713897705078125,-4.0558624267578125,0
0.22977271676063538,-0.1264190673828125,-4.009890079498291,0
0.16131722927093506,-0.7668075561523438,-3.609767198562622,0
0.23471415042877197,-1.2757043838500977,-3.1027309894561768,0
0.18048590421676636,-1.8547229766845703,-2.477505683898926,0
0.06871160864830017,-2.3108367919921875,-1.7896634340286255,0
-0.0017512738704681396,-2.7309393882751465,-1.0951881408691406,0
-0.08680026233196259,-2.9888534545898438,-0.8284056186676025,0
-0.003943920135498047,-3.118828296661377,-0.8875601291656494,0
-0.20253056287765503,-3.2622342109680176,-1.246171474456787,0
-0.329924613237381,-3.514864444732666,-1.5835964679718018,0
-0.3706737160682678,-3.5730319023132324,-1.8522741794586182,0
-0.46065396070480347,-3.800321578979492,-2.136601209640503,0
-0.4651874005794525,-3.9167017936706543,-2.3055248260498047,0
-0.5250399112701416,-4.187734127044678,-2.3570637702941895,0
-0.4072766602039337,-4.412428379058838,-2.212637186050415,0
-0.39370033144950867,-4.66489315032959,-2.1263461112976074,0
-0.4094478189945221,-4.911545753479004,-2.0673978328704834,0
-0.4501499831676483,-5.336697578430176,-2.0907106399536133,0
-0.6686797142028809,-5.502547740936279,-2.1461293697357178,0
-0.7809736728668213,-5.3640360832214355,-2.0375068187713623,0
-0.66765296459198,-5.060441017150879,-1.7958214282989502,0
-0.7601755857467651,-4.647207736968994,-1.5786104202270508,0
-0.8386691808700562,-4.107904434204102,-1.4262266159057617,0
-0.8843479156494141,-3.705869674682617,-1.3359408378601074,0
-0.9581779837608337,-3.3260483741760254,-1.2911021709442139,0
-1.0419385433197021,-3.1238818168640137,-1.2628371715545654,0
-1.093271017074585,-3.049032688140869,-1.255697250366211,0
-1.1742368936538696,-3.103793144226074,-1.3054265975952148,0
-1.220255970954895,-3.345485210418701,-1.308929443359375,0
-1.3443015813827515,-3.5873193740844727,-1.280620813369751,0
-1.2740963697433472,-3.800558090209961,-1.112926959991455,0
-1.268424153327942,-4.049829959869385,-0.8871438503265381,0
-1.341812014579773,-4.272961616516113,-0.6557261943817139,0
-1.283855676651001,-4.462853908538818,-0.4471249580383301,0
-1.350663661956787,-4.6887736320495605,-0.20872116088867188,0
-1.3722541332244873,-4.76167106628418,0.07859611511230469,0
-1.4564015865325928,-4.765312194824219,0.4028654098510742,0
-1.5074398517608643,-4.649369239807129,0.7735123634338379,0
-1.4558730125427246,-4.461551666259766,1.142439365386963,0
-1.3039120435714722,-4.163249969482422,1.4492621421813965,0
-1.0416945219039917,-3.816051483154297,1.6951828002929688,0
-0.8741785287857056,-3.278017044067383,1.7229671478271484,0
-0.6965253353118896,-2.6345248222351074,1.669339895248413,0
-0.624378502368927,-1.904017448425293,1.6183202266693115,0
-0.4404902756214142,-1.173999309539795,1.4547488689422607,0
-0.08177921175956726,-0.4311542510986328,0.9022717475891113,0
0.48049047589302063,0.5437812805175781,-0.0220029354095459,0
0.9753482341766357,1.9004411697387695,-0.8422558307647705,0
1.264601230621338,3.725621223449707,-0.837881326675415,0
1.2914018630981445,6.203088760375977,0.47968435287475586,0
0.9843836426734924,9.130334854125977,3.5306220054626465,0
0.20823395252227783,11.805968284606934,8.03190803527832,0
0.21071380376815796,12.686135292053223,11.903288841247559,0
0.8006048202514648,11.99632453918457,13.389843940734863,0
0.5757638216018677,10.454075813293457,12.899223327636719,0
0.6479849815368652,8.364992141723633,11.083259582519531,0
1.2701375484466553,5.35445499420166,9.306705474853516,0
1.5481749773025513,0.881744384765625,7.975090026855469,0
2.1664342880249023,-3.2714357376098633,6.049750328063965,0
2.2627272605895996,-4.824593544006348,3.0872318744659424,0
1.9027087688446045,-2.973367691040039,0.5758748054504395,0
0.5974971652030945,1.1826143264770508,-0.3177790641784668,0
-0.08655494451522827,5.718921661376953,-2.264333724975586,0
0.0855608582496643,9.688374519348145,-5.417068004608154,0
0.26715368032455444,12.27012825012207,-7.260561943054199,0
-0.7774477601051331,13.005517959594727,-7.366324424743652,0
-2.0236146450042725,11.864216804504395,-7.085315704345703,0
-3.693397045135498,9.627135276794434,-7.277224540710449,0
-5.9143195152282715,7.657122611999512,-7.307286262512207,0
-7.2168288230896,6.2314252853393555,-6.832380294799805,0
-7.083672046661377,5.6149702072143555,-4.920223712921143,0
-5.803606033325195,6.056073188781738,-0.95163893699646,0
-4.617225170135498,5.522281646728516,1.875847339630127,0
-2.850959300994873,3.1592702865600586,2.9605202674865723,0
-0.6431934833526611,0.5928859710693359,2.559314250946045,0
0.02841365337371826,-1.6551828384399414,0.02264547348022461,0
-1.6963621377944946,-2.8260507583618164,-3.336735248565674,0
-3.3045144081115723,-3.078885078430176,-5.462935447692871,0
-3.511709451675415,-3.143826961517334,-6.516660690307617,0
-4.020489692687988,-3.009786605834961,-6.518148422241211,0
-4.096733093261719,-2.6850714683532715,-5.935800552368164,0
-3.5507259368896484,-2.0458946228027344,-5.2696213722229,0
-2.4989426136016846,-1.0591621398925781,-4.716136455535889,0
-0.8569169640541077,0.050721168518066406,-3.9300291538238525,0
0.8565282225608826,0.9701480865478516,-2.971193790435791,0
1.9513556957244873,1.281062126159668,-2.4525818824768066,0
2.147392749786377,0.99273681640625,-2.8050334453582764,0
1.987647533416748,0.2254486083984375,-3.4144742488861084,0
1.1360673904418945,-0.4166603088378906,-3.8616909980773926,0
0.13900905847549438,-0.5019731521606445,-4.014186382293701,0
-0.5876885652542114,-0.23058414459228516,-4.022857666015625,0
-1.2030526399612427,0.11591625213623047,-3.8750100135803223,0
-1.7030850648880005,0.46346282958984375,-3.325732946395874,0
-1.8536043167114258,0.5557022094726562,-2.5129313468933105,0
-1.651020884513855,0.3612508773803711,-1.712235450744629,0
-1.2880923748016357,-0.1341075897216797,-1.240498423576355,0
-0.8330779671669006,-0.8055801391601562,-0.9774430990219116,0
-0.4064787030220032,-1.6263785362243652,-0.987790584564209,0
-0.09886634349822998,-2.385601043701172,-1.2076177597045898,0
0.22793996334075928,-3.161983013153076,-1.6287295818328857,0
0.47102034091949463,-3.869141101837158,-2.210186004638672,0
0.5314559936523438,-4.232138156890869,-2.513157844543457,0
0.3546963930130005,-4.311363220214844,-2.7507336139678955,0
0.21058952808380127,-4.073835849761963,-2.8771426677703857,0
0.20102059841156006,-3.6253719329833984,-2.791081428527832,0
0.13809549808502197,-2.9616494178771973,-2.783212184906006,0
0.12356531620025635,-2.2744088172912598,-2.7085328102111816,0
0.1085580587387085,-1.685678482055664,-2.6451539993286133,0
0.02772533893585205,-1.235945701599121,-2.5543646812438965,0
-0.13580834865570068,-1.0660505294799805,-2.5031938552856445,0
-0.04914450645446777,-1.0967731475830078,-2.2213492393493652,0
-0.42762088775634766,-0.9787139892578125,-2.1204464435577393,0
-0.49295687675476074,-0.9130115509033203,-1.8795446157455444,0
-0.7432469129562378,-1.210378646850586,-1.733055830001831,0
-0.656846821308136,-1.5139217376708984,-1.5528101921081543,0
-0.4120061993598938,-1.7805628776550293,-1.2927052974700928,0
-0.5148999094963074,-1.9817228317260742,-0.8125405311584473,0
-0.5969705581665039,-1.9071216583251953,-0.313323974609375,0
-0.31633079051971436,-1.521286964416504,-0.08917236328125,0
-0.05611622333526611,-1.1737079620361328,-0.09699141979217529,0
0.10963165760040283,-0.6898155212402344,-0.181321918964386,0
0.11390841007232666,-0.3328256607055664,-0.01446688175201416,0
0.1839975118637085,-0.0022153854370117188,0.2696341276168823,0
0.4348520040512085,0.1752452850341797,0.4818897247314453,0
0.5437617301940918,0.13273143768310547,0.643636167049408,0
0.7025318145751953,0.0019464492797851562,0.8457415103912354,0
0.9803736209869385,-0.11421394348144531,0.9112715125083923,0
1.3145476579666138,-0.2372894287109375,0.824042022228241,0
1.4987682104110718,-0.43419742584228516,0.5872274041175842,0
1.6788039207458496,-0.6211662292480469,0.33072537183761597,0
1.8234577178955078,-0.927342414855957,0.04306921362876892,0
1.9113109111785889,-1.151759147644043,-0.2201014757156372,0
1.9350491762161255,-1.2419042587280273,-0.4175920784473419,0
1.9615392684936523,-1.2911767959594727,-0.5753520131111145,0
2.0266213417053223,-1.282872200012207,-0.7028641700744629,0
2.0108184814453125,-1.2792253494262695,-0.7548026442527771,0
2.0052132606506348,-1.2873954772949219,-0.7840812802314758,0
1.8691595792770386,-1.2332763671875,-0.7889037728309631,0
1.7181512117385864,-1.0237483978271484,-0.6719365119934082,0
1.512073278427124,-0.8862237930297852,-0.5609548687934875,0
1.2919259071350098,-0.6747951507568359,-0.39193716645240784,0
1.0363012552261353,-0.4493589401245117,-0.1890231966972351,0
0.7406020164489746,-0.2625598907470703,0.06459072232246399,0
0.5507971048355103,-0.08327674865722656,0.27576273679733276,0
0.30399763584136963,0.12438678741455078,0.3823641538619995,0
0.18449795246124268,0.1595449447631836,0.554604172706604,0
0.05082058906555176,0.11092376708984375,0.634719967842102,0
-0.0066564083099365234,-0.04520988464355469,0.5918422341346741,0
-0.05801045894622803,-0.22733688354492188,0.5507696866989136,0
-0.0012961030006408691,-0.28945446014404297,0.5166977047920227,0
0.1865190863609314,-0.3153085708618164,0.5690125823020935,0
0.28200483322143555,-0.19964313507080078,0.695884108543396,0
0.33947092294692993,-0.00235748291015625,0.8420702219009399,0
0.4972690939903259,0.45577335357666016,1.1075701713562012,0
0.6956603527069092,1.0261297225952148,1.3749854564666748,0
0.9087258577346802,1.3116025924682617,1.5799566507339478,0
1.0581083297729492,1.4272594451904297,1.7130212783813477,0
1.2999722957611084,1.4186477661132812,1.658929705619812,0
1.460143804550171,1.4268932342529297,1.5605902671813965,0
1.7160918712615967,1.4208126068115234,1.529962182044983,0
1.8289520740509033,1.4697189331054688,1.547736406326294,0
1.9931750297546387,1.6213035583496094,1.5778565406799316,0
2.1515183448791504,1.4856843948364258,1.7544455528259277,0
2.0233075618743896,1.9359464645385742,1.5909394025802612,0
2.022043228149414,2.268366813659668,1.635082721710205,0
2.1209850311279297,2.4854936599731445,1.6524314880371094,0
2.1167006492614746,2.59466552734375,1.6816877126693726,0
2.0664448738098145,2.5816659927368164,1.6605899333953857,0
2.0635643005371094,2.4274892807006836,1.6249622106552124,0
2.101016044616699,2.2398929595947266,1.7350244522094727,0
2.054506540298462,1.963942527770996,1.9789962768554688,0
1.957543969154358,1.5256452560424805,2.3450138568878174,0
1.9273624420166016,1.3077306747436523,2.468985080718994,0
2.184192180633545,1.0994653701782227,2.6426281929016113,0
2.315955400466919,0.9199066162109375,2.573349952697754,0
2.520336866378784,0.9076642990112305,2.327615737915039,0
2.6743133068084717,0.9955215454101562,1.9142494201660156,0
2.9351437091827393,1.4128990173339844,1.5148676633834839,0
3.201906204223633,2.068547248840332,1.1748805046081543,0
2.9470138549804688,2.9000368118286133,0.7479910254478455,0
2.7566022872924805,3.6059608459472656,0.5265555381774902,0
2.585346221923828,3.880476951599121,0.292896032333374,0
2.601546049118042,3.5687360763549805,-0.1659681797027588,0
2.8352227210998535,3.0182008743286133,-0.7712277770042419,0
2.618724822998047,2.2268104553222656,-1.4115865230560303,0
2.389850616455078,1.776052474975586,-1.7712880373001099,0
2.1341652870178223,1.6728200912475586,-2.128161907196045,0
2.0126805305480957,1.5223026275634766,-2.446125030517578,0
1.4872727394104004,1.578202247619629,-2.7630677223205566,0
0.6653400659561157,1.508112907409668,-3.04966139793396,0
-0.07228446006774902,1.3769207000732422,-3.142679452896118,0
-0.9089820384979248,1.4335203170776367,-3.1093459129333496,0
-1.7116330862045288,1.409987449645996,-2.983812093734741,0
-2.3925929069519043,1.5145893096923828,-2.75728178024292,0
-2.9574272632598877,1.4938421249389648,-2.501553773880005,0
-3.5243752002716064,1.4699459075927734,-2.019596815109253,0
-4.019778251647949,1.3735170364379883,-1.5461783409118652,0
-4.605816841125488,1.371908187866211,-0.985326886177063,0
-5.0267109870910645,1.3978767395019531,-0.36116528511047363,0
-5.350731372833252,1.5349111557006836,0.32307493686676025,0
-5.266362190246582,1.6629934310913086,0.9885519742965698,0
-4.848044395446777,2.044696807861328,1.3296771049499512,0
-4.146029949188232,2.2848634719848633,1.2041124105453491,0
-3.4989218711853027,2.438826560974121,0.700440526008606,0
-2.9093170166015625,2.3995771408081055,0.1806849241256714,0
-2.252920150756836,2.2705440521240234,-0.15453064441680908,0
-1.544306993484497,2.0806474685668945,-0.38018500804901123,0
-0.9674085974693298,1.9065313339233398,-0.6376755237579346,0
-0.45872142910957336,1.781707763671875,-0.905793309211731,0
-0.0811498761177063,1.730158805847168,-1.2067492008209229,0
0.07318732142448425,1.7114343643188477,-1.536880612373352,0
-0.11486411094665527,1.795130729675293,-1.8778252601623535,0
-0.2743105888366699,2.0052871704101562,-2.163069009780884,0
-0.41921234130859375,2.021554946899414,-2.2135682106018066,0
-0.45051926374435425,1.9037704467773438,-2.0378785133361816,0
-0.3130016624927521,1.7111806869506836,-1.7504202127456665,0
-0.15815645456314087,1.4407873153686523,-1.649969458580017,0
-0.17336499691009521,0.8917274475097656,-1.8053737878799438,0
-0.008013114333152771,0.27485084533691406,-1.7671778202056885,0
0.1090121865272522,-0.3045835494995117,-1.7818788290023804,0
0.3557847738265991,-0.7989597320556641,-1.6147513389587402,0
0.42642471194267273,-1.1581611633300781,-1.4455387592315674,0
0.42211127281188965,-1.4208502769470215,-1.156623125076294,0
0.5266461372375488,-1.8459978103637695,-0.6463994979858398,0
0.300217866897583,-2.379023551940918,-0.42563772201538086,0
0.15777471661567688,-2.728555202484131,-0.5051908493041992,0
-0.026425182819366455,-2.9644064903259277,-0.8463277816772461,0
-0.1504496932029724,-3.220761775970459,-1.2001724243164062,0
-0.13884881138801575,-3.445006847381592,-1.5431859493255615,0
-0.2181221842765808,-3.8139376640319824,-1.9407157897949219,0
-0.20819538831710815,-3.9971890449523926,-2.2452056407928467,0
-0.26467517018318176,-4.20521879196167,-2.5363028049468994,0
-0.12153373658657074,-4.497734546661377,-2.651698112487793,0
-0.10558280348777771,-4.788597583770752,-2.692117929458618,0
-0.19709739089012146,-5.073080062866211,-2.648130416870117,0
-0.4388110637664795,-5.181535720825195,-2.5699462890625,0
-0.6076991558074951,-5.222048759460449,-2.4428412914276123,0
-0.7825132012367249,-5.041792869567871,-2.3432655334472656,0
-0.8918662667274475,-4.605401039123535,-2.093884229660034,0
-0.9651140570640564,-4.183732509613037,-1.8090486526489258,0
-1.1326591968536377,-3.817728042602539,-1.5958523750305176,0
-1.1109728813171387,-3.5146608352661133,-1.5256726741790771,0
-1.0132708549499512,-3.296036720275879,-1.461989402770996,0
-0.9884387254714966,-3.2669081687927246,-1.46712064743042,0
-1.0132919549942017,-3.3456497192382812,-1.409677505493164,0
-0.9732765555381775,-3.6827964782714844,-1.311229944229126,0
-1.0092780590057373,-4.139289379119873,-1.248443603515625,0
-0.9850460290908813,-4.571534633636475,-1.0849151611328125,0
-0.9749746918678284,-4.991491317749023,-0.9522905349731445,0
-0.9648324251174927,-5.286808967590332,-0.7619574069976807,0
-1.0121214389801025,-5.503105163574219,-0.5712132453918457,0
-1.0046979188919067,-5.492278099060059,-0.3152756690979004,0
-0.9811818599700928,-5.388489246368408,-0.03236055374145508,0
-0.9417282938957214,-5.210953235626221,0.28241682052612305,0
-0.9939601421356201,-5.01933479309082,0.6001491546630859,0
-0.9987325668334961,-4.760752201080322,0.8296146392822266,0
-1.0493838787078857,-4.406185626983643,1.1066226959228516,0
-0.9230352640151978,-4.0175251960754395,1.365954875946045,0
-0.8054782748222351,-3.6539816856384277,1.5036895275115967,0
-0.654884934425354,-3.3410754203796387,1.4466910362243652,0
-0.4888869822025299,-2.953376293182373,1.166520595550537,0
-0.4251962900161743,-2.377732753753662,1.0318479537963867,0
-0.17956581711769104,-1.7378997802734375,0.9732122421264648,0
0.1344185620546341,-0.9990406036376953,0.5250048637390137,0
0.4402998089790344,-0.09482955932617188,-0.3199448585510254,0
0.9792338609695435,1.5570335388183594,-0.6471796035766602,0
1.4183100461959839,4.094876289367676,-0.016666650772094727,0
1.3012546300888062,7.014982223510742,1.7249445915222168,0
0.7811884880065918,9.963644027709961,4.495176315307617,0
0.0082329660654068,10.867928504943848,7.179797172546387,0
0.2527843713760376,9.768929481506348,8.933188438415527,0
0.1548948884010315,8.405924797058105,9.781902313232422,0
0.11793327331542969,7.082226753234863,9.953178405761719,0
0.5251295566558838,5.386407852172852,9.784736633300781,0
0.7725573778152466,2.584840774536133,9.477582931518555,0
1.0420522689819336,-0.9528074264526367,8.412271499633789,0
1.5041329860687256,-4.499067783355713,6.858098983764648,0
1.4945529699325562,-7.083420753479004,4.49324893951416,0
1.2774080038070679,-7.23643684387207,1.7295832633972168,0
0.535369873046875,-4.863041400909424,-0.36605405807495117,0
-0.013369381427764893,-1.3418211936950684,-1.4558167457580566,0
0.22680321335792542,2.417194366455078,-2.7529749870300293,0
0.035154104232788086,6.369511604309082,-5.079850196838379,0
-0.5206042528152466,9.789143562316895,-7.622223854064941,0
-1.697230577468872,12.51503849029541,-8.310693740844727,0
-3.51883602142334,14.545860290527344,-6.982944488525391,0
-5.547501087188721,15.551806449890137,-5.751400947570801,0
-6.732883930206299,14.971869468688965,-5.47588586807251,0
-6.286864757537842,12.481138229370117,-5.212669849395752,0
-4.443657398223877,8.651874542236328,-4.1972808837890625,0
-3.083211660385132,5.68400764465332,-2.9052798748016357,0
-3.3854563236236572,4.531694412231445,-1.9212822914123535,0
-3.7494964599609375,3.525212287902832,-0.5863692760467529,0
-3.5879006385803223,2.239687919616699,1.071958065032959,0
-3.447444200515747,0.5947360992431641,1.4813556671142578,0
-3.8408641815185547,-1.3036751747131348,-0.04061007499694824,0
-4.303038120269775,-3.292553424835205,-1.5844132900238037,0
-4.146578311920166,-4.709055423736572,-2.7719321250915527,0
-3.8333027362823486,-4.789068698883057,-3.6449227333068848,0
-3.630917549133301,-3.8642525672912598,-3.834447145462036,0
-2.842710018157959,-2.6236705780029297,-3.384690999984741,0
-1.491285800933838,-1.1532135009765625,-2.617908000946045,0
0.09509801864624023,0.38280487060546875,-1.9012564420700073,0
1.8252840042114258,1.7191600799560547,-1.4398064613342285,0
3.2013156414031982,2.607954978942871,-1.544154167175293,0
3.7206830978393555,2.8211851119995117,-2.0208263397216797,0
3.969046115875244,2.227423667907715,-2.6399316787719727,0
3.8734583854675293,1.1698389053344727,-3.6622812747955322,0
3.270326852798462,0.16395854949951172,-4.893409729003906,0
2.5753304958343506,-0.7581081390380859,-5.541890621185303,0
2.0053646564483643,-1.1196918487548828,-5.613458633422852,0
1.3687310218811035,-1.090682029724121,-5.24953556060791,0
0.637909471988678,-0.9081802368164062,-4.515913963317871,0
-0.015142381191253662,-0.7136411666870117,-3.6517457962036133,0
-0.49847331643104553,-0.5095548629760742,-2.7333078384399414,0
-0.720604658126831,-0.3914937973022461,-2.0618982315063477,0
-0.7480118870735168,-0.38550472259521484,-1.6229581832885742,0
-0.6564956903457642,-0.2927131652832031,-1.5099890232086182,0
-0.4207771420478821,-0.34979248046875,-1.4909485578536987,0
-0.2662520408630371,-0.4272928237915039,-1.4943931102752686,0
-0.030327975749969482,-0.5706386566162109,-1.4987355470657349,0
0.0048043131828308105,-0.8371486663818359,-1.5111445188522339,0
-0.028559088706970215,-1.2363224029541016,-1.5362844467163086,0
-0.17504501342773438,-1.6700291633605957,-1.4952601194381714,0
-0.30430471897125244,-2.176608085632324,-1.464653730392456,0
-0.4805915951728821,-2.581468105316162,-1.4373033046722412,0
-0.9794850945472717,-2.858306407928467,-1.5785577297210693,0
-1.0805559158325195,-3.0503668785095215,-1.4793941974639893,0
-1.1809686422348022,-3.1220173835754395,-1.2665185928344727,0
-1.237721562385559,-3.059168815612793,-1.1620312929153442,0
-1.1071891784667969,-2.833393096923828,-1.0124872922897339,0
-1.0359035730361938,-2.461698532104492,-0.9013201594352722,0
-0.8564276695251465,-1.975390911102295,-0.8115754127502441,0
-0.786736786365509,-1.4535331726074219,-0.8457971811294556,0
-0.6666838526725769,-0.7719602584838867,-0.6227744817733765,0
-0.6086196303367615,-0.2608785629272461,-0.7976993322372437,0
-0.3564760684967041,-0.017961502075195312,-1.0624395608901978,0
-0.08669209480285645,-0.01877117156982422,-1.100578784942627,0
0.04627048969268799,-0.1457843780517578,-0.8443766236305237,0
-0.06244242191314697,-0.31755733489990234,-0.4931447505950928,0
0.1355189085006714,-0.4982566833496094,-0.27200794219970703,0
0.3438436985015869,-0.6019163131713867,-0.20721220970153809,0
0.4908304214477539,-0.6980104446411133,-0.16721057891845703,0
0.6339954137802124,-0.8224878311157227,-0.18540078401565552,0
0.8472530841827393,-0.9825315475463867,-0.1203848123550415,0
1.0655808448791504,-1.0657472610473633,-0.19664841890335083,0
1.2383852005004883,-1.1607437133789062,-0.29390519857406616,0
1.4013315439224243,-1.3321027755737305,-0.39489251375198364,0
1.4989960193634033,-1.464951515197754,-0.5231223702430725,0
1.626807689666748,-1.6478300094604492,-0.5560901165008545,0
1.6911311149597168,-1.782681941986084,-0.4619276225566864,0
1.7588467597961426,-1.7141742706298828,-0.4171411991119385,0
1.8225767612457275,-1.6912603378295898,-0.29896050691604614,0
1.7599767446517944,-1.5799436569213867,-0.25057631731033325,0
1.7718267440795898,-1.5189800262451172,-0.15926378965377808,0
1.7264232635498047,-1.3863134384155273,-0.07058095932006836,0
1.6285500526428223,-1.2584848403930664,-0.008773982524871826,0
1.5093005895614624,-1.1402225494384766,0.18617194890975952,0
1.4237176179885864,-1.0027790069580078,0.3941851854324341,0
1.233303427696228,-0.8126964569091797,0.715522050857544,0
1.1345224380493164,-0.6441526412963867,0.9654318690299988,0
1.029559850692749,-0.49710559844970703,1.04033362865448,0
0.9734626412391663,-0.3547649383544922,0.9899047613143921,0
0.8633835315704346,-0.23146533966064453,0.8855191469192505,0
0.7713749408721924,-0.07700157165527344,0.7293703556060791,0
0.7000758647918701,0.036818504333496094,0.5452763438224792,0
0.5756182074546814,0.179351806640625,0.35226964950561523,0
0.46506887674331665,0.33141517639160156,0.2795942425727844,0
0.32770413160324097,0.43082714080810547,0.19807864725589752,0
0.330954372882843,0.43938541412353516,0.16054849326610565,0
0.34515511989593506,0.43852806091308594,0.1553812325000763,0
0.4009177088737488,0.40917491912841797,0.09903828054666519,0
0.5193436741828918,0.3848590850830078,0.09459155797958374,0
0.6810451149940491,0.4444894790649414,0.15164080262184143,0
0.8545922040939331,0.47559356689453125,0.3321458697319031,0
1.025303602218628,0.5571174621582031,0.5497176051139832,0
1.2216410636901855,0.6913795471191406,0.8302004337310791,0
1.414810061454773,0.8902444839477539,1.075106143951416,0
1.611830234527588,1.0651369094848633,1.229210615158081,0
1.860317349433899,1.1252079010009766,1.3452837467193604,0
2.093006134033203,1.135148048400879,1.4496731758117676,0
2.3049428462982178,1.2647666931152344,1.3701597452163696,0
2.467419385910034,1.401510238647461,1.3151103258132935,0
2.5471537113189697,1.6529560089111328,1.3039969205856323,0
2.5585312843322754,1.9520025253295898,1.2341604232788086,0
2.4513721466064453,2.248350143432617,1.2680583000183105,0
2.4723057746887207,2.56827449798584,1.3885372877120972,0
2.521108388900757,2.8208436965942383,1.506665825843811,0
2.5118889808654785,2.8482961654663086,1.6364891529083252,0
2.4636380672454834,2.8326148986816406,1.7250021696090698,0
2.481785297393799,2.702094078063965,1.9153692722320557,0
2.5064473152160645,2.521416664123535,2.0206375122070312,0
2.7050533294677734,2.2762794494628906,2.152925968170166,0
2.8810923099517822,2.153240203857422,2.012521743774414,0
3.1849069595336914,1.9727869033813477,1.7469244003295898,0
3.398022174835205,2.012331008911133,1.1538996696472168,0
3.4690322875976562,2.0468521118164062,0.6155179738998413,0
3.2843308448791504,2.437480926513672,0.15754304826259613,0
3.0465662479400635,3.0380373001098633,0.03410348296165466,0
2.84399676322937,3.5925674438476562,0.29712194204330444,0
2.7748544216156006,3.5967254638671875,0.30177122354507446,0
2.7677910327911377,3.2282304763793945,-0.17665167152881622,0
2.710568904876709,2.6335134506225586,-0.9976910352706909,0
2.4841606616973877,1.858428955078125,-1.8437665700912476,0
2.23360276222229,1.0253076553344727,-2.5624635219573975,0
1.9677175283432007,0.17743968963623047,-3.0468320846557617,0
1.5948543548583984,-0.37891197204589844,-3.2469987869262695,0
1.081046462059021,-0.8902082443237305,-3.3284788131713867,0
0.40689337253570557,-1.330002784729004,-3.408828020095825,0
-0.48615866899490356,-1.399277687072754,-3.236693859100342,0
-1.3026504516601562,-1.354248046875,-2.669398546218872,0
-2.315049409866333,-0.9607276916503906,-1.9655096530914307,0
-3.0708210468292236,-0.4248542785644531,-1.2258999347686768,0
-3.4030659198760986,0.2459878921508789,-0.5307839512825012,0
-3.6435434818267822,1.0109596252441406,0.08737444877624512,0
-3.57951021194458,1.9486732482910156,0.757211446762085,0
-3.513835906982422,2.9963903427124023,1.4427804946899414,0
-3.1101810932159424,3.8857669830322266,1.9473203420639038,0
-2.5741782188415527,4.286696434020996,2.190415143966675,0
-1.9615767002105713,4.414961814880371,2.0205917358398438,0
-1.4208736419677734,4.5604400634765625,1.732872724533081,0
-1.1503466367721558,4.689923286437988,1.402078628540039,0
-0.8274720907211304,4.688867568969727,1.1202397346496582,0
-0.6866662502288818,4.574252128601074,0.841310977935791,0
-0.9695187211036682,4.24800968170166,0.5825166702270508,0
-1.6068556308746338,3.9301109313964844,0.11746549606323242,0
-2.392268657684326,3.610898017883301,-0.4602625370025635,0
-3.0239181518554688,3.2451906204223633,-1.0966354608535767,0
-2.976626396179199,2.7640066146850586,-1.5561091899871826,0
-2.505225658416748,2.308839797973633,-1.8542554378509521,0
-1.779457926750183,1.8103656768798828,-1.9123610258102417,0
-1.1425811052322388,1.3378362655639648,-1.9547173976898193,0
-0.5600937008857727,0.8719768524169922,-2.1074252128601074,0
-0.09068284928798676,0.3051128387451172,-2.236034393310547,0
0.2527322769165039,-0.22442245483398438,-2.1813344955444336,0
0.42876020073890686,-0.7866535186767578,-2.1714720726013184,0
0.6785798668861389,-1.0040931701660156,-2.1650586128234863,0
0.7071869373321533,-1.2189350128173828,-2.255995273590088,0
0.5514287948608398,-1.497840404510498,-2.1222097873687744,0
0.5018813610076904,-1.5800347328186035,-1.7881360054016113,0
0.4769456684589386,-1.6671342849731445,-1.3821115493774414,0
0.44585955142974854,-1.9058847427368164,-0.9718031883239746,0
0.48827964067459106,-2.1604299545288086,-0.8694286346435547,0
0.37804916501045227,-2.555466651916504,-1.0789759159088135,0
0.3025638461112976,-2.7777743339538574,-1.442225456237793,0
0.16177864372730255,-3.0928778648376465,-1.9164924621582031,0
0.08039242029190063,-3.411952495574951,-2.4019739627838135,0
-0.02761237323284149,-3.7729010581970215,-2.8660895824432373,0
-0.16912367939949036,-4.266269207000732,-3.1589157581329346,0
-0.026987016201019287,-4.832019805908203,-3.194958448410034,0
-0.10970678180456161,-5.300230026245117,-3.108726739883423,0
-0.3479052186012268,-5.66634464263916,-2.7974352836608887,0
-0.5096741318702698,-5.954585552215576,-2.55757737159729,0
-0.6281497478485107,-6.119892597198486,-2.3527932167053223,0
-0.9016209244728088,-6.071586608886719,-2.1950345039367676,0
-0.89472895860672,-5.82447624206543,-2.0074288845062256,0
-0.9359043836593628,-5.4626617431640625,-1.832793951034546,0
-0.8322876691818237,-4.984049320220947,-1.6325898170471191,0
-0.8167189955711365,-4.560899257659912,-1.5647614002227783,0
-0.8637996912002563,-4.061462879180908,-1.471635103225708,0
-0.8761588335037231,-3.6868114471435547,-1.3960638046264648,0
-0.8826531171798706,-3.46572208404541,-1.3782541751861572,0
-0.9811933040618896,-3.2977404594421387,-1.42740797996521,0
-1.0306068658828735,-3.1995058059692383,-1.493267297744751,0
-1.1122015714645386,-3.2187604904174805,-1.580545425415039,0
-1.1016273498535156,-3.3769311904907227,-1.6412324905395508,0
-1.128121018409729,-3.649949550628662,-1.6824238300323486,0
-1.0915027856826782,-3.946812152862549,-1.615553855895996,0
-1.0158748626708984,-4.2484517097473145,-1.50740647315979,0
-0.997078001499176,-4.519012928009033,-1.3721754550933838,0
-1.02083158493042,-4.686847686767578,-1.135481834411621,0
-1.0776927471160889,-4.792690277099609,-0.8785867691040039,0
-1.1629631519317627,-4.838939666748047,-0.5344176292419434,0
-1.3820632696151733,-4.8614115715026855,-0.11735677719116211,0
-1.6010886430740356,-4.778593063354492,0.33411312103271484,0
-1.6117554903030396,-4.650108814239502,0.8077797889709473,0
-1.7491207122802734,-4.365553855895996,1.2551836967468262,0
-1.6947627067565918,-3.9843993186950684,1.721064567565918,0
-1.5585678815841675,-3.6543188095092773,2.1252541542053223,0
-1.4882620573043823,-3.0850062370300293,2.3009233474731445,0
-1.1957992315292358,-2.4334535598754883,2.350904941558838,0
-0.514344334602356,-1.671865463256836,2.0343778133392334,0
0.24124276638031006,-0.8128643035888672,1.387098789215088,0
1.0837137699127197,0.27437591552734375,0.47553086280822754,0
1.7812738418579102,1.5647144317626953,-0.07360339164733887,0
2.618429183959961,3.6253585815429688,0.33412718772888184,0
3.1978073120117188,6.404990196228027,1.8101263046264648,0
3.043687343597412,9.83658504486084,4.807556629180908,0
1.3822029829025269,12.520069122314453,8.4870023727417,0
0.5051738619804382,12.46110725402832,11.049615859985352,0
1.0844730138778687,10.92285442352295,11.609100341796875,0
1.2342883348464966,9.417720794677734,10.067843437194824,0
1.0849213600158691,7.815255165100098,7.978568077087402,0
0.6899488568305969,4.82646369934082,6.443115234375,0
1.0107178688049316,1.0368881225585938,4.904013633728027,0
2.0375680923461914,-2.7634754180908203,3.1909024715423584,0
3.084848403930664,-4.544344902038574,2.1600606441497803,0
2.095911741256714,-2.1265506744384766,1.683717966079712,0
0.5813218355178833,2.457798957824707,0.24114465713500977,0
-0.33601802587509155,6.803698539733887,-2.579928159713745,0
-0.8331085443496704,10.049141883850098,-5.140921592712402,0
-1.4707634449005127,11.78633975982666,-5.877826690673828,0
-2.4762122631073,11.9479398727417,-5.523175239562988,0
-3.732086658477783,10.816422462463379,-5.507758140563965,0
-5.348818778991699,8.81865119934082,-5.64849328994751,0
-6.590228080749512,6.314386367797852,-4.998827934265137,0
-6.6864166259765625,4.018921852111816,-3.5200610160827637,0
-6.186619281768799,2.2885608673095703,-1.7438182830810547,0
-5.893408298492432,1.9919872283935547,0.22739934921264648,0
-5.272968769073486,2.183833122253418,1.5444588661193848,0
-3.8294074535369873,2.023261070251465,2.3408682346343994,0
-2.1429550647735596,1.3030729293823242,2.0814640522003174,0
-2.1370887756347656,0.07767200469970703,0.33937978744506836,0
-2.789332151412964,-1.1913723945617676,-2.0596280097961426,0
-3.070361375808716,-2.23382568359375,-3.583151340484619,0
-3.117116928100586,-2.5464677810668945,-4.143474578857422,0
-3.3093819618225098,-2.070552349090576,-4.176219940185547,0
-3.082785129547119,-1.1459722518920898,-3.9117417335510254,0
-2.483320474624634,0.12213420867919922,-3.619288682937622,0
-1.450777292251587,1.5316333770751953,-3.4611048698425293,0
0.2820407748222351,2.8225364685058594,-3.1791374683380127,0
1.6104106903076172,3.6588964462280273,-3.1881511211395264,0
2.3737735748291016,3.78424072265625,-3.3383703231811523,0
2.411674976348877,3.2201919555664062,-3.8041040897369385,0
2.227308511734009,2.0939369201660156,-4.215522289276123,0
1.6832318305969238,0.8226356506347656,-4.817483425140381,0
1.1411497592926025,-0.3125925064086914,-5.213384628295898,0
0.6872891783714294,-0.9352130889892578,-5.332968711853027,0
0.1872662901878357,-0.9633760452270508,-5.1706671714782715,0
-0.38645991683006287,-0.6841697692871094,-4.633296489715576,0
-0.8763657808303833,-0.32514381408691406,-3.8984622955322266,0
-1.223863124847412,-0.07095146179199219,-2.9627039432525635,0
-1.2464909553527832,0.03279399871826172,-2.1646132469177246,0
-1.0514774322509766,-0.12630653381347656,-1.4790806770324707,0
-0.7244243621826172,-0.44269466400146484,-1.056199312210083,0
-0.33866462111473083,-0.6457920074462891,-0.8814423084259033,0
0.0712849497795105,-0.8884515762329102,-0.8954458236694336,0
0.3472168445587158,-1.1154680252075195,-0.9931471347808838,0
0.45871609449386597,-1.434443473815918,-1.0597879886627197,0
0.47406256198883057,-1.7975196838378906,-1.2340946197509766,0
0.3615882992744446,-2.195216178894043,-1.4274687767028809,0
0.2281179428100586,-2.5654091835021973,-1.7261815071105957,0
0.13750725984573364,-2.8341751098632812,-1.996247410774231,0
0.18592333793640137,-3.061403274536133,-2.1520843505859375,0
-0.2037469744682312,-3.036524772644043,-2.4552624225616455,0
-0.1368246078491211,-2.900944709777832,-2.250532627105713,0
-0.07565754652023315,-2.683551788330078,-2.0811312198638916,0
0.08000051975250244,-2.3773488998413086,-1.886979341506958,0
0.10531902313232422,-2.099727153778076,-1.6246895790100098,0
-0.04024064540863037,-1.7574896812438965,-1.530694842338562,0
-0.10282576084136963,-1.4321088790893555,-1.3342864513397217,0
-0.0751335620880127,-1.1882352828979492,-1.1666871309280396,0
-0.005416154861450195,-1.0210227966308594,-1.0872166156768799,0
0.11763715744018555,-0.8777275085449219,-1.0166583061218262,0
0.27202022075653076,-0.7128124237060547,-0.8283489942550659,0
0.5012726783752441,-0.8441905975341797,-0.7867854833602905,0
0.6839903593063354,-1.0299148559570312,-0.5223850011825562,0
0.6604272127151489,-1.2006683349609375,-0.1669405698776245,0
0.6007826328277588,-1.2752513885498047,-0.03128063678741455,0
0.6197483539581299,-1.4450874328613281,-0.017139792442321777,0
0.7966848611831665,-1.494950294494629,-0.06705772876739502,0
0.7917575836181641,-1.3939447402954102,-0.18074560165405273,0
0.6814001798629761,-1.2475214004516602,-0.29529786109924316,0
0.7288488149642944,-1.282979965209961,-0.3048473596572876,0
0.8242239952087402,-1.373438835144043,-0.19239294528961182,0
0.9342234134674072,-1.523606300354004,-0.10900378227233887,0
1.053978443145752,-1.4272727966308594,-0.08886784315109253,0
1.0991090536117554,-1.3261241912841797,-0.19703924655914307,0
1.1719032526016235,-1.215357780456543,-0.2774882912635803,0
1.242980718612671,-0.9754352569580078,-0.25749140977859497,0
1.2306303977966309,-0.8838977813720703,-0.10987517237663269,0
1.222982406616211,-0.9118270874023438,0.10106974840164185,0
1.2006393671035767,-0.9298992156982422,0.26744478940963745,0
1.237596035003662,-0.9189481735229492,0.3984532654285431,0
1.2237364053726196,-0.9411497116088867,0.4435325860977173,0
1.2167115211486816,-0.9534292221069336,0.4574619233608246,0
1.2192617654800415,-1.0156145095825195,0.4546148478984833,0
1.155411958694458,-1.0535764694213867,0.41591742634773254,0
1.0424861907958984,-1.0458688735961914,0.3868682384490967,0
0.9286783337593079,-1.037999153137207,0.33373698592185974,0
0.7999101281166077,-0.9295568466186523,0.284882128238678,0
0.6588466167449951,-0.773284912109375,0.3307051956653595,0
0.49855685234069824,-0.6792573928833008,0.42494121193885803,0
0.3955147862434387,-0.5278425216674805,0.6386566162109375,0
0.333052396774292,-0.35022449493408203,0.8472002744674683,0
0.34934747219085693,-0.20622539520263672,0.9953757524490356,0
0.31250113248825073,-0.04558277130126953,1.006676435470581,0
0.25548458099365234,0.08150577545166016,0.8503203392028809,0
0.2663915753364563,0.2779245376586914,0.6371365785598755,0
0.17937308549880981,0.4527854919433594,0.4373197555541992,0
0.0944247841835022,0.6659402847290039,0.27566540241241455,0
0.04433232545852661,0.848048210144043,0.2436549961566925,0
-0.02881738543510437,1.1617584228515625,0.14973942935466766,0
0.06138253211975098,1.5184097290039062,0.14423918724060059,0
0.1400204598903656,1.786428451538086,0.2317936271429062,0
0.2930673062801361,1.908498764038086,0.3664237856864929,0
0.5133883953094482,1.848891258239746,0.4639132022857666,0
0.7964818477630615,1.7464570999145508,0.5263683795928955,0
1.120976448059082,1.675339698791504,0.5919753313064575,0
1.4346116781234741,1.611551284790039,0.6607267260551453,0
1.7570288181304932,1.6076593399047852,0.8259652853012085,0
2.0766441822052,1.680318832397461,1.042421817779541,0
2.2809414863586426,1.7959632873535156,1.2743232250213623,0
2.4680471420288086,1.9784555435180664,1.5290687084197998,0
2.714677333831787,2.194239616394043,1.7231241464614868,0
2.9277446269989014,2.2734928131103516,1.8039275407791138,0
3.1242289543151855,2.230710029602051,1.8431117534637451,0
3.3666110038757324,2.0564565658569336,1.802225112915039,0
3.4204540252685547,1.891953468322754,1.7504405975341797,0
3.4843780994415283,1.6582670211791992,1.831038475036621,0
3.488816738128662,1.5563068389892578,1.83060884475708,0
3.5002284049987793,1.5882558822631836,1.7391047477722168,0
3.556344985961914,1.6726064682006836,1.5943787097930908,0
3.5560500621795654,1.8116741180419922,1.5374715328216553,0
3.544320821762085,2.053171157836914,1.4219970703125,0
3.6932499408721924,2.4041099548339844,1.3528738021850586,0
3.638756036758423,2.754354476928711,1.320432424545288,0
3.519137144088745,3.1039018630981445,1.2312641143798828,0
3.460965156555176,3.4264392852783203,1.1497082710266113,0
3.4164576530456543,3.511580467224121,1.0348095893859863,0
3.3499560356140137,3.4887619018554688,0.8003202676773071,0
3.594538450241089,3.3605451583862305,0.5706031918525696,0
3.47705078125,3.031447410583496,0.3811896741390228,0
3.6554646492004395,2.8796262741088867,0.6178981065750122,0
3.6560075283050537,2.6586380004882812,0.6297290921211243,0
3.620677947998047,2.669875144958496,0.18371708691120148,0
3.4069743156433105,2.207700729370117,-0.6021827459335327,0
3.030205726623535,1.700821876525879,-1.4493358135223389,0
2.4624710083007812,1.214045524597168,-2.138071060180664,0
1.8506979942321777,0.5395536422729492,-2.672950029373169,0
1.1434812545776367,0.10821342468261719,-2.859100341796875,0
0.15027686953544617,-0.3239622116088867,-2.8437399864196777,0
-0.8699289560317993,-0.5176982879638672,-2.594325065612793,0
-1.804343342781067,-0.6668462753295898,-2.3156661987304688,0
-2.657334804534912,-0.7379379272460938,-1.9317715167999268,0
-3.325592517852783,-0.7239294052124023,-1.5340995788574219,0
-3.845130205154419,-0.5962915420532227,-1.2386153936386108,0
-4.1906585693359375,-0.2189044952392578,-1.0066444873809814,0
-4.301650524139404,0.2763662338256836,-0.658539891242981,0
-4.048603057861328,0.7457599639892578,-0.04750615358352661,0
-3.6656100749969482,1.3134260177612305,0.6480081081390381,0
-3.19980788230896,1.7207612991333008,1.2207188606262207,0
-2.795844554901123,1.9606866836547852,1.4049479961395264,0
-2.2842936515808105,2.19370174407959,1.354990005493164,0
-1.9235960245132446,2.3602542877197266,1.1934683322906494,0
-1.5599608421325684,2.4104785919189453,0.9929220676422119,0
-1.3838093280792236,2.3447437286376953,0.7905758619308472,0
-1.3028934001922607,2.2206649780273438,0.5911815166473389,0
-1.3666373491287231,2.0119857788085938,0.30917859077453613,0
-1.5359957218170166,1.8670072555541992,0.0312955379486084,0
-1.6325623989105225,1.7975940704345703,-0.3307006359100342,0
-1.6809552907943726,1.7033624649047852,-0.7938768863677979,0
-1.5484508275985718,1.704087257385254,-1.0813487768173218,0
-1.3494263887405396,1.7065696716308594,-1.2606931924819946,0
-1.0958555936813354,1.7299251556396484,-1.4870747327804565,0
-0.8990012407302856,1.5850725173950195,-1.6687182188034058,0
-0.4711483418941498,1.3700923919677734,-1.8934409618377686,0
-0.11030548810958862,1.0202598571777344,-2.1172633171081543,0
0.24503257870674133,0.6548147201538086,-2.312373161315918,0
0.5487982034683228,0.33307647705078125,-2.5397462844848633,0
0.7021623849868774,0.06680583953857422,-2.722783327102661,0
0.49126487970352173,-0.3757896423339844,-2.8529770374298096,0
0.3605627417564392,-0.7717685699462891,-2.792935848236084,0
0.2108888030052185,-1.2190942764282227,-2.3879587650299072,0
0.1806769222021103,-1.8211040496826172,-1.4671883583068848,0
0.1389976590871811,-2.5091681480407715,-0.5215930938720703,0
-0.06442978233098984,-3.1594324111938477,-0.07841944694519043,0
-0.2751460373401642,-3.640784740447998,0.03326606750488281,0
-0.5274813771247864,-4.211802005767822,-0.33202290534973145,0
-0.6934889554977417,-4.597472190856934,-0.7745435237884521,0
-0.6911138296127319,-5.07057523727417,-1.2061548233032227,0
-0.7066366672515869,-5.496978759765625,-1.574831247329712,0
-0.5246589183807373,-5.967377662658691,-1.8766181468963623,0
-0.4368709623813629,-6.369150161743164,-2.090682029724121,0
-0.5337647795677185,-6.678422927856445,-2.222179412841797,0
-0.7028037309646606,-6.644150257110596,-2.3265514373779297,0
-0.7668547034263611,-6.204625606536865,-2.2723679542541504,0
-0.8723812699317932,-5.669157028198242,-2.0424675941467285,0
-0.7423730492591858,-4.985800743103027,-1.803434133529663,0
-0.707693338394165,-4.375125408172607,-1.5043509006500244,0
-0.8164613842964172,-3.961498737335205,-1.305363655090332,0
-0.9230861663818359,-3.7183871269226074,-1.2255234718322754,0
-0.951123058795929,-3.6144890785217285,-1.1547596454620361,0
-0.9885404706001282,-3.7166199684143066,-1.1647582054138184,0
-1.0063031911849976,-3.9599146842956543,-1.2196640968322754,0
-0.9877588748931885,-4.212562084197998,-1.3029232025146484,0
-0.8948038816452026,-4.479251384735107,-1.2974634170532227,0
-0.8972917795181274,-4.752730846405029,-1.2202074527740479,0
-0.8421064019203186,-5.059271812438965,-1.0783863067626953,0
-0.8443318605422974,-5.243387699127197,-0.8600864410400391,0
-0.8111339807510376,-5.374619007110596,-0.5460491180419922,0
-0.8293392658233643,-5.371783256530762,-0.22699904441833496,0
-0.882689356803894,-5.282941818237305,0.12609004974365234,0
-0.9620800018310547,-5.136900424957275,0.5516748428344727,0
-1.046326994895935,-4.909769058227539,0.9876620769500732,0
-1.0233432054519653,-4.58233642578125,1.4722087383270264,0
-1.0106759071350098,-4.226212024688721,1.8974344730377197,0
-0.9389994144439697,-3.7835817337036133,2.2770614624023438,0
-1.00429105758667,-3.270616054534912,2.5381577014923096,0
-1.0718414783477783,-2.710238456726074,2.5039494037628174,0
-1.08745539188385,-2.0131049156188965,2.5359482765197754,0
-0.9321939945220947,-1.259791374206543,2.490509271621704,0
-0.564293384552002,-0.5302581787109375,2.00736403465271,0
-0.051856979727745056,0.19655227661132812,1.1076035499572754,0
0.48626241087913513,1.101663589477539,0.3697507381439209,0
1.1047568321228027,2.678400993347168,0.3832249641418457,0
1.8161125183105469,5.0980987548828125,1.5031321048736572,0
2.2160682678222656,8.286949157714844,4.071002006530762,0
1.5343475341796875,11.333146095275879,7.477751731872559,0
0.9504091143608093,11.692076683044434,10.559669494628906,0
1.5302666425704956,9.77115535736084,11.283815383911133,0
1.358936071395874,8.21688175201416,10.185625076293945,0
1.4325288534164429,7.003237724304199,8.24704360961914,0
1.5174109935760498,5.452946662902832,6.6631574630737305,0
1.9783580303192139,2.7997217178344727,5.0738372802734375,0
2.872783660888672,0.05259895324707031,2.957176446914673,0
3.220179796218872,-0.7187595367431641,1.6175916194915771,0
2.5619161128997803,2.3515100479125977,1.6092233657836914,0
1.1251330375671387,6.7918291091918945,0.20311975479125977,0
0.33881306648254395,10.50756549835205,-2.721802234649658,0
-0.10828796029090881,12.967870712280273,-4.750312328338623,0
-1.0626862049102783,13.113602638244629,-5.439191818237305,0
-1.9762859344482422,10.927816390991211,-6.383423805236816,0
-3.2732224464416504,7.450569152832031,-6.972823143005371,0
-4.453393936157227,4.256077766418457,-6.317584991455078,0
-5.082386016845703,2.582638740539551,-4.657678127288818,0
-5.787829875946045,1.5411558151245117,-3.1168906688690186,0
-6.679347038269043,1.1866893768310547,-0.9650962352752686,0
-6.740948677062988,1.0832242965698242,0.6152505874633789,0
-5.006188869476318,0.5941715240478516,0.712155818939209,0
-3.2813191413879395,-0.02196502685546875,-0.4585397243499756,0
-3.2579874992370605,-0.7090272903442383,-2.7690677642822266,0
-3.3330276012420654,-1.3508548736572266,-4.335507392883301,0
-3.412862777709961,-1.3337383270263672,-4.7472615242004395,0
-3.326057195663452,-0.7340354919433594,-4.395981788635254,0
-2.483920097351074,0.4401845932006836,-3.6000185012817383,0
-1.6602386236190796,2.248363494873047,-2.689131021499634,0
-0.7559918165206909,3.9688634872436523,-2.0831217765808105,0
0.5305050611495972,5.245400428771973,-1.9840481281280518,0
1.7856535911560059,5.7308349609375,-2.7501440048217773,0
2.3891093730926514,5.332455635070801,-3.539743423461914,0
2.105694055557251,4.075345039367676,-3.9720773696899414,0
1.610907793045044,2.411325454711914,-4.633057594299316,0
1.1478506326675415,0.7419214248657227,-5.095377445220947,0
0.9068382978439331,-0.7495288848876953,-5.401117324829102,0
0.7121774554252625,-1.6744537353515625,-5.367341041564941,0
0.6718015074729919,-1.9797401428222656,-5.219936370849609,0
0.6209598183631897,-1.6102161407470703,-4.90444278717041,0
0.5442563891410828,-0.8200759887695312,-4.376590728759766,0
0.20043766498565674,-0.1962451934814453,-3.5973269939422607,0
-0.42799484729766846,0.20809459686279297,-2.8207526206970215,0
-0.8797681331634521,0.3805122375488281,-2.164299249649048,0
-1.1407763957977295,0.43796348571777344,-1.7267526388168335,0
-1.1662344932556152,0.3399496078491211,-1.5243993997573853,0
-0.9643487930297852,0.13002586364746094,-1.5002597570419312,0
-0.7155933976173401,-0.22226619720458984,-1.4856106042861938,0
-0.6314847469329834,-0.5321950912475586,-1.3907744884490967,0
-0.5155676603317261,-0.892949104309082,-1.2140103578567505,0
-0.49645283818244934,-1.2231578826904297,-1.1088186502456665,0
-0.6046578884124756,-1.6880836486816406,-1.000428318977356,0
-0.6912333965301514,-2.273606300354004,-0.9761313199996948,0
-0.8152527809143066,-2.9104418754577637,-1.276818037033081,0
-0.8036309480667114,-3.4527626037597656,-1.6199439764022827,0
-0.9166519641876221,-3.879119396209717,-2.008321762084961,0
-0.9410619735717773,-4.07720947265625,-2.313314437866211,0
-0.7767198085784912,-3.9468860626220703,-2.374907970428467,0
-0.6176612377166748,-3.431265354156494,-2.3317549228668213,0
-0.41628211736679077,-2.8275089263916016,-2.175891637802124,0
-0.3836943507194519,-2.0353684425354004,-1.964113712310791,0
-0.3242693543434143,-1.4064197540283203,-1.9813427925109863,0
-0.34673142433166504,-0.894871711730957,-1.952369213104248,0
-0.2097306251525879,-0.7444133758544922,-1.6955783367156982,0
0.2050786018371582,-0.9378376007080078,-1.3677397966384888,0
0.1662757396697998,-1.223557472229004,-0.9486372470855713,0
0.06205785274505615,-1.4293241500854492,-0.5104958415031433,0
0.0824270248413086,-1.6510262489318848,-0.3405795097351074,0
0.2159029245376587,-1.7117538452148438,-0.3435887098312378,0
0.505834698677063,-1.6930351257324219,-0.3790106177330017,0
0.7198922634124756,-1.5495328903198242,-0.45209503173828125,0
0.7810468673706055,-1.3388099670410156,-0.5100097060203552,0
0.6942050457000732,-1.1209192276000977,-0.2980623245239258,0
0.7877209186553955,-1.0491580963134766,0.11067497730255127,0
1.0451046228408813,-1.011016845703125,0.2423408031463623,0
1.0303786993026733,-1.1521244049072266,0.1221814751625061,0
1.1307594776153564,-1.3119945526123047,0.2858062982559204,0
1.3170149326324463,-1.2969064712524414,0.17811566591262817,0
1.4351792335510254,-1.2529373168945312,0.08730244636535645,0
1.5635277032852173,-1.2925586700439453,0.05078530311584473,0
1.5531682968139648,-1.2913236618041992,0.021585464477539062,0
1.6456023454666138,-1.2469062805175781,0.043224871158599854,0
1.6206172704696655,-1.1928300857543945,0.06318891048431396,0
1.5977654457092285,-1.0621223449707031,0.13874965906143188,0
1.6607913970947266,-0.9648733139038086,0.2650236487388611,0
1.6945444345474243,-0.9320917129516602,0.389346182346344,0
1.7611526250839233,-0.9780330657958984,0.5189353823661804,0
1.7889491319656372,-1.081094741821289,0.5750010013580322,0
1.73958420753479,-1.1550960540771484,0.49765533208847046,0
1.6133389472961426,-1.1283416748046875,0.32730308175086975,0
1.4391460418701172,-1.0535545349121094,0.10893866419792175,0
1.1718761920928955,-0.9355964660644531,-0.10031157732009888,0
0.9533557891845703,-0.7219734191894531,-0.26023638248443604,0
0.7336885333061218,-0.46782970428466797,-0.273311972618103,0
0.6495468616485596,-0.28085994720458984,-0.0967351645231247,0
0.6077303886413574,-0.10601139068603516,0.17103919386863708,0
0.7039749026298523,0.11410140991210938,0.4173456132411957,0
0.7517054677009583,0.3770112991333008,0.570448637008667,0
0.7512757778167725,0.6132993698120117,0.6400785446166992,0
0.6261781454086304,0.8756103515625,0.6095765233039856,0
0.543920636177063,1.0419702529907227,0.5032309889793396,0
0.49217069149017334,1.1818733215332031,0.38134562969207764,0
0.2979940176010132,1.1352043151855469,0.21113091707229614,0
0.21195703744888306,1.0672378540039062,0.033941850066185,0
0.12334465980529785,1.0306415557861328,-0.08040951937437057,0
0.09149473905563354,0.8317241668701172,-0.06475566327571869,0
0.19031652808189392,0.6045951843261719,0.06400235742330551,0
0.3573713004589081,0.38276100158691406,0.2768628001213074,0
0.49676796793937683,0.1566457748413086,0.5424343347549438,0
0.6467790603637695,0.029054641723632812,0.7671111822128296,0
0.7929840087890625,0.018980979919433594,0.9339286684989929,0
1.050071120262146,0.13343238830566406,1.0858161449432373,0
1.2885792255401611,0.24550914764404297,1.2034592628479004,0
1.5945323705673218,0.35759449005126953,1.3515291213989258,0
1.8529242277145386,0.45531558990478516,1.40296471118927,0
2.1115360260009766,0.6247549057006836,1.4511070251464844,0
2.3607306480407715,0.8347282409667969,1.5080329179763794,0
2.5934131145477295,1.0564708709716797,1.52824068069458,0
2.7236835956573486,1.227783203125,1.590746283531189,0
2.9791922569274902,1.3056669235229492,1.7312217950820923,0
3.0873923301696777,1.3523778915405273,1.7722727060317993,0
3.196747303009033,1.5066089630126953,1.7900618314743042,0
3.3621180057525635,1.5027580261230469,1.8099679946899414,0
3.5332610607147217,1.5179262161254883,1.7740724086761475,0
3.7198691368103027,1.5926809310913086,1.4973599910736084,0
3.873687744140625,1.8201303482055664,0.9739336967468262,0
3.6566061973571777,2.200039863586426,0.43242931365966797,0
3.3451430797576904,2.8733091354370117,0.20014961063861847,0
3.0558879375457764,3.6029348373413086,0.36376646161079407,0
2.961137533187866,4.082883834838867,0.7543525695800781,0
3.1521339416503906,4.1437835693359375,0.9615002870559692,0
3.332596778869629,3.8363990783691406,0.6910706758499146,0
3.4049203395843506,3.44573974609375,0.023464739322662354,0
3.2453091144561768,3.148869514465332,-0.6289395689964294,0
3.0431151390075684,2.8692331314086914,-1.0667448043823242,0
2.7317898273468018,2.712146759033203,-1.3725364208221436,0
2.34114408493042,2.668048858642578,-1.7580983638763428,0
2.0712015628814697,2.5576610565185547,-2.056779146194458,0
1.4758553504943848,2.400442123413086,-2.3164141178131104,0
0.7860396504402161,2.230184555053711,-2.574185371398926,0
-0.13400070369243622,1.8917112350463867,-2.7563908100128174,0
-0.8765648007392883,1.4570913314819336,-2.6478283405303955,0
-1.7594974040985107,0.8619813919067383,-2.4959495067596436,0
-2.3612565994262695,0.4772186279296875,-2.052760601043701,0
-3.1078977584838867,0.19017601013183594,-1.5206801891326904,0
-3.454008102416992,-0.004130363464355469,-0.8145750164985657,0
-3.7980833053588867,-0.0748147964477539,-0.20108187198638916,0
-4.043787479400635,0.36989593505859375,0.5036361217498779,0
-4.044760704040527,1.2334051132202148,1.0359148979187012,0
-3.929429769515991,2.0103530883789062,1.3851617574691772,0
-3.7160866260528564,2.734206199645996,1.555928349494934,0
-3.3316330909729004,3.311753273010254,1.5785813331604004,0
-2.9323182106018066,3.690640449523926,1.404222011566162,0
-2.6454882621765137,3.976372718811035,1.2498431205749512,0
-2.437650680541992,4.102184295654297,1.1863574981689453,0
-2.245762348175049,4.1186323165893555,1.0978121757507324,0
-2.0613818168640137,3.959014892578125,0.9739105701446533,0
-2.1899070739746094,3.7958192825317383,0.7734897136688232,0
-2.276434898376465,3.6027565002441406,0.5492062568664551,0
-2.1957287788391113,3.269808769226074,0.26062655448913574,0
-1.8246148824691772,2.971651077270508,-0.1805863380432129,0
-1.573426365852356,2.765666961669922,-0.7195630073547363,0
-1.4252195358276367,2.659229278564453,-1.2903414964675903,0
-1.2174232006072998,2.62136173248291,-1.5611556768417358,0
-0.9764320850372314,2.465404510498047,-1.7351804971694946,0
-0.7005048990249634,2.3705568313598633,-1.8855271339416504,0
-0.4864259958267212,2.138246536254883,-2.1027965545654297,0
-0.20584431290626526,1.9119806289672852,-2.2907521724700928,0
-0.031916797161102295,1.5623960494995117,-2.40085506439209,0
-0.0199907124042511,1.277968406677246,-2.477057933807373,0
0.08655580878257751,1.0244436264038086,-2.603848457336426,0
0.028876125812530518,0.7465839385986328,-2.745046854019165,0
0.05955982208251953,0.3992443084716797,-2.8106701374053955,0
-0.022847980260849,-0.06267070770263672,-2.7585701942443848,0
-0.048100680112838745,-0.5768136978149414,-2.682424545288086,0
-0.07732531428337097,-1.1813397407531738,-2.8551583290100098,0
-0.25280046463012695,-1.6609458923339844,-3.17384672164917,0
-0.5447964072227478,-2.34147310256958,-3.1567564010620117,0
-0.8092564344406128,-3.0965218544006348,-3.051877021789551,0
-1.2855041027069092,-4.024454593658447,-2.915968894958496,0
-1.5610673427581787,-4.884214401245117,-2.551892042160034,0
-1.6327147483825684,-5.520830154418945,-2.267979860305786,0
-1.5291918516159058,-6.0014119148254395,-2.1746597290039062,0
-1.4660565853118896,-6.323516845703125,-2.229372978210449,0
-1.4293385744094849,-6.496596336364746,-2.344229221343994,0
-1.3162976503372192,-6.460785865783691,-2.481574535369873,0
-1.3163994550704956,-6.022446632385254,-2.5820889472961426,0
-1.360929250717163,-5.440207481384277,-2.610177993774414,0
-1.3367998600006104,-4.989239692687988,-2.5612356662750244,0
-1.5474975109100342,-4.425078868865967,-2.3979921340942383,0
-1.5521045923233032,-3.9411425590515137,-2.221904993057251,0
-1.5385621786117554,-3.441633701324463,-1.9708189964294434,0
-1.3547136783599854,-3.0371713638305664,-1.5692112445831299,0
-1.2110159397125244,-2.78096342086792,-1.319349765777588,0
-1.2172086238861084,-2.8573694229125977,-1.2800300121307373,0
-1.2591348886489868,-3.0821237564086914,-1.3525772094726562,0
-1.313536524772644,-3.3571414947509766,-1.3884599208831787,0
-1.4560673236846924,-3.7470202445983887,-1.282350778579712,0
-1.4262630939483643,-4.316214561462402,-1.1155641078948975,0
-1.153726577758789,-5.035815238952637,-0.9405694007873535,0
-1.0688636302947998,-5.678622245788574,-0.8452591896057129,0
-1.1483104228973389,-5.3792877197265625,-0.83378005027771,0
-1.2748606204986572,-5.1501874923706055,-0.9755954742431641,0
-1.4187161922454834,-5.110365867614746,-1.165996789932251,0
-1.49678635597229,-5.077545642852783,-1.1185429096221924,0
-1.580444097518921,-5.092197418212891,-0.790611982345581,0
-1.6435139179229736,-5.228175163269043,-0.36920762062072754,0
-1.5187690258026123,-5.207702159881592,-0.01489567756652832,0
-1.592818260192871,-5.047371864318848,0.3582167625427246,0
-1.7714085578918457,-4.969513893127441,0.5110735893249512,0
-1.9442387819290161,-5.023886203765869,0.44110703468322754,0
-1.8695337772369385,-4.752624988555908,-0.06434392929077148,0
-1.4916287660598755,-3.9809317588806152,-0.3995094299316406,0
-1.0027366876602173,-3.012922763824463,-0.713742733001709,0
-0.8281494379043579,-2.20473575592041,-1.2685697078704834,0
-0.6144797801971436,-1.3238539695739746,-1.5645467042922974,0
-0.12370741367340088,0.2277364730834961,-1.543152928352356,0
0.22116202116012573,2.657712936401367,-1.4194749593734741,0
0.026097416877746582,5.549875259399414,-1.1564475297927856,0
-0.7156347036361694,8.562642097473145,-0.10023188591003418,0
-1.3342787027359009,11.16562557220459,2.140174388885498,0
-1.3624486923217773,12.484044075012207,5.878304481506348,0
0.044557929039001465,11.765512466430664,9.941607475280762,0
1.1026890277862549,10.952167510986328,11.934157371520996,0
1.7988804578781128,10.189251899719238,11.760581970214844,0
2.3926751613616943,7.954315185546875,10.60849380493164,0
2.9169347286224365,4.162478446960449,8.778325080871582,0
3.393996000289917,0.4081544876098633,5.752559185028076,0
3.268160104751587,-2.1606245040893555,2.6328341960906982,0
2.568631649017334,-3.107860565185547,0.05754876136779785,0
1.6781606674194336,-1.882448673248291,-2.4858922958374023,0
1.5086866617202759,1.6087923049926758,-4.478708267211914,0
