AccX,AccY,AccZ,stepCount
-0.591204047203064,-4.264206409454346,-0.43456172943115234,-1.5294392108917236
-0.5795163512229919,-4.08548641204834,-0.12338876724243164,1.183478832244873
-0.5099053382873535,-3.8904552459716797,0.22888612747192383,-3.0904629230499268
-0.42587345838546753,-3.6981492042541504,0.5337748527526855,2.153653144836426
-0.2484448254108429,-3.482029438018799,0.6858682632446289,-0.3024807274341583
-0.21042513847351074,-3.155698299407959,0.8017411231994629,2.411759376525879
-0.4312695264816284,-2.8813862800598145,0.8615078926086426,-1.582573652267456
-0.41067394614219666,-2.5269618034362793,0.9889054298400879,1.0740138292312622
-0.1637774109840393,-2.125425338745117,0.9767942428588867,-6.195160865783691
-0.3081796169281006,-1.7454967498779297,1.1009163856506348,0.5296362042427063
-0.371255487203598,-1.3028779029846191,1.4359898567199707,4.029257774353027
-0.2904154658317566,-0.7943992614746094,1.5706706047058105,0
-0.03200995922088623,-0.22136306762695312,1.535635232925415,0
0.2673457860946655,0.649470329284668,1.2413578033447266,0
0.5924046635627747,1.804616928100586,0.97900390625,0
1.291142225265503,3.333035469055176,0.8825609683990479,0
1.6149730682373047,5.203543663024902,0.9750349521636963,0
1.1286122798919678,6.837033271789551,1.6019270420074463,0
0.5240227580070496,7.436702728271484,2.8781518936157227,0
0.07187467813491821,6.93550968170166,4.276078224182129,0
-0.4226534366607666,6.093731880187988,5.421444892883301,0
-0.8994351625442505,5.058874130249023,6.056463241577148,0
-1.149804949760437,4.186144828796387,6.3873724937438965,0
-1.1531628370285034,3.0654449462890625,6.396721839904785,0
-1.033205270767212,1.6343145370483398,5.956223964691162,0
-0.963856041431427,0.23526477813720703,4.924583911895752,0
-1.0213572978973389,-0.8991527557373047,3.2794127464294434,0
-1.1255214214324951,-0.9269332885742188,1.1844768524169922,0
-1.1431649923324585,0.40657806396484375,-0.5526480674743652,0
-1.2383906841278076,2.597172737121582,-1.8142917156219482,0
-1.295244812965393,5.104579925537109,-2.8171424865722656,0
-1.163909673690796,7.137697219848633,-3.996866464614868,0
-0.9417444467544556,8.644463539123535,-4.690199375152588,0
-0.9741151928901672,8.807534217834473,-4.871521949768066,0
-1.2945969104766846,7.914374351501465,-4.774562835693359,0
-1.8073511123657227,6.541572570800781,-5.082385063171387,0
-2.591341495513916,4.733639717102051,-5.2613115310668945,0
-3.036519765853882,2.5754756927490234,-4.864235877990723,0
-3.4382071495056152,0.8486452102661133,-3.362328052520752,0
-3.993504285812378,0.1018819808959961,-1.4243593215942383,0
-4.002065658569336,0.12114429473876953,-0.2996244430541992,0
-3.173598289489746,0.32491302490234375,0.31107473373413086,0
-2.1197638511657715,0.4021482467651367,0.3456583023071289,0
-1.9904730319976807,0.27747249603271484,-0.414949893951416,0
-2.5661611557006836,-0.09774017333984375,-1.3379435539245605,0
-2.9857864379882812,-0.5858898162841797,-2.025071382522583,0
-3.168771505355835,-0.9755668640136719,-2.3910973072052,0
-2.8972644805908203,-1.0162062644958496,-2.701658248901367,0
-2.459364414215088,-0.6392955780029297,-3.013367176055908,0
-1.8774914741516113,0.08179664611816406,-3.1871955394744873,0
-1.4116672277450562,0.9844532012939453,-3.1612234115600586,0
-0.7995131015777588,1.8074684143066406,-2.850646495819092,0
-0.2349422574043274,2.3135595321655273,-2.5264103412628174,0
0.2161455750465393,2.3878345489501953,-2.476243495941162,0
0.47755032777786255,2.229228973388672,-2.8333377838134766,0
0.4723460078239441,1.8381567001342773,-3.375190258026123,0
0.34171539545059204,1.3037834167480469,-3.93774151802063,0
0.3128405809402466,0.769993782043457,-4.191982269287109,0
0.3187648057937622,0.15574169158935547,-4.256630897521973,0
0.43527543544769287,-0.3880758285522461,-4.1352219581604,0
0.5358965396881104,-0.7371501922607422,-3.9503185749053955,0
0.6176862716674805,-0.8439970016479492,-3.6969680786132812,0
0.5002515316009521,-0.9075517654418945,-3.357846260070801,0
0.5398428440093994,-0.8683891296386719,-2.987272262573242,0
0.5324620008468628,-0.7818450927734375,-2.6897494792938232,0
0.5036002397537231,-0.7365560531616211,-2.4597673416137695,0
0.5866529941558838,-0.7515249252319336,-2.330617666244507,0
0.6306082010269165,-0.8359651565551758,-2.228572130203247,0
0.5086721181869507,-0.9225053787231445,-2.190244197845459,0
0.41499388217926025,-0.9535694122314453,-2.070280075073242,0
0.13957035541534424,-0.8956098556518555,-1.9362999200820923,0
-0.1593571901321411,-0.8969268798828125,-1.7575093507766724,0
-0.44562578201293945,-0.9191904067993164,-1.5269451141357422,0
-0.7240682244300842,-0.9480094909667969,-1.3451809883117676,0
-0.9587451219558716,-0.8733081817626953,-1.1909955739974976,0
-1.0446019172668457,-0.8242254257202148,-1.0790742635726929,0
-1.137460708618164,-0.7145957946777344,-0.9808496236801147,0
-1.2066152095794678,-0.7118968963623047,-0.8650398254394531,0
-1.3145842552185059,-0.7060317993164062,-0.8486547470092773,0
-1.3632181882858276,-0.6899194717407227,-0.8691926002502441,0
-1.3334174156188965,-0.6492929458618164,-1.0101429224014282,0
-1.4069087505340576,-0.6249370574951172,-1.0917325019836426,0
-1.3507128953933716,-0.6290016174316406,-1.2166287899017334,0
-1.333771824836731,-0.6186885833740234,-1.3652211427688599,0
-1.3791172504425049,-0.6851253509521484,-1.5322949886322021,0
-1.4001654386520386,-0.7493972778320312,-1.6866655349731445,0
-1.334520697593689,-0.7373256683349609,-1.8048436641693115,0
-1.2158117294311523,-0.7277383804321289,-1.9162557125091553,0
-1.0685303211212158,-0.6296262741088867,-1.882550597190857,0
-0.9839498400688171,-0.5266923904418945,-1.847579002380371,0
-0.7781848907470703,-0.4285154342651367,-1.7968242168426514,0
-0.631068766117096,-0.4044675827026367,-1.6582163572311401,0
-0.481029748916626,-0.44010257720947266,-1.5820808410644531,0
-0.25437676906585693,-0.5832157135009766,-1.4363107681274414,0
-0.08064043521881104,-0.6950016021728516,-1.270881175994873,0
0.02558457851409912,-0.8352832794189453,-1.217012643814087,0
0.1815354824066162,-0.8796863555908203,-1.209937334060669,0
0.31342029571533203,-1.0196905136108398,-1.1968603134155273,0
0.3783913850784302,-1.1834564208984375,-1.1921360492706299,0
0.3863248825073242,-1.1580734252929688,-1.277509331703186,0
0.45463132858276367,-1.072800636291504,-1.276552677154541,0
0.5303812026977539,-0.9634628295898438,-1.1706550121307373,0
0.5723048448562622,-0.8658761978149414,-1.0268363952636719,0
0.6517951488494873,-0.7130441665649414,-0.9095583558082581,0
0.7111300230026245,-0.6078100204467773,-0.7613873481750488,0
0.7865849733352661,-0.609889030456543,-0.6378053426742554,0
0.7256786823272705,-0.5661544799804688,-0.4817838668823242,0
0.6174054145812988,-0.684722900390625,-0.4060109853744507,0
0.5291382074356079,-0.6474218368530273,-0.3555833101272583,0
0.36500585079193115,-0.6887922286987305,-0.2920069694519043,0
0.2804206609725952,-0.8015689849853516,-0.28696733713150024,0
0.26127493381500244,-0.7370328903198242,-0.35492610931396484,0
0.19760000705718994,-0.7273492813110352,-0.3836138844490051,0
0.2186039686203003,-0.7318286895751953,-0.3467237949371338,0
0.19989168643951416,-0.7217836380004883,-0.2467402219772339,0
0.24663829803466797,-0.7235498428344727,-0.13621878623962402,0
0.21990966796875,-0.7944803237915039,-0.03914189338684082,0
0.2249741554260254,-0.7934141159057617,-0.012971639633178711,0
0.2021263837814331,-0.7658920288085938,-0.06011539697647095,0
0.18948686122894287,-0.75018310546875,-0.03230828046798706,0
0.13430297374725342,-0.7964859008789062,-0.0013045072555541992,0
0.11786174774169922,-0.8449811935424805,0.12409567832946777,0
0.07788455486297607,-0.85504150390625,0.2890700101852417,0
0.09074282646179199,-0.8745384216308594,0.41010552644729614,0
0.11331820487976074,-0.8747844696044922,0.4874085783958435,0
0.10256326198577881,-0.8295431137084961,0.5932560563087463,0
0.16840112209320068,-0.7747535705566406,0.6467034220695496,0
0.3321707248687744,-0.7176170349121094,0.6840601563453674,0
0.4069807529449463,-0.6270160675048828,0.640906035900116,0
0.5124616622924805,-0.6010141372680664,0.4718741774559021,0
0.6534684896469116,-0.5797691345214844,0.44019514322280884,0
0.631492018699646,-0.5417337417602539,0.33750540018081665,0
0.6862829923629761,-0.4774284362792969,0.31466567516326904,0
0.7198020219802856,-0.48014259338378906,0.3930596709251404,0
0.6722713708877563,-0.5832443237304688,0.36909860372543335,0
0.651504397392273,-0.7005147933959961,0.29510748386383057,0
0.6386191844940186,-0.8056621551513672,0.2786117494106293,0
0.6001944541931152,-0.8317461013793945,0.16865986585617065,0
0.5983315706253052,-0.8410120010375977,-0.0013245642185211182,0
0.5849670171737671,-0.7736845016479492,-0.128298819065094,0
0.5670859813690186,-0.7398386001586914,-0.219125896692276,0
0.5203895568847656,-0.6413545608520508,-0.30219459533691406,0
0.5068947076797485,-0.49981021881103516,-0.3701542615890503,0
0.452473521232605,-0.320037841796875,-0.44707784056663513,0
0.49841034412384033,0.02223968505859375,-0.46623221039772034,0
0.4485975503921509,0.35944175720214844,-0.38492417335510254,0
0.44897186756134033,0.6413726806640625,-0.22278578579425812,0
0.41813206672668457,0.9852733612060547,-0.05690845847129822,0
0.4544426202774048,1.4221057891845703,0.23207329213619232,0
0.4551488161087036,1.860865592956543,0.533953070640564,0
0.5422712564468384,2.248934745788574,0.7361264228820801,0
0.6345241069793701,2.490706443786621,0.9270423650741577,0
0.7056033611297607,2.605484962463379,1.0899227857589722,0
0.8582983016967773,2.684286117553711,1.2009693384170532,0
0.9969245195388794,2.7199649810791016,1.3177448511123657,0
1.2195607423782349,2.7436532974243164,1.435462236404419,0
1.4829336404800415,2.860576629638672,1.4989515542984009,0
1.7391619682312012,3.041916847229004,1.5295363664627075,0
2.055227756500244,3.160856246948242,1.5270755290985107,0
2.347269058227539,3.186385154724121,1.5417485237121582,0
2.6031994819641113,3.164060592651367,1.5184283256530762,0
2.782313823699951,3.0580787658691406,1.5359203815460205,0
3.009288787841797,2.650920867919922,1.6085679531097412,0
2.864832878112793,2.7846899032592773,1.417146921157837,0
2.982647657394409,2.817913055419922,1.274296760559082,0
3.17331600189209,2.762681007385254,1.1821476221084595,0
3.151984691619873,2.733901023864746,1.0831396579742432,0
3.1240944862365723,2.772235870361328,0.9747440218925476,0
3.127821445465088,2.813068389892578,0.9310925006866455,0
3.182178258895874,2.882730484008789,0.9548252820968628,0
3.1459271907806396,2.84014892578125,0.9003514647483826,0
3.1839447021484375,2.730945587158203,0.8062461018562317,0
3.2148022651672363,2.5624189376831055,0.5815908312797546,0
3.1738898754119873,2.3681631088256836,0.2955738306045532,0
3.1762685775756836,2.1315135955810547,-0.014041207730770111,0
3.028513193130493,1.9147329330444336,-0.28052207827568054,0
2.76945424079895,1.7919673919677734,-0.5760796070098877,0
2.531285285949707,1.6746835708618164,-0.8629466891288757,0
2.2381417751312256,1.3811979293823242,-1.0599347352981567,0
1.9004449844360352,0.9548120498657227,-1.2364656925201416,0
1.504394769668579,0.4770793914794922,-1.5481895208358765,0
1.086580753326416,-0.044623374938964844,-1.984067678451538,0
0.5903056859970093,-0.48093128204345703,-2.547485589981079,0
0.08339947462081909,-0.9106311798095703,-3.0216705799102783,0
-0.4834985136985779,-1.216303825378418,-3.3212690353393555,0
-1.0594333410263062,-1.4409761428833008,-3.2971041202545166,0
-1.713089942932129,-1.663736343383789,-3.077834367752075,0
-2.2357254028320312,-1.875227928161621,-2.8422014713287354,0
-2.8016762733459473,-2.061255931854248,-2.6673145294189453,0
-3.185868740081787,-2.186006546020508,-2.440094232559204,0
-3.5379788875579834,-2.2137069702148438,-2.1426563262939453,0
-3.6212639808654785,-2.2188572883605957,-1.798708200454712,0
-3.5830090045928955,-2.1206326484680176,-1.321408748626709,0
-3.3550233840942383,-2.003376007080078,-0.8207600116729736,0
-2.848738193511963,-1.7933502197265625,-0.44678008556365967,0
-2.259153127670288,-1.5601511001586914,-0.26705455780029297,0
-1.8592995405197144,-1.294173240661621,-0.2590447664260864,0
-1.55754816532135,-0.9878654479980469,-0.5187022686004639,0
-1.5534815788269043,-0.6548862457275391,-0.8271887302398682,0
-1.5433354377746582,-0.20852279663085938,-0.9963915348052979,0
-1.8213785886764526,0.27057456970214844,-1.0656344890594482,0
-2.2248222827911377,0.8498554229736328,-0.9197695255279541,0
-2.5653982162475586,1.304295539855957,-0.5629034042358398,0
-2.857126474380493,1.7434806823730469,-0.1912093162536621,0
-2.877805709838867,2.05429744720459,0.0475924015045166,0
-2.7289884090423584,2.34405517578125,-0.007205486297607422,0
-2.519503116607666,2.6317319869995117,-0.34740233421325684,0
-1.831573486328125,2.890927314758301,-0.8528211116790771,0
-1.3263788223266602,2.9422616958618164,-1.5517733097076416,0
-0.8281279802322388,3.0111379623413086,-2.3326544761657715,0
-0.44476118683815,2.555058479309082,-2.584092617034912,0
-0.36765056848526,1.7610654830932617,-2.425955295562744,0
-0.3552969992160797,0.9185352325439453,-2.0586323738098145,0
-0.3098284900188446,0.1251077651977539,-1.7921652793884277,0
-0.375252366065979,-0.5575103759765625,-1.537100076675415,0
-0.38451647758483887,-1.3497967720031738,-1.3716542720794678,0
-0.3377531170845032,-1.8693127632141113,-1.3670556545257568,0
-0.28718632459640503,-2.3174948692321777,-1.4917783737182617,0
-0.24843749403953552,-2.7304491996765137,-1.6955013275146484,0
-0.39494821429252625,-3.074946880340576,-1.9039409160614014,0
-0.46115171909332275,-3.3751235008239746,-2.014202117919922,0
-0.4676554799079895,-3.633584499359131,-2.117288589477539,0
-0.5734230279922485,-4.00105619430542,-2.1824309825897217,0
-0.6550486087799072,-4.403499603271484,-2.159391403198242,0
-0.816864013671875,-4.793190002441406,-2.165473461151123,0
-0.9557090997695923,-4.952569961547852,-2.148216724395752,0
-1.0596628189086914,-4.922695159912109,-2.143439531326294,0
-1.0431725978851318,-4.548599720001221,-2.004922389984131,0
-1.0121489763259888,-4.141488552093506,-1.8501732349395752,0
-0.8817968368530273,-3.6702418327331543,-1.6506004333496094,0
-0.8331084251403809,-3.268833637237549,-1.4300785064697266,0
-0.7305668592453003,-2.984968662261963,-1.3416876792907715,0
-0.7825336456298828,-2.9093127250671387,-1.3375458717346191,0
-0.8600672483444214,-2.938660144805908,-1.3508281707763672,0
-0.9413721561431885,-3.0322155952453613,-1.3576781749725342,0
-1.1384787559509277,-3.2879691123962402,-1.360475778579712,0
-1.2574156522750854,-3.605353832244873,-1.3662900924682617,0
-1.3770029544830322,-3.8791794776916504,-1.2721288204193115,0
-1.4588098526000977,-4.107215404510498,-1.1472349166870117,0
-1.6032865047454834,-4.258450508117676,-0.9317898750305176,0
-1.6334593296051025,-4.330592632293701,-0.6832084655761719,0
-1.5927331447601318,-4.361983299255371,-0.3607902526855469,0
-1.5151060819625854,-4.412388801574707,-0.0482635498046875,0
-1.4295852184295654,-4.417123317718506,0.20892620086669922,0
-1.2789990901947021,-4.349862575531006,0.4873957633972168,0
-1.1712051630020142,-4.1891093254089355,0.7417526245117188,0
-1.082174301147461,-3.9443068504333496,0.943056583404541,0
-0.9831201434135437,-3.615334987640381,1.138944149017334,0
-0.8160768151283264,-3.1732687950134277,1.3001513481140137,0
-0.7063745260238647,-2.5939478874206543,1.5573768615722656,0
-0.6740168333053589,-1.9440088272094727,1.9643516540527344,0
-0.4743528664112091,-1.3449068069458008,2.4789175987243652,0
-0.1830475926399231,-0.6596555709838867,2.8052234649658203,0
-0.02863311767578125,0.12696456909179688,2.8672659397125244,0
0.5417413115501404,1.1164722442626953,2.6455440521240234,0
1.1822571754455566,2.448788642883301,2.1267247200012207,0
1.8284907341003418,3.952566146850586,1.8051109313964844,0
2.397012710571289,5.767080307006836,1.7933080196380615,0
2.544888496398926,7.521590232849121,2.198306083679199,0
2.2050652503967285,8.644601821899414,2.9486501216888428,0
1.7597222328186035,8.38551139831543,3.9332995414733887,0
1.4068505764007568,7.216283798217773,5.006128311157227,0
1.0652728080749512,5.706575393676758,5.535115718841553,0
0.6643294095993042,4.198234558105469,5.665868282318115,0
0.3112329840660095,2.6352672576904297,5.673798084259033,0
0.19340938329696655,0.9321298599243164,5.5963969230651855,0
0.14627903699874878,-0.8416528701782227,4.852484226226807,0
-0.016007542610168457,-2.248086452484131,3.0183095932006836,0
-0.7132541537284851,-2.521360397338867,0.9862632751464844,0
-1.2037506103515625,-0.9222784042358398,-0.23392915725708008,0
-1.327810287475586,1.7225885391235352,-1.3856525421142578,0
-1.223497986793518,4.313952445983887,-2.2417569160461426,0
-1.2121756076812744,6.970878601074219,-3.96409273147583,0
-1.2601213455200195,9.168736457824707,-5.381674766540527,0
-1.637876272201538,10.794428825378418,-5.383230209350586,0
-2.849018096923828,11.235970497131348,-4.686147689819336,0
-4.45604133605957,10.895759582519531,-3.8440208435058594,0
-6.284005641937256,9.475385665893555,-3.225472927093506,0
-7.722368240356445,6.592419624328613,-2.5719690322875977,0
-7.193937301635742,2.9723501205444336,-1.8623011112213135,0
-6.377439498901367,0.5251665115356445,-1.136181354522705,0
-6.248233318328857,0.11715316772460938,-0.3852577209472656,0
-5.857658863067627,0.3904685974121094,0.017319679260253906,0
-5.125415325164795,0.47671985626220703,0.13441228866577148,0
-4.520406723022461,0.4062643051147461,-0.0882115364074707,0
-4.139873027801514,0.20771312713623047,-0.7142143249511719,0
-3.8401308059692383,-0.024535179138183594,-1.3629868030548096,0
-3.385101079940796,-0.35541248321533203,-1.917051076889038,0
-2.806432008743286,-0.6578054428100586,-2.346238613128662,0
-2.2304673194885254,-0.8450479507446289,-2.7237582206726074,0
-1.6832219362258911,-0.7993583679199219,-3.175628900527954,0
-1.1240620613098145,-0.6133270263671875,-3.653583288192749,0
-0.5872018337249756,-0.20026874542236328,-4.027651309967041,0
0.2508353590965271,0.30117034912109375,-4.216974258422852,0
0.9231846928596497,0.6468963623046875,-4.239960670471191,0
1.5627434253692627,0.7266988754272461,-4.250743865966797,0
1.9753665924072266,0.6024093627929688,-4.13725471496582,0
2.264263153076172,0.30473899841308594,-4.081762790679932,0
2.435086965560913,-0.171051025390625,-4.236395359039307,0
2.2174553871154785,-0.3509788513183594,-4.537181854248047,0
1.7803245782852173,-0.3423900604248047,-4.979165077209473,0
1.2857484817504883,-0.2118539810180664,-5.481504917144775,0
0.6670286655426025,-0.09042644500732422,-5.645373344421387,0
0.12705004215240479,-0.054386138916015625,-5.329704284667969,0
-0.23086023330688477,-0.11565971374511719,-4.554876327514648,0
-0.44106411933898926,-0.3486347198486328,-3.40663743019104,0
-0.6807475686073303,-0.7270307540893555,-2.259296417236328,0
-0.7991909980773926,-1.0928192138671875,-1.4682726860046387,0
-0.6351363658905029,-1.4650297164916992,-1.0042964220046997,0
-0.5055258274078369,-1.8673639297485352,-0.7548327445983887,0
-0.31780505180358887,-2.2063498497009277,-0.7008011341094971,0
-0.21098709106445312,-2.615891456604004,-0.6748242378234863,0
-0.2041996717453003,-2.8663763999938965,-0.593163013458252,0
-0.2828209400177002,-2.989225387573242,-0.5847107172012329,0
-0.45615315437316895,-2.9943532943725586,-0.6392784118652344,0
-0.5998218655586243,-2.843822956085205,-0.7632997035980225,0
-0.6806969046592712,-2.446995735168457,-1.035291314125061,0
-0.7062963843345642,-1.971562385559082,-1.3663833141326904,0
-0.6338232755661011,-1.3744869232177734,-1.7065277099609375,0
-0.5686545968055725,-0.7754049301147461,-2.00816011428833,0
-0.7118604183197021,-0.2747049331665039,-2.278515577316284,0
-0.7164137363433838,0.09182453155517578,-2.364457607269287,0
-0.757042407989502,0.30283069610595703,-2.435979127883911,0
-0.704487144947052,0.32024669647216797,-2.440558433532715,0
-0.6256657838821411,0.3021993637084961,-2.481579542160034,0
-0.4510844945907593,0.19368934631347656,-2.307880163192749,0
-0.42510008811950684,0.025827407836914062,-2.000359296798706,0
-0.3302781581878662,-0.3687267303466797,-1.7475950717926025,0
-0.0851907730102539,-0.7028827667236328,-1.4700565338134766,0
0.17831265926361084,-1.1511468887329102,-1.2184425592422485,0
0.41478192806243896,-1.3235349655151367,-0.8760411739349365,0
0.8021872043609619,-1.7274060249328613,-0.7924294471740723,0
0.9003278017044067,-1.9033522605895996,-0.7665613889694214,0
0.9312927722930908,-1.7702865600585938,-0.8006166815757751,0
1.160743236541748,-1.6299476623535156,-0.803340494632721,0
1.368836522102356,-1.3772001266479492,-0.8249620795249939,0
1.464809775352478,-1.1173524856567383,-0.8347196578979492,0
1.4844802618026733,-0.840785026550293,-0.7348710298538208,0
1.4160102605819702,-0.635991096496582,-0.5519533753395081,0
1.3050063848495483,-0.512425422668457,-0.4131397604942322,0
1.1781351566314697,-0.48437976837158203,-0.2850620746612549,0
0.9401928186416626,-0.6259269714355469,-0.27545398473739624,0
0.758691668510437,-0.7192516326904297,-0.3103259205818176,0
0.5115150213241577,-0.7524442672729492,-0.3994011878967285,0
0.306390643119812,-0.7280025482177734,-0.43736886978149414,0
0.07613158226013184,-0.7153387069702148,-0.43617862462997437,0
-0.15806663036346436,-0.8005294799804688,-0.3522489666938782,0
-0.3194856643676758,-0.8400745391845703,-0.23053014278411865,0
-0.4773901700973511,-0.8101615905761719,-0.16656309366226196,0
-0.5453625917434692,-0.82330322265625,-0.1341075897216797,0
-0.7625648379325867,-0.8077163696289062,-0.12363946437835693,0
-0.817537784576416,-0.6798105239868164,-0.010801315307617188,0
-0.8440931439399719,-0.6381969451904297,0.045870065689086914,0
-0.9161772727966309,-0.6421422958374023,0.2183694839477539,0
-0.9381885528564453,-0.6533136367797852,0.3820596933364868,0
-0.831365168094635,-0.6932096481323242,0.508303165435791,0
-0.6727340817451477,-0.7976284027099609,0.6093378067016602,0
-0.4866507053375244,-0.932988166809082,0.6763278841972351,0
-0.2544974088668823,-1.1183242797851562,0.6547895073890686,0
-0.10115492343902588,-1.3033056259155273,0.5691514611244202,0
0.11414742469787598,-1.3850641250610352,0.41263148188591003,0
0.3887052536010742,-1.3613176345825195,0.2935827374458313,0
0.5859627723693848,-1.3899831771850586,0.13351821899414062,0
0.6938741207122803,-1.2461938858032227,-0.05775390565395355,0
0.9014707803726196,-0.9181890487670898,-0.26099538803100586,0
0.95050048828125,-0.7552928924560547,-0.2539260983467102,0
0.9298547506332397,-0.34841442108154297,-0.43964192271232605,0
0.9090840816497803,0.1395425796508789,-0.5584263205528259,0
0.8906906843185425,0.548248291015625,-0.6448531150817871,0
0.8053853511810303,0.7988643646240234,-0.6181471943855286,0
0.6150796413421631,1.0254573822021484,-0.47871801257133484,0
0.36301660537719727,1.2901887893676758,-0.3775923252105713,0
0.23121285438537598,1.499709129333496,-0.1593790501356125,0
0.018647432327270508,1.742539405822754,0.11371465027332306,0
-0.016404569149017334,1.9564590454101562,0.3629194498062134,0
0.06136775016784668,2.119969367980957,0.6005326509475708,0
0.23969107866287231,2.1877212524414062,0.8270316123962402,0
0.4798818826675415,2.257892608642578,0.9517734050750732,0
0.8054987788200378,2.3687658309936523,1.020690679550171,0
1.1015372276306152,2.3864002227783203,1.0293304920196533,0
1.3728656768798828,2.456759452819824,0.9801768064498901,0
1.667398452758789,2.4530439376831055,0.89734947681427,0
1.9063377380371094,2.4685792922973633,0.8071571588516235,0
2.144974708557129,2.371811866760254,0.8243477940559387,0
2.299975872039795,2.3302173614501953,0.781200647354126,0
2.4196033477783203,2.2862911224365234,0.8280029296875,0
2.492419719696045,2.2567272186279297,0.8711838722229004,0
2.5622599124908447,1.909097671508789,1.197693109512329,0
2.4396090507507324,2.023257255554199,1.2032716274261475,0
2.4281253814697266,2.22318172454834,1.3991241455078125,0
2.460066318511963,2.4561538696289062,1.5405998229980469,0
2.4792110919952393,2.810622215270996,1.5842580795288086,0
2.5756771564483643,3.059328079223633,1.7385432720184326,0
2.73687744140625,3.1522388458251953,1.7911001443862915,0
2.9386374950408936,3.206727981567383,1.7136619091033936,0
3.0701687335968018,3.440413475036621,1.331148624420166,0
3.178574800491333,3.7095937728881836,0.9613228440284729,0
3.1674602031707764,3.964000701904297,0.6608942747116089,0
3.273674488067627,4.143881797790527,0.5993554592132568,0
3.399487018585205,4.0030670166015625,0.7431081533432007,0
3.380772590637207,3.5371646881103516,0.7902934551239014,0
3.3905293941497803,3.026331901550293,0.6494045257568359,0
3.3096017837524414,2.3463220596313477,0.34152454137802124,0
3.1476545333862305,1.8536977767944336,-0.04760265350341797,0
3.004974603652954,1.4455432891845703,-0.3697304427623749,0
2.7763936519622803,0.9234399795532227,-0.7227296829223633,0
2.366560935974121,0.5889663696289062,-0.9340227842330933,0
1.8858428001403809,0.1455545425415039,-1.1538960933685303,0
1.368004560470581,-0.2749977111816406,-1.3939660787582397,0
0.7821515202522278,-0.6510372161865234,-1.5582753419876099,0
0.21940654516220093,-1.0733280181884766,-1.5581364631652832,0
-0.22878730297088623,-1.3001775741577148,-1.561025619506836,0
-0.5855733752250671,-1.5469074249267578,-1.6530669927597046,0
-0.8761551380157471,-1.7511978149414062,-1.9661939144134521,0
-1.1378703117370605,-1.8125228881835938,-2.270860195159912,0
-1.4676496982574463,-1.9318246841430664,-2.43971848487854,0
-1.92874014377594,-2.0851030349731445,-2.4335341453552246,0
-2.4148402214050293,-2.1479721069335938,-2.273042917251587,0
-2.930130958557129,-2.2448482513427734,-2.108447551727295,0
-3.2644200325012207,-2.356508731842041,-1.7763664722442627,0
-3.3930840492248535,-2.2845816612243652,-1.3010632991790771,0
-3.19512939453125,-1.9675912857055664,-0.7357275485992432,0
-2.727261781692505,-1.4209442138671875,-0.2191629409790039,0
-2.052480697631836,-0.9422016143798828,0.16825568675994873,0
-1.2846002578735352,-0.47200775146484375,0.1619168519973755,0
-0.6839541792869568,-0.08693981170654297,-0.29926013946533203,0
-0.2968672811985016,0.2539987564086914,-1.0264374017715454,0
-0.1638665497303009,0.5536947250366211,-1.7502751350402832,0
-0.26962679624557495,0.9804468154907227,-2.430539131164551,0
-0.5293066501617432,1.4944801330566406,-2.8334579467773438,0
-1.035548448562622,1.890859603881836,-2.8552968502044678,0
-1.5369683504104614,2.306422233581543,-2.535979986190796,0
-2.0669198036193848,2.5762462615966797,-2.0064401626586914,0
-2.2939136028289795,2.666614532470703,-1.2877627611160278,0
-1.980607032775879,2.4525718688964844,-0.5529012680053711,0
-1.53385329246521,2.081732749938965,-0.12046504020690918,0
-1.1003313064575195,2.015152931213379,-0.21482539176940918,0
-0.8305338621139526,1.9633989334106445,-0.5970919132232666,0
-0.7113044261932373,1.7189397811889648,-1.043799877166748,0
-0.5543400049209595,1.2463312149047852,-1.1585867404937744,0
-0.4124628007411957,0.8471193313598633,-1.334101676940918,0
-0.47808295488357544,0.5521364212036133,-1.6009635925292969,0
-0.5174878835678101,0.2104358673095703,-1.8582864999771118,0
-0.6142346262931824,-0.2022247314453125,-1.9738578796386719,0
-0.8300298452377319,-0.6048164367675781,-1.968805193901062,0
-1.1334714889526367,-1.227339744567871,-1.8592791557312012,0
-1.3752223253250122,-1.7927188873291016,-1.6421055793762207,0
-1.5112051963806152,-2.363616943359375,-1.6492891311645508,0
-1.6485114097595215,-2.918743133544922,-1.6891465187072754,0
-1.683650255203247,-3.362368106842041,-1.8507037162780762,0
-1.5441752672195435,-3.8259267807006836,-2.0365657806396484,0
-1.3682987689971924,-4.127627849578857,-2.098804235458374,0
-1.1984825134277344,-4.480383396148682,-2.1910417079925537,0
-1.0322123765945435,-4.750292778015137,-2.160243272781372,0
-0.7759190797805786,-4.901636123657227,-2.0616416931152344,0
-0.6328117847442627,-4.917866230010986,-1.9503746032714844,0
-0.6145569086074829,-4.873218536376953,-1.8864762783050537,0
-0.7618218660354614,-4.505151271820068,-1.6898915767669678,0
-0.720780611038208,-4.066013813018799,-1.4094741344451904,0
-0.7501726746559143,-3.779053211212158,-1.3835668563842773,0
-0.7834879159927368,-3.678096294403076,-1.453174114227295,0
-0.7691972255706787,-3.715217113494873,-1.558239459991455,0
-0.7894248366355896,-4.095843315124512,-1.7227516174316406,0
-0.7445456981658936,-4.262386322021484,-1.6932456493377686,0
-0.6689491271972656,-4.38488245010376,-1.5894951820373535,0
-0.646859347820282,-4.551797866821289,-1.4475197792053223,0
-0.5491519570350647,-4.700806617736816,-1.336822509765625,0
-0.5719038248062134,-4.7529449462890625,-1.2119638919830322,0
-0.5545614957809448,-4.832558631896973,-1.037153959274292,0
-0.5806781053543091,-4.8725175857543945,-0.7886180877685547,0
-0.5447300672531128,-4.874987602233887,-0.5073809623718262,0
-0.49690115451812744,-4.9425368309021,-0.1770486831665039,0
-0.45620495080947876,-4.907322883605957,0.14447259902954102,0
-0.46078574657440186,-4.7881317138671875,0.4302654266357422,0
-0.374054878950119,-4.543885707855225,0.7154445648193359,0
-0.3491742014884949,-4.229078769683838,0.9176344871520996,0
-0.33101075887680054,-3.790339946746826,1.090353012084961,0
-0.30206382274627686,-3.219733715057373,1.286719799041748,0
-0.3168715834617615,-2.5310888290405273,1.6031804084777832,0
-0.044735491275787354,-1.735948085784912,2.0668275356292725,0
0.31901663541793823,-1.0584845542907715,2.3359265327453613,0
0.8230501413345337,-0.21548175811767578,2.388991594314575,0
1.34102201461792,0.8394460678100586,2.031733274459839,0
1.9144055843353271,2.1884727478027344,1.3689234256744385,0
2.3205530643463135,3.63131046295166,0.5799953937530518,0
2.465362071990967,5.3835906982421875,0.206465482711792,0
1.7245391607284546,7.069273948669434,0.7701370716094971,0
0.6674515008926392,7.843156814575195,2.407475471496582,0
0.06760412454605103,7.831337928771973,4.531380653381348,0
-0.4993289113044739,7.74796199798584,6.450088024139404,0
-1.0411171913146973,7.835583686828613,7.724704742431641,0
-1.3840627670288086,7.435324668884277,8.37944507598877,0
-1.330289602279663,6.015954971313477,8.50967788696289,0
-0.7989023327827454,3.496321678161621,8.674970626831055,0
-0.33917754888534546,0.36756420135498047,7.935962677001953,0
0.10251742601394653,-2.790806770324707,6.529865741729736,0
0.3154142498970032,-4.59660530090332,4.945028781890869,0
0.864345371723175,-5.766097068786621,2.9249215126037598,0
1.0390878915786743,-6.242155075073242,0.9523477554321289,0
0.4884369373321533,-4.9281415939331055,-0.22818565368652344,0
0.14062470197677612,-2.464231014251709,-1.6726784706115723,0
-0.26545676589012146,0.05661487579345703,-3.50282621383667,0
-0.5016971230506897,2.701714515686035,-4.7791008949279785,0
-0.4951443374156952,5.508017539978027,-5.3726325035095215,0
-0.8336137533187866,7.985132217407227,-5.7096357345581055,0
-1.765669822692871,9.897794723510742,-5.9889068603515625,0
-3.290196180343628,10.614079475402832,-5.6631622314453125,0
-4.890328407287598,10.450010299682617,-4.941833972930908,0
-6.227007865905762,9.47400951385498,-4.316229820251465,0
-7.005733013153076,8.16091251373291,-3.5472612380981445,0
-6.801714897155762,7.484745025634766,-2.826941728591919,0
-6.3683857917785645,8.422118186950684,-2.439335346221924,0
-6.26416015625,10.598685264587402,-2.19083309173584,0
-6.322582721710205,13.182589530944824,-1.4978575706481934,0
-4.487316608428955,13.284852027893066,0.20792603492736816,0
-2.4513463973999023,10.512243270874023,1.3641464710235596,0
-1.2679131031036377,6.185784339904785,1.7377209663391113,0
-0.015515267848968506,2.679673194885254,1.123730182647705,0
0.5664049983024597,-0.5187778472900391,-1.0808634757995605,0
-0.31515082716941833,-3.12156343460083,-3.6630592346191406,0
-1.6811010837554932,-4.7449564933776855,-5.891342639923096,0
-2.9168386459350586,-5.3492231369018555,-7.4171977043151855,0
-3.3032724857330322,-4.837833404541016,-7.979780673980713,0
-3.209799289703369,-4.176652431488037,-7.902805328369141,0
-2.9409546852111816,-3.7524523735046387,-7.394875526428223,0
-2.5668067932128906,-3.5410943031311035,-6.1426873207092285,0
-2.0005369186401367,-3.4492669105529785,-5.209857940673828,0
-1.3648591041564941,-3.3598413467407227,-4.637331962585449,0
-0.854000449180603,-3.29227352142334,-4.161970138549805,0
0.08386969566345215,-2.9865002632141113,-3.594866991043091,0
0.9493021965026855,-2.227969169616699,-3.1403698921203613,0
1.723204493522644,-1.2970285415649414,-2.8482542037963867,0
1.991257905960083,-0.24395084381103516,-2.6202030181884766,0
1.8557229042053223,0.7064361572265625,-2.4604380130767822,0
1.6277101039886475,1.5063791275024414,-2.267652750015259,0
1.2338556051254272,2.010181427001953,-2.1727280616760254,0
1.0247066020965576,2.115532875061035,-2.158686637878418,0
1.0498977899551392,1.8831377029418945,-2.18342924118042,0
1.41221284866333,1.3020868301391602,-2.1868486404418945,0
1.5228073596954346,0.6700067520141602,-2.1357600688934326,0
1.6178828477859497,0.008993148803710938,-2.1042909622192383,0
1.6201450824737549,-0.5802087783813477,-2.05615234375,0
1.533521294593811,-1.1023931503295898,-2.021592140197754,0
1.3856532573699951,-1.5601472854614258,-1.9848638772964478,0
1.1318135261535645,-1.9249210357666016,-1.8728493452072144,0
0.9204424619674683,-2.3451366424560547,-1.6864233016967773,0
0.7779442071914673,-2.6511926651000977,-1.4496220350265503,0
0.6227755546569824,-2.817157745361328,-1.2650506496429443,0
0.4254443645477295,-2.843423843383789,-1.1317955255508423,0
0.15440750122070312,-2.936155319213867,-1.1008648872375488,0
-0.18157553672790527,-2.8419976234436035,-1.321552038192749,0
-0.48326951265335083,-2.599555015563965,-1.4550755023956299,0
-0.6680818796157837,-2.419419765472412,-1.6084749698638916,0
-0.7345101237297058,-2.165220260620117,-1.6520859003067017,0
-0.7788110971450806,-1.944749355316162,-1.5349140167236328,0
-0.7872881889343262,-1.822495460510254,-1.52457857131958,0
-0.6295236945152283,-1.5184831619262695,-1.505757451057434,0
-0.35898327827453613,-1.06402587890625,-1.372572422027588,0
0.0429917573928833,-0.7101573944091797,-1.1954340934753418,0
0.34468531608581543,-0.19843387603759766,-0.9082247614860535,0
0.3415795564651489,-0.14841461181640625,-0.5067959427833557,0
0.09884333610534668,-0.2892484664916992,-0.21688532829284668,0
0.1913304328918457,-0.3815784454345703,0.008577585220336914,0
0.293781042098999,-0.46135711669921875,0.15009939670562744,0
0.34124958515167236,-0.5645008087158203,0.35167741775512695,0
0.477283239364624,-0.6887416839599609,0.5472731590270996,0
0.6612668037414551,-0.8079080581665039,0.7355400323867798,0
0.8430898189544678,-0.888606071472168,0.7495646476745605,0
1.0063852071762085,-1.0600223541259766,0.5176007747650146,0
1.0941413640975952,-1.1523113250732422,0.32442569732666016,0
1.0706993341445923,-1.2229986190795898,0.17986273765563965,0
1.0775665044784546,-1.274627685546875,0.13741326332092285,0
1.1508429050445557,-1.4363861083984375,-0.01788616180419922,0
1.2191197872161865,-1.4307432174682617,-0.3390670120716095,0
1.2464324235916138,-1.5615272521972656,-0.5175909996032715,0
1.249622106552124,-1.6731414794921875,-0.5414756536483765,0
1.1616472005844116,-1.763157844543457,-0.5593514442443848,0
0.9821728467941284,-1.6832380294799805,-0.629054605960846,0
0.8904459476470947,-1.4909143447875977,-0.7053951025009155,0
0.6347478628158569,-1.2268810272216797,-0.6092099547386169,0
0.40337109565734863,-0.8504600524902344,-0.5201842784881592,0
0.1958838701248169,-0.46932506561279297,-0.5151553153991699,0
0.02641928195953369,-0.10975837707519531,-0.38385534286499023,0
-0.19386351108551025,0.13265514373779297,-0.1769019067287445,0
-0.4340125322341919,0.17438983917236328,-0.06690312922000885,0
-0.5886848568916321,0.14239120483398438,0.027317151427268982,0
-0.6697296500205994,-0.049370765686035156,0.04818706214427948,0
-0.6505046486854553,-0.27883148193359375,0.0030704885721206665,0
-0.6385858058929443,-0.5459804534912109,-0.07674041390419006,0
-0.524053692817688,-0.6738395690917969,-0.2032639980316162,0
-0.3403252959251404,-0.6434946060180664,-0.34546157717704773,0
-0.048921167850494385,-0.5245351791381836,-0.37165388464927673,0
0.15166974067687988,-0.3840484619140625,-0.3631260097026825,0
0.2856719493865967,-0.22927188873291016,-0.346279114484787,0
0.3701908588409424,-0.010044097900390625,-0.27077698707580566,0
0.3099414110183716,0.2806882858276367,-0.20591053366661072,0
0.25618624687194824,0.5638856887817383,0.006289958953857422,0
0.24970954656600952,0.8515024185180664,0.17910906672477722,0
0.27369368076324463,1.2678632736206055,0.31477606296539307,0
0.23008382320404053,1.583251953125,0.49680742621421814,0
0.29569172859191895,1.6926088333129883,0.7228559851646423,0
0.3743399977684021,1.7731599807739258,0.7368277311325073,0
0.5659031867980957,1.741297721862793,0.8356443643569946,0
0.7716901302337646,1.6761064529418945,0.8734067678451538,0
1.0438451766967773,1.6015625,0.8430080413818359,0
1.3386828899383545,1.5798711776733398,0.8281842470169067,0
1.708456039428711,1.6396751403808594,0.8912758827209473,0
1.9735796451568604,1.6732635498046875,0.9150090217590332,0
2.2848191261291504,1.7523841857910156,0.9998565316200256,0
2.4675166606903076,1.8817272186279297,0.9541699886322021,0
2.6654348373413086,1.9822778701782227,0.9164869785308838,0
2.7687690258026123,2.082733154296875,1.0015649795532227,0
2.7921290397644043,2.1639347076416016,1.1517937183380127,0
2.743008852005005,2.2832536697387695,1.2927659749984741,0
2.664473533630371,2.297144889831543,1.5318166017532349,0
2.518490791320801,2.2798051834106445,1.7224860191345215,0
2.5065431594848633,2.2192583084106445,1.9816645383834839,0
2.3917548656463623,2.04617977142334,2.158299446105957,0
2.3130640983581543,1.7917604446411133,2.3358395099639893,0
2.2132534980773926,1.5565071105957031,2.5164794921875,0
2.2191576957702637,1.2710351943969727,2.676037311553955,0
2.1320900917053223,1.021510124206543,2.7906742095947266,0
1.9782681465148926,0.86529541015625,2.8436410427093506,0
2.0350141525268555,0.9146718978881836,2.736772298812866,0
2.048083782196045,0.9303092956542969,2.592071533203125,0
2.081282615661621,0.9625101089477539,2.299356460571289,0
2.1532459259033203,1.0615034103393555,1.9684677124023438,0
2.2059178352355957,1.3778839111328125,1.5343633890151978,0
2.238882064819336,1.9688186645507812,1.1546087265014648,0
2.1851541996002197,2.7145004272460938,0.8938905000686646,0
2.090089797973633,3.538315773010254,0.5776785612106323,0
2.090355634689331,3.768360137939453,0.28531181812286377,0
2.1718063354492188,3.5369701385498047,-0.26555654406547546,0
2.205167055130005,3.1413145065307617,-1.1566625833511353,0
2.1306567192077637,2.619983673095703,-2.120645046234131,0
1.8688874244689941,2.430020332336426,-2.9236433506011963,0
1.6043529510498047,2.1623239517211914,-3.230647325515747,0
1.342315435409546,2.0180282592773438,-3.2069199085235596,0
1.0473461151123047,2.030642509460449,-2.9768266677856445,0
0.7945040464401245,2.121218681335449,-2.654775619506836,0
0.67381352186203,2.1104001998901367,-2.3687617778778076,0
0.4503428041934967,2.062838554382324,-2.224698305130005,0
0.07785201072692871,2.031050682067871,-2.179636240005493,0
-0.24845343828201294,1.818711280822754,-2.1692137718200684,0
-0.5399304032325745,1.452169418334961,-2.31919002532959,0
-0.8946537971496582,0.9817132949829102,-2.521411418914795,0
-1.2486398220062256,0.5173254013061523,-2.461869239807129,0
-1.5455533266067505,0.2261791229248047,-2.142099380493164,0
-1.7820497751235962,0.12213611602783203,-1.5991859436035156,0
-1.8452050685882568,-0.022317886352539062,-0.9526718854904175,0
-1.7962149381637573,-0.11612701416015625,-0.32386505603790283,0
-1.7094537019729614,-0.28563499450683594,0.07593488693237305,0
-1.6039471626281738,-0.47041797637939453,0.27005720138549805,0
-1.582880973815918,-0.5552787780761719,0.4076719284057617,0
-1.4936635494232178,-0.5784778594970703,0.49610018730163574,0
-1.5157675743103027,-0.5473575592041016,0.512488603591919,0
-1.746702790260315,-0.5077114105224609,0.3940091133117676,0
-2.053654432296753,-0.48625755310058594,0.24536705017089844,0
-2.483078718185425,-0.5478277206420898,-0.12610530853271484,0
-2.6022751331329346,-0.5274972915649414,-0.5956010818481445,0
-2.9099395275115967,-0.4445838928222656,-1.2083989381790161,0
-2.980041742324829,-0.3948936462402344,-1.8134785890579224,0
-2.7926127910614014,-0.4643993377685547,-2.5234479904174805,0
-2.493317127227783,-0.7028884887695312,-3.1166841983795166,0
-1.9932409524917603,-0.9471302032470703,-3.482279062271118,0
-1.466586709022522,-1.3042936325073242,-3.530883312225342,0
-1.1110148429870605,-1.6761341094970703,-3.2055511474609375,0
-0.9370395541191101,-2.024646759033203,-2.6086559295654297,0
-0.765740156173706,-2.3359546661376953,-1.9281589984893799,0
-0.4655967652797699,-2.641663074493408,-1.3446683883666992,0
-0.44834011793136597,-2.6719212532043457,-1.0127601623535156,0
-0.4556373357772827,-2.7525181770324707,-0.9962449073791504,0
-0.441377729177475,-2.847851276397705,-1.0598139762878418,0
-0.5243721008300781,-2.8769006729125977,-1.308091640472412,0
-0.7133117914199829,-2.9762325286865234,-1.621109962463379,0
-0.9760609269142151,-2.9976181983947754,-1.8935877084732056,0
-1.1325700283050537,-3.1540417671203613,-2.1399850845336914,0
-1.33530592918396,-3.366560935974121,-2.2096266746520996,0
-1.2583372592926025,-3.489595413208008,-2.214556932449341,0
-1.1713917255401611,-3.532888889312744,-2.238643169403076,0
-1.153140664100647,-3.603999137878418,-2.258471965789795,0
-1.2420012950897217,-3.616600513458252,-2.2651095390319824,0
-1.1509630680084229,-3.6042532920837402,-2.1319527626037598,0
-1.0501608848571777,-3.7059478759765625,-1.9400174617767334,0
-0.8391765356063843,-3.907400608062744,-1.6866848468780518,0
-0.7861243486404419,-4.079429626464844,-1.4389712810516357,0
-0.713853657245636,-4.217278480529785,-1.3476331233978271,0
-0.6771273612976074,-4.232568264007568,-1.321608543395996,0
-0.6160765886306763,-4.261867523193359,-1.3367400169372559,0
-0.6287034749984741,-4.264533996582031,-1.3403899669647217,0
-0.5882939696311951,-4.1378655433654785,-1.3491933345794678,0
-0.6336507201194763,-3.9682064056396484,-1.2960205078125,0
-0.5951212048530579,-3.7939453125,-1.2716641426086426,0
-0.7121437191963196,-3.6223201751708984,-1.1946616172790527,0
-0.7647920846939087,-3.4056596755981445,-1.1053872108459473,0
-0.7795276641845703,-3.1728076934814453,-0.9605712890625,0
-0.7992273569107056,-3.0313668251037598,-0.8845882415771484,0
-0.7734763622283936,-2.9405059814453125,-0.8080520629882812,0
-0.7907648086547852,-2.892951488494873,-0.7237429618835449,0
-0.7482256889343262,-2.869379997253418,-0.691586971282959,0
-0.6867179870605469,-2.907897472381592,-0.654207706451416,0
-0.6638645529747009,-2.9149279594421387,-0.5927972793579102,0
-0.6749123930931091,-2.828000068664551,-0.519869327545166,0
-0.7531414031982422,-2.6468348503112793,-0.38590550422668457,0
-0.7381425499916077,-2.366360664367676,-0.09846806526184082,0
-0.7398647665977478,-2.0485105514526367,0.3056943416595459,0
-0.6577304601669312,-1.6832466125488281,0.6412181854248047,0
-0.594780683517456,-1.277177333831787,0.8661112785339355,0
-0.4050753712654114,-0.7627172470092773,1.0912067890167236,0
-0.18898719549179077,-0.20862197875976562,1.3002276420593262,0
0.15900656580924988,0.42635536193847656,1.5630533695220947,0
0.6773878335952759,1.1212959289550781,1.7842488288879395,0
1.16527259349823,1.7528810501098633,1.5996463298797607,0
1.7230303287506104,2.4659156799316406,1.042017936706543,0
1.9889671802520752,3.2349929809570312,0.63509202003479,0
1.6531522274017334,4.167856216430664,0.9091165065765381,0
1.1717098951339722,4.452906608581543,2.12395977973938,0
0.7041583061218262,4.166200637817383,3.8805153369903564,0
-0.062125563621520996,4.182331085205078,5.679836750030518,0
-0.9353495836257935,4.339184761047363,7.3777971267700195,0
-1.5810391902923584,4.563115119934082,8.787450790405273,0
-1.9704992771148682,4.833147048950195,9.429986000061035,0
-1.9084762334823608,4.401798248291016,9.38087272644043,0
-1.669053554534912,3.377218246459961,8.526434898376465,0
-1.404736042022705,1.3999090194702148,7.202571868896484,0
-0.8987168073654175,-0.07130908966064453,5.372763156890869,0
-0.7763532400131226,-0.8054189682006836,2.7696971893310547,0
-0.7940713763237,-0.2991657257080078,-0.34723377227783203,0
-1.5294392108917236,2.183074951171875,-1.7980914115905762,0
-2.257591724395752,5.72464656829834,-1.4797320365905762,0
-2.0143234729766846,9.225677490234375,-1.2729334831237793,0
-1.6694034337997437,12.273935317993164,-2.4107303619384766,0
-2.150623321533203,14.61388874053955,-3.6590561866760254,0
-3.1377575397491455,14.827754020690918,-4.495613098144531,0
-3.6792073249816895,12.511286735534668,-4.653581142425537,0
-4.550604343414307,8.898353576660156,-4.621027946472168,0
-5.354985237121582,5.481562614440918,-4.331462383270264,0
-5.844674110412598,3.4180641174316406,-3.4288103580474854,0
-5.726547718048096,2.9377098083496094,-2.1614673137664795,0
-5.074174880981445,3.5763235092163086,-1.2506721019744873,0
-4.06408166885376,4.235673904418945,-0.6163411140441895,0
-2.7626216411590576,3.809046745300293,0.1645221710205078,0
-1.3600306510925293,2.345132827758789,0.5531187057495117,0
-0.36039215326309204,0.4140911102294922,0.26912927627563477,0
0.2101561427116394,-1.160414695739746,-0.9527668952941895,0
-0.08659034967422485,-2.1390881538391113,-2.521878242492676,0
-0.20147496461868286,-2.273527145385742,-3.903067111968994,0
-0.257850706577301,-2.1058216094970703,-4.696545600891113,0
-0.21930408477783203,-1.7781157493591309,-5.043594837188721,0
-0.3921585977077484,-1.270218849182129,-5.053150177001953,0
-0.21610379219055176,-0.7344074249267578,-4.998275279998779,0
-0.04969918727874756,-0.3278999328613281,-4.861231803894043,0
0.40096914768218994,-2.55584716796875E-4,-4.543929100036621,0
0.7141794562339783,0.07375907897949219,-4.203190803527832,0
1.1539226770401,0.03980827331542969,-3.9427273273468018,0
1.3362829685211182,-0.1381397247314453,-3.9215846061706543,0
1.2314845323562622,-0.33081626892089844,-3.9954957962036133,0
0.9560882449150085,-0.4879570007324219,-4.042068004608154,0
0.7040949463844299,-0.41113853454589844,-3.9439759254455566,0
0.3333240747451782,-0.15789318084716797,-3.756840229034424,0
0.041247010231018066,0.25496387481689453,-3.495617628097534,0
-0.18108385801315308,0.6145124435424805,-3.1702089309692383,0
-0.3744771480560303,0.7845067977905273,-2.718308925628662,0
-0.3745243549346924,0.6073055267333984,-2.2303922176361084,0
-0.3279959559440613,0.27222347259521484,-1.763399600982666,0
-0.16090065240859985,-0.23717212677001953,-1.3483827114105225,0
-0.013864994049072266,-0.7505674362182617,-1.1368603706359863,0
0.13748228549957275,-1.1837348937988281,-1.1279222965240479,0
0.234167218208313,-1.505143165588379,-1.2565183639526367,0
0.2820190191268921,-1.750481128692627,-1.3663930892944336,0
0.3079293966293335,-1.8886198997497559,-1.4395612478256226,0
0.31243228912353516,-1.9436407089233398,-1.5507874488830566,0
0.21453988552093506,-1.9302558898925781,-1.4198919534683228,0
-0.13622832298278809,-1.8487448692321777,-1.462923288345337,0
-0.43116921186447144,-1.7878780364990234,-1.5428777933120728,0
-0.7060422897338867,-1.798039436340332,-1.580397129058838,0
-0.83149653673172,-1.89125394821167,-1.5776766538619995,0
-1.0685797929763794,-1.9384231567382812,-1.5964998006820679,0
-1.1808433532714844,-2.0138397216796875,-1.6267173290252686,0
-1.1712348461151123,-2.0983729362487793,-1.703935146331787,0
-1.1692194938659668,-2.237553596496582,-1.7199512720108032,0
-1.1369972229003906,-2.225728988647461,-1.605006456375122,0
-1.0199437141418457,-2.2041616439819336,-1.540822148323059,0
-0.7299843430519104,-2.065305709838867,-1.3213235139846802,0
-0.5620068907737732,-1.9073047637939453,-1.1808435916900635,0
-0.1720936894416809,-1.7707886695861816,-1.1645727157592773,0
0.1207876205444336,-1.6556835174560547,-1.0880162715911865,0
0.4619392156600952,-1.4352035522460938,-1.0226457118988037,0
0.7768839597702026,-1.1907854080200195,-0.9394252896308899,0
1.0418245792388916,-1.0133590698242188,-0.8308990001678467,0
1.271285891532898,-0.8215160369873047,-0.788077712059021,0
1.453705072402954,-0.6750564575195312,-0.825322151184082,0
1.589544415473938,-0.6600131988525391,-0.9737418293952942,0
1.7892104387283325,-0.764286994934082,-1.0012460947036743,0
1.878185510635376,-0.9064035415649414,-0.9535741806030273,0
1.883209466934204,-0.8663301467895508,-0.914708137512207,0
1.7597501277923584,-1.0388612747192383,-0.9807292819023132,0
1.522596001625061,-1.3567447662353516,-1.154508113861084,0
1.3827028274536133,-1.5950632095336914,-1.2616422176361084,0
1.2301230430603027,-1.6535072326660156,-1.280822992324829,0
1.0313234329223633,-1.5657825469970703,-1.1691209077835083,0
0.8339376449584961,-1.3464012145996094,-1.094049334526062,0
0.6617389917373657,-1.1007652282714844,-0.8661921620368958,0
0.4669663906097412,-0.8217840194702148,-0.5593529939651489,0
0.3262089490890503,-0.5238418579101562,-0.3578300476074219,0
0.1534672975540161,-0.19017982482910156,-0.1763995885848999,0
0.05167710781097412,0.11464118957519531,0.057755082845687866,0
0.07069766521453857,0.2257061004638672,0.34131956100463867,0
0.025769591331481934,0.11937618255615234,0.5567559003829956,0
0.021984219551086426,-0.046298980712890625,0.721114456653595,0
-0.03856790065765381,-0.19480419158935547,0.7296214699745178,0
-0.1413654088973999,-0.3333892822265625,0.7122002840042114,0
-0.23352092504501343,-0.4143075942993164,0.6096279621124268,0
-0.30298078060150146,-0.5237464904785156,0.4870840311050415,0
-0.30403774976730347,-0.6043310165405273,0.38338059186935425,0
-0.30830132961273193,-0.6250381469726562,0.2821580767631531,0
-0.239138662815094,-0.6576786041259766,0.2794291079044342,0
-0.24520576000213623,-0.5969886779785156,0.15975816547870636,0
-0.1112133264541626,-0.6080532073974609,0.10711534321308136,0
0.033448100090026855,-0.5712108612060547,0.23402248322963715,0
0.15026873350143433,-0.4817075729370117,0.4447750151157379,0
0.3300015926361084,-0.2774171829223633,0.5142634510993958,0
0.464765727519989,0.051095008850097656,0.4850758910179138,0
0.6071638464927673,0.2741270065307617,0.5410944223403931,0
0.7956324219703674,0.5137271881103516,0.6700965762138367,0
0.8217669725418091,0.5546836853027344,0.7377047538757324,0
0.8242994546890259,0.6674251556396484,0.676427960395813,0
0.7743648290634155,0.6892414093017578,0.6459567546844482,0
0.7816541790962219,0.744572639465332,0.5716193914413452,0
0.8145893216133118,0.8501005172729492,0.5751124024391174,0
0.8847583532333374,0.9316205978393555,0.6225210428237915,0
0.987101674079895,1.051316261291504,0.7256940603256226,0
1.183478832244873,1.1134881973266602,1.0257434844970703,0
1.3440442085266113,1.244978904724121,1.4081796407699585,0
1.4829189777374268,1.2759466171264648,1.509941577911377,0
1.56382155418396,1.5317611694335938,1.2748523950576782,0
1.5341752767562866,1.9500350952148438,0.9107182025909424,0
1.4121425151824951,2.3703861236572266,0.7405678629875183,0
1.344454288482666,2.709115982055664,0.8199995756149292,0
1.293434977531433,3.095369338989258,0.9540708661079407,0
1.3169578313827515,3.4213829040527344,1.0453948974609375,0
1.4270449876785278,3.79476261138916,1.1381504535675049,0
1.5232913494110107,4.16996955871582,1.2936733961105347,0
1.7326011657714844,4.496753692626953,1.523364543914795,0
1.8373202085494995,4.68906307220459,1.7285336256027222,0
1.9524389505386353,4.701615333557129,1.9137026071548462,0
2.011141538619995,4.498760223388672,2.088315725326538,0
2.0327038764953613,4.154898643493652,2.30985164642334,0
2.1295177936553955,3.725214958190918,2.470560312271118,0
2.22952938079834,3.181138038635254,2.6277143955230713,0
2.384953260421753,2.632826805114746,2.7762818336486816,0
2.5477283000946045,2.1353044509887695,2.8754379749298096,0
2.794034957885742,1.7578964233398438,2.985215187072754,0
3.0586435794830322,1.6128730773925781,2.9307634830474854,0
3.5347256660461426,1.6378021240234375,2.58726167678833,0
3.9583866596221924,1.7297039031982422,2.1603617668151855,0
4.310035705566406,1.855088233947754,1.678973913192749,0
4.586658000946045,1.9948692321777344,1.105360507965088,0
4.799593925476074,2.053473472595215,0.5962103605270386,0
4.896162033081055,1.9258413314819336,-0.1280096471309662,0
4.974792957305908,1.7509193420410156,-0.8929740786552429,0
4.93812894821167,1.1701345443725586,-1.3789362907409668,0
4.746520042419434,0.3657665252685547,-1.5224398374557495,0
4.2979841232299805,-0.23381710052490234,-1.620742917060852,0
3.7461977005004883,-1.0974349975585938,-1.6238116025924683,0
3.108412981033325,-1.7512168884277344,-1.5626468658447266,0
2.504796266555786,-2.2933459281921387,-1.638419508934021,0
1.9338194131851196,-2.5157976150512695,-1.9809417724609375,0
1.3801929950714111,-2.665090560913086,-2.3518340587615967,0
0.7283636331558228,-2.882190704345703,-2.634831428527832,0
-0.0036445558071136475,-3.0209832191467285,-2.6430184841156006,0
-0.8509763479232788,-2.9644031524658203,-2.2951221466064453,0
-1.6506426334381104,-2.808473587036133,-1.9159538745880127,0
-2.3306050300598145,-2.7614974975585938,-1.6492525339126587,0
-2.7692313194274902,-2.6465697288513184,-1.4166193008422852,0
-3.049424171447754,-2.593090534210205,-1.2522574663162231,0
-3.222195625305176,-2.4721851348876953,-1.086956262588501,0
-3.021430253982544,-2.305858612060547,-0.9020135402679443,0
-2.541581153869629,-2.077632427215576,-0.6616382598876953,0
-1.870759129524231,-1.7803082466125488,-0.42282092571258545,0
-1.1005454063415527,-1.3037643432617188,-0.15191912651062012,0
-0.5778841376304626,-0.6216545104980469,-0.006385087966918945,0
-0.2467714250087738,0.06302261352539062,-0.04382777214050293,0
-0.30409538745880127,0.7412986755371094,-0.13281738758087158,0
-0.73847496509552,1.4256172180175781,-0.14826750755310059,0
-1.382695198059082,2.1998910903930664,-0.03800010681152344,0
-2.1239280700683594,2.8248491287231445,0.07431626319885254,0
-2.972139358520508,3.29337215423584,0.10365724563598633,0
-3.7655715942382812,3.7177915573120117,-0.034630537033081055,0
-3.9290363788604736,3.8730897903442383,-0.3868088722229004,0
-3.501133441925049,3.6803503036499023,-0.7815053462982178,0
-2.774646043777466,3.2736740112304688,-1.2967453002929688,0
-1.9430077075958252,2.8227853775024414,-1.7783372402191162,0
-1.4043304920196533,2.303709030151367,-2.084911823272705,0
-0.7871752977371216,1.7285356521606445,-2.2432918548583984,0
-0.30306658148765564,1.1928539276123047,-1.9258939027786255,0
0.023859232664108276,0.6367111206054688,-1.2861576080322266,0
0.1361161172389984,-0.1073923110961914,-0.6279294490814209,0
-0.1109861433506012,-0.7812376022338867,-0.2950303554534912,0
-0.31119292974472046,-1.3805251121520996,-0.25037455558776855,0
-0.40432217717170715,-1.7431397438049316,-0.38052821159362793,0
-0.5807193517684937,-2.168679714202881,-0.6319851875305176,0
-0.6810544729232788,-2.42313814163208,-0.7649009227752686,0
-0.7209967970848083,-2.545149803161621,-0.9850480556488037,0
-0.7979755997657776,-2.5132369995117188,-1.24271559715271,0
-0.7820518016815186,-2.468449592590332,-1.5577595233917236,0
-0.7753003835678101,-2.5324840545654297,-1.942894458770752,0
-0.6593671441078186,-2.5855345726013184,-2.2168145179748535,0
-0.6321043372154236,-2.708977222442627,-2.401254653930664,0
-0.5830486416816711,-2.821565628051758,-2.4340572357177734,0
-0.5117194652557373,-2.983250617980957,-2.4659292697906494,0
-0.4730929136276245,-3.0362887382507324,-2.360459327697754,0
-0.45023804903030396,-3.2224082946777344,-2.23496150970459,0
-0.5005170702934265,-3.3431668281555176,-2.036608934402466,0
-0.5451762080192566,-3.405996799468994,-1.9182615280151367,0
-0.5312353372573853,-3.4780869483947754,-1.8796358108520508,0
-0.6670154929161072,-3.506887435913086,-1.8703534603118896,0
-0.7953294515609741,-3.485281467437744,-1.8999316692352295,0
-0.7613426446914673,-3.5160679817199707,-1.9397830963134766,0
-0.7278516888618469,-3.618213176727295,-1.9638035297393799,0
-0.9630434513092041,-3.817844867706299,-2.017590284347534,0
-0.9434537887573242,-3.9666848182678223,-1.8952538967132568,0
-1.0093998908996582,-3.9453749656677246,-1.70670485496521,0
-1.1088128089904785,-3.9431347846984863,-1.4661014080047607,0
-1.0604605674743652,-3.919433116912842,-1.2448959350585938,0
-1.1230871677398682,-3.967529296875,-1.0980339050292969,0
-1.1489818096160889,-3.967860698699951,-0.8769016265869141,0
-1.0313608646392822,-3.884629726409912,-0.646000862121582,0
-1.0408235788345337,-3.8566060066223145,-0.4506831169128418,0
-1.1197304725646973,-3.8478264808654785,-0.19039297103881836,0
-1.2249013185501099,-3.757777690887451,0.08222103118896484,0
-1.3276656866073608,-3.5578408241271973,0.350557804107666,0
-1.3969398736953735,-3.3125805854797363,0.6265454292297363,0
-1.3391896486282349,-2.9882702827453613,0.9073786735534668,0
-1.364862322807312,-2.6181254386901855,1.1686286926269531,0
-1.3300384283065796,-2.149229049682617,1.5221362113952637,0
-1.0930800437927246,-1.650498867034912,1.8184983730316162,0
-0.7297700643539429,-1.152205467224121,1.9339888095855713,0
-0.2657102644443512,-0.555262565612793,1.8854708671569824,0
0.3835618793964386,0.0912637710571289,1.7870604991912842,0
1.1527138948440552,0.8724565505981445,1.3765149116516113,0
2.0525999069213867,1.835280418395996,0.8980004787445068,0
2.578035593032837,2.9594812393188477,0.5696487426757812,0
2.8993754386901855,4.417751312255859,0.7884712219238281,0
2.4312736988067627,5.7716827392578125,1.9663591384887695,0
1.6012842655181885,6.3338518142700195,4.007904052734375,0
0.9255862236022949,6.213803291320801,6.033712387084961,0
0.05711299180984497,6.381351470947266,7.986574172973633,0
-0.5698822736740112,6.478395462036133,9.26298713684082,0
-0.881073534488678,6.355855941772461,9.822813034057617,0
-0.758154034614563,5.097735404968262,9.674810409545898,0
-0.35173845291137695,2.891493797302246,9.370488166809082,0
0.24917954206466675,0.13020896911621094,8.484588623046875,0
0.5937910079956055,-2.898653507232666,6.831387042999268,0
0.9204965233802795,-5.714433193206787,4.4600067138671875,0
1.066002368927002,-6.950099945068359,2.1326189041137695,0
0.7456175684928894,-6.636712074279785,-0.15690326690673828,0
0.00594744086265564,-4.558862686157227,-1.8577144145965576,0
-0.3462231159210205,-1.8300862312316895,-3.676957130432129,0
-0.790625274181366,1.3201961517333984,-5.578180313110352,0
-1.302690863609314,4.79112434387207,-6.939384460449219,0
-1.7967031002044678,8.537991523742676,-7.894375801086426,0
-3.0904629230499268,11.768280029296875,-8.30322265625,0
-4.878493309020996,14.303441047668457,-7.566887378692627,0
-7.010183334350586,15.73755168914795,-5.928056240081787,0
-8.70421028137207,15.252556800842285,-4.666342735290527,0
-8.029779434204102,12.488839149475098,-3.251169204711914,0
-6.055118083953857,7.789860725402832,-1.4030907154083252,0
-5.3303728103637695,5.014714241027832,-0.7161359786987305,0
-6.0175557136535645,4.925060272216797,-1.3586783409118652,0
-6.437224388122559,5.469941139221191,-1.277108907699585,0
-5.282290935516357,5.55198860168457,0.04086589813232422,0
-3.7340762615203857,4.845788955688477,1.680518627166748,0
-2.369967460632324,3.408885955810547,2.1855509281158447,0
-1.8910558223724365,1.5182905197143555,0.9253816604614258,0
-1.6452898979187012,-0.6666345596313477,-1.1007404327392578,0
-0.913101315498352,-2.63297176361084,-3.302478075027466,0
-0.13836610317230225,-3.3842430114746094,-5.057161331176758,0
0.15968996286392212,-2.789747714996338,-5.854394435882568,0
-0.0777466893196106,-1.7922172546386719,-5.592731475830078,0
-0.01612800359725952,-1.0284395217895508,-4.81785774230957,0
0.37446290254592896,-0.659083366394043,-4.276611328125,0
0.9491755366325378,-0.4694976806640625,-3.893893241882324,0
1.750333547592163,-0.6017522811889648,-3.5966269969940186,0
2.2783052921295166,-1.0061063766479492,-3.5566086769104004,0
2.6477103233337402,-1.4796948432922363,-3.673356771469116,0
2.5642898082733154,-1.9129066467285156,-3.86614727973938,0
2.423083543777466,-2.133824348449707,-3.9999277591705322,0
2.261258125305176,-1.8433995246887207,-4.1758904457092285,0
1.8436466455459595,-1.1537981033325195,-4.398304462432861,0
1.3398038148880005,-0.11725044250488281,-4.473291873931885,0
0.8763128519058228,0.88153076171875,-4.372058391571045,0
0.5184694528579712,1.6662588119506836,-4.1492018699646,0
0.4311349391937256,2.0604209899902344,-3.5207293033599854,0
0.4414525032043457,2.0238513946533203,-2.81929874420166,0
0.5827590227127075,1.707777976989746,-2.236366033554077,0
0.6615297794342041,1.1200599670410156,-1.9307584762573242,0
0.7098830938339233,0.4360799789428711,-1.8062729835510254,0
0.6574735641479492,-0.34598827362060547,-1.7838819026947021,0
0.35446619987487793,-0.9482975006103516,-1.7150487899780273,0
-0.06684291362762451,-1.5502848625183105,-1.5654261112213135,0
-0.48648905754089355,-2.0469188690185547,-1.364044189453125,0
-0.764080286026001,-2.5438661575317383,-1.18890380859375,0
-1.022796630859375,-3.0486412048339844,-1.0504711866378784,0
-1.1892377138137817,-3.2053184509277344,-1.0403976440429688,0
-1.355126976966858,-3.24654483795166,-0.9969391822814941,0
-1.4660451412200928,-3.012516975402832,-1.009641408920288,0
-1.527419090270996,-2.6185169219970703,-1.036746859550476,0
-1.6574270725250244,-2.241710662841797,-1.1373354196548462,0
-1.7085635662078857,-1.8365669250488281,-1.1557502746582031,0
-1.7174417972564697,-1.309767723083496,-1.1997628211975098,0
-1.6750859022140503,-0.9291610717773438,-1.2169612646102905,0
-1.4720587730407715,-0.6299381256103516,-1.1882991790771484,0
-1.1950124502182007,-0.48607444763183594,-1.2143213748931885,0
-0.8085372447967529,-0.43511104583740234,-1.2187879085540771,0
-0.504174530506134,-0.35016632080078125,-1.1994881629943848,0
-0.2486669421195984,-0.38436412811279297,-1.151252269744873,0
0.0893322229385376,-0.4491434097290039,-1.1453428268432617,0
0.3831024169921875,-0.6162023544311523,-0.9449482560157776,0
0.5424025058746338,-0.7276268005371094,-0.7034854888916016,0
0.6233168840408325,-0.8122148513793945,-0.5863181352615356,0
0.7487335205078125,-1.0206527709960938,-0.5124944448471069,0
0.98170006275177,-1.2117109298706055,-0.48508530855178833,0
1.2075988054275513,-1.3806419372558594,-0.489932656288147,0
1.5079683065414429,-1.4653997421264648,-0.3903188109397888,0
1.7251657247543335,-1.449432373046875,-0.37260276079177856,0
1.940669059753418,-1.433344841003418,-0.38139820098876953,0
2.1475014686584473,-1.4219398498535156,-0.5028074979782104,0
2.2572128772735596,-1.3267230987548828,-0.6484312415122986,0
2.073702335357666,-1.166940689086914,-0.7821856737136841,0
1.6861821413040161,-1.028900146484375,-0.7787885069847107,0
1.6026465892791748,-1.1447057723999023,-0.481915682554245,0
1.5746804475784302,-1.251021385192871,-0.4352252185344696,0
1.3819124698638916,-1.3189935684204102,-0.36238086223602295,0
1.1744165420532227,-1.53021240234375,-0.23819392919540405,0
1.0401612520217896,-1.6668729782104492,-0.15342718362808228,0
0.8256288766860962,-1.6478033065795898,-0.2410617470741272,0
0.5018762350082397,-1.599935531616211,-0.30405473709106445,0
0.18377184867858887,-1.6787376403808594,-0.22486978769302368,0
0.031752586364746094,-1.6832094192504883,-0.1184827983379364,0
-0.14795035123825073,-1.6086311340332031,-0.1431877315044403,0
-0.18787884712219238,-1.5052976608276367,-0.08151009678840637,0
-0.2459915280342102,-1.401932716369629,-0.026804357767105103,0
-0.26233136653900146,-1.1909379959106445,-0.06536689400672913,0
-0.32286137342453003,-1.0230979919433594,-0.003402203321456909,0
-0.3079630136489868,-0.7907485961914062,0.07021462917327881,0
-0.2224128246307373,-0.5274553298950195,0.23214970529079437,0
-0.0902547836303711,-0.26911067962646484,0.417476087808609,0
0.028554320335388184,-0.09459304809570312,0.4868737459182739,0
0.2200855016708374,0.08945465087890625,0.5213896036148071,0
0.26188206672668457,0.34278392791748047,0.5446092486381531,0
0.33559608459472656,0.49554920196533203,0.613897979259491,0
0.3718211054801941,0.6004667282104492,0.7773695588111877,0
0.428081750869751,0.7197465896606445,0.9107193350791931,0
0.47320717573165894,0.9155349731445312,0.8919558525085449,0
0.531115710735321,0.9629631042480469,0.8742019534111023,0
0.5609549283981323,1.0128555297851562,0.8093103766441345,0
0.6678138971328735,1.0125970840454102,0.7283074259757996,0
0.7342614531517029,0.9813861846923828,0.7104195356369019,0
0.8079485297203064,0.9407978057861328,0.7607119679450989,0
0.9846850037574768,0.905177116394043,0.8243874907493591,0
1.1159952878952026,0.8960437774658203,0.8562371730804443,0
1.1372673511505127,1.0042409896850586,0.8876141905784607,0
1.2137019634246826,1.1387653350830078,1.0814536809921265,0
1.3239383697509766,1.3665313720703125,1.3133862018585205,0
1.4702415466308594,1.7017717361450195,1.4446277618408203,0
1.683363676071167,2.0606603622436523,1.4151039123535156,0
1.939146876335144,2.2614364624023438,1.4281432628631592,0
2.153653144836426,2.411871910095215,1.3133596181869507,0
2.3529183864593506,2.4713611602783203,1.1758157014846802,0
2.565420389175415,2.542816162109375,1.0392874479293823,0
2.704962730407715,2.575977325439453,0.9298142194747925,0
2.721226215362549,2.556529998779297,0.9740613698959351,0
2.693092107772827,2.5753841400146484,1.1311392784118652,0
2.646984338760376,2.62050724029541,1.3745167255401611,0
2.6071794033050537,2.620084762573242,1.5842294692993164,0
2.556877374649048,2.6219329833984375,1.7668447494506836,0
2.4287965297698975,2.616413116455078,1.935900092124939,0
2.306708574295044,2.7062911987304688,2.021394729614258,0
2.379611015319824,2.8077430725097656,2.0999231338500977,0
2.345378875732422,2.856205940246582,2.106989860534668,0
2.3372766971588135,2.923478126525879,1.9109889268875122,0
2.4457168579101562,2.9665050506591797,1.6675362586975098,0
2.63457989692688,2.9924964904785156,1.4721946716308594,0
2.642770528793335,3.1568918228149414,1.250334620475769,0
2.7407608032226562,3.2180395126342773,1.0447561740875244,0
2.833200216293335,3.1521835327148438,0.9124588370323181,0
2.932457208633423,2.8901777267456055,0.7070896029472351,0
2.974238157272339,2.4084081649780273,0.4089667797088623,0
3.1046648025512695,1.8220176696777344,0.1566263735294342,0
3.1588025093078613,1.3201408386230469,-0.3038422763347626,0
3.24489688873291,0.8573846817016602,-0.6828251481056213,0
3.146094799041748,0.30951595306396484,-1.0231359004974365,0
2.8724722862243652,-0.16777706146240234,-1.3772388696670532,0
2.446326732635498,-0.521815299987793,-1.7046912908554077,0
2.038433074951172,-0.6904106140136719,-1.9672424793243408,0
1.5255203247070312,-0.8075265884399414,-2.128946304321289,0
0.9114151000976562,-0.7319631576538086,-2.2118570804595947,0
0.1400235891342163,-0.4996013641357422,-2.2834439277648926,0
-0.567461371421814,-0.4236602783203125,-2.2401602268218994,0
-1.3802343606948853,-0.2933778762817383,-2.061234474182129,0
-2.1976981163024902,-0.29529762268066406,-1.6485660076141357,0
-2.792880058288574,-0.393524169921875,-1.2096705436706543,0
-3.0451395511627197,-0.494964599609375,-0.8752825260162354,0
-3.1221823692321777,-0.6478729248046875,-0.6157659888267517,0
-2.986953020095825,-0.6399993896484375,-0.33914947509765625,0
-2.7052128314971924,-0.6610136032104492,-0.09154975414276123,0
-2.176325559616089,-0.6920108795166016,0.04731178283691406,0
-1.8074482679367065,-0.5439901351928711,0.04853641986846924,0
-1.470840573310852,-0.2001180648803711,-0.036101579666137695,0
-1.5071443319320679,0.0960540771484375,-0.2799264192581177,0
-1.691227674484253,0.5031290054321289,-0.5864741802215576,0
-1.968411922454834,0.8590097427368164,-0.7481402158737183,0
-2.1286396980285645,1.319565773010254,-0.8355209827423096,0
-2.3019630908966064,1.820246696472168,-0.8125166893005371,0
-2.63118052482605,2.2342119216918945,-0.7520695924758911,0
-2.836324453353882,2.6212472915649414,-0.7676982879638672,0
-2.705087184906006,2.930980682373047,-0.8506474494934082,0
-2.2095863819122314,3.0579614639282227,-0.9177355766296387,0
-1.5686801671981812,3.002102851867676,-1.0250141620635986,0
-1.0954761505126953,2.7753124237060547,-1.2360296249389648,0
-0.5261586904525757,2.4901046752929688,-1.4429662227630615,0
0.05450739711523056,2.1824283599853516,-1.5241117477416992,0
0.35382765531539917,1.835550308227539,-1.5634244680404663,0
0.4208832383155823,1.327469825744629,-1.431728720664978,0
0.4341619610786438,0.7537603378295898,-1.1023404598236084,0
0.3783893585205078,0.022986412048339844,-0.5882713794708252,0
0.2029959261417389,-0.8294181823730469,-0.2614016532897949,0
0.20313796401023865,-1.428088665008545,-0.30542469024658203,0
0.06371808052062988,-1.92454195022583,-0.5538046360015869,0
-0.10375409573316574,-2.3717570304870605,-0.9773375988006592,0
-0.26563239097595215,-2.5544166564941406,-1.4713551998138428,0
-0.5187523365020752,-2.8122096061706543,-1.9384708404541016,0
-0.4884529113769531,-3.2168688774108887,-2.23292875289917,0
-0.48988503217697144,-3.5412755012512207,-2.383434772491455,0
-0.5176854133605957,-4.017588138580322,-2.5384323596954346,0
-0.5134354829788208,-4.626553535461426,-2.6837143898010254,0
-0.45807909965515137,-5.2557172775268555,-2.6280517578125,0
-0.33257052302360535,-5.725681304931641,-2.5489320755004883,0
-0.24244940280914307,-5.938559532165527,-2.441880226135254,0
-0.23595422506332397,-5.925787925720215,-2.2854902744293213,0
-0.3996981978416443,-5.73306941986084,-2.099085569381714,0
-0.5308188796043396,-5.348902702331543,-1.8177783489227295,0
-0.6584818959236145,-4.910148620605469,-1.5535035133361816,0
-0.7641657590866089,-4.539023399353027,-1.370473861694336,0
-0.9227684140205383,-4.281070232391357,-1.2347874641418457,0
-0.9246012568473816,-4.1122212409973145,-1.1631896495819092,0
-0.9759809374809265,-4.1470770835876465,-1.1270503997802734,0
-0.9571983218193054,-4.299269199371338,-1.0307483673095703,0
-1.03293776512146,-4.59260368347168,-0.9507827758789062,0
-0.9117663502693176,-4.663649559020996,-0.7958300113677979,0
-0.8094376921653748,-4.70393180847168,-0.6377139091491699,0
-0.7140029072761536,-4.76345157623291,-0.4170558452606201,0
-0.6876420378684998,-4.763212203979492,-0.09089183807373047,0
-0.629554033279419,-4.760581970214844,0.24973249435424805,0
-0.6280193328857422,-4.6837158203125,0.6214666366577148,0
-0.5488346219062805,-4.6330413818359375,1.0290451049804688,0
-0.5426644682884216,-4.457693099975586,1.316802978515625,0
-0.40895429253578186,-4.114306449890137,1.3239006996154785,0
-0.3268340528011322,-3.743584156036377,1.240896224975586,0
-0.2161415070295334,-3.2565245628356934,1.0762853622436523,0
-0.2019537389278412,-2.762819290161133,0.9773707389831543,0
-0.21285930275917053,-2.2333879470825195,0.9334206581115723,0
-0.29274722933769226,-1.6104474067687988,0.9170396327972412,0
-0.19384926557540894,-0.9963703155517578,0.8644311428070068,0
-0.1568281352519989,-0.3617086410522461,0.8452346324920654,0
-0.1718059927225113,0.5049467086791992,0.5959455966949463,0
-0.1454620361328125,1.3962039947509766,0.4584968090057373,0
0.09325453639030457,2.8748464584350586,0.6047883033752441,0
0.29019731283187866,4.830843925476074,1.1068432331085205,0
0.19908681511878967,7.469280242919922,2.311171293258667,0
-0.5940519571304321,9.741307258605957,4.17141056060791,0
-1.1296944618225098,9.943653106689453,6.068470478057861,0
-1.1872462034225464,8.555621147155762,7.642544746398926,0
-1.3276926279067993,6.819154739379883,8.408618927001953,0
-1.1520529985427856,4.724575042724609,8.779962539672852,0
-0.46837344765663147,2.315058708190918,8.61401653289795,0
-0.010189324617385864,-0.6125211715698242,7.974168300628662,0
0.43111687898635864,-3.4169487953186035,6.976347923278809,0
0.3518619239330292,-4.895421981811523,4.790966987609863,0
0.10992434620857239,-4.649586200714111,1.6548447608947754,0
-0.11993551254272461,-2.430461883544922,-0.9292781352996826,0
-0.266262412071228,1.3929786682128906,-1.8056097030639648,0
-0.2679334878921509,5.688048362731934,-2.705416202545166,0
-0.3024807274341583,9.764312744140625,-4.555880069732666,0
-0.49430549144744873,13.40317153930664,-6.276525497436523,0
-1.2145910263061523,15.31318187713623,-6.758476257324219,0
-2.4042813777923584,15.29940128326416,-6.31973123550415,0
-4.010087966918945,13.255049705505371,-5.721970558166504,0
-5.381917476654053,9.431177139282227,-4.592405796051025,0
-5.416940212249756,5.048836708068848,-2.6456780433654785,0
-4.971360206604004,2.343168258666992,-1.5542411804199219,0
-4.843876361846924,1.9375715255737305,-1.4308648109436035,0
-4.822515964508057,2.7236013412475586,-1.5347812175750732,0
-4.224492073059082,3.374948501586914,-1.2150254249572754,0
-3.269530773162842,3.2578248977661133,-0.6278915405273438,0
-3.1991326808929443,2.4575042724609375,-0.8588833808898926,0
-3.091076612472534,1.2335090637207031,-1.5100936889648438,0
-2.9618263244628906,-0.10838031768798828,-2.165714740753174,0
-2.384124755859375,-1.0950279235839844,-2.6699633598327637,0
-1.9453842639923096,-1.2244219779968262,-3.3328404426574707,0
-2.0215744972229004,-0.6460628509521484,-3.685734748840332,0
-1.8678393363952637,-0.04557609558105469,-3.873806953430176,0
-1.4987118244171143,0.45340442657470703,-3.8250834941864014,0
-0.777768611907959,0.8434820175170898,-3.4768435955047607,0
0.02808442711830139,1.0781927108764648,-3.1276512145996094,0
0.6982764005661011,1.0202302932739258,-3.039644241333008,0
1.1955604553222656,0.6260795593261719,-3.138361930847168,0
1.5678244829177856,-0.08045482635498047,-3.345454692840576,0
1.6985199451446533,-0.812291145324707,-3.6598873138427734,0
1.5834765434265137,-1.5670218467712402,-3.999767541885376,0
1.4725381135940552,-2.1961612701416016,-4.353269100189209,0
1.1829710006713867,-2.1228857040405273,-4.578570365905762,0
1.0569792985916138,-1.4664673805236816,-4.865619659423828,0
0.8251041173934937,-0.5591096878051758,-4.791323661804199,0
0.4582061767578125,0.3720283508300781,-4.445473670959473,0
0.24979132413864136,1.0276899337768555,-3.7914557456970215,0
0.19208616018295288,1.1254558563232422,-2.9974098205566406,0
0.29034143686294556,0.8736085891723633,-2.3657851219177246,0
0.2894495129585266,0.4471254348754883,-1.9394010305404663,0
0.29321831464767456,-0.0959930419921875,-1.638076901435852,0
0.19000959396362305,-0.6952457427978516,-1.516456961631775,0
-0.005746781826019287,-1.2089204788208008,-1.3421945571899414,0
-0.19822025299072266,-1.632032871246338,-1.1264463663101196,0
-0.2344154715538025,-1.9096441268920898,-1.0014686584472656,0
-0.32279878854751587,-2.0444183349609375,-0.8930543661117554,0
-0.34635668992996216,-2.1921920776367188,-0.8125467300415039,0
-0.46589142084121704,-2.3172736167907715,-0.8572827577590942,0
-0.5692920684814453,-2.305088996887207,-0.9475904703140259,0
-0.5661163330078125,-2.244455337524414,-1.0228872299194336,0
-0.6147001385688782,-2.226411819458008,-1.1041598320007324,0
-0.6147522926330566,-2.1864328384399414,-1.1216442584991455,0
-0.6454150080680847,-2.081569194793701,-1.1707541942596436,0
-0.6372746229171753,-2.036248207092285,-1.1964852809906006,0
-0.6352810263633728,-1.8351812362670898,-1.2686233520507812,0
-0.5672070980072021,-1.6340303421020508,-1.3991907835006714,0
-0.49268269538879395,-1.3587779998779297,-1.4490928649902344,0
-0.4791092276573181,-1.0406818389892578,-1.4464478492736816,0
-0.2877321243286133,-0.7874126434326172,-1.5607435703277588,0
-5.844831466674805E-4,-0.5533990859985352,-1.6220659017562866,0
0.322210431098938,-0.35056209564208984,-1.5371357202529907,0
0.5483945608139038,-0.3390235900878906,-1.3919761180877686,0
0.9194661378860474,-0.41570377349853516,-1.2416821718215942,0
1.2464640140533447,-0.5565977096557617,-0.9451258778572083,0
1.3931870460510254,-0.6181087493896484,-0.6917212605476379,0
1.5252165794372559,-0.6290559768676758,-0.4790647029876709,0
1.6472532749176025,-0.7831573486328125,-0.29768264293670654,0
1.795373797416687,-0.9654874801635742,-0.1355288028717041,0
1.8238599300384521,-1.0302190780639648,-0.049567580223083496,0
2.0579843521118164,-1.1161317825317383,-0.013683438301086426,0
2.2252447605133057,-1.098830223083496,-0.02367931604385376,0
2.074965000152588,-1.1242656707763672,-0.15437781810760498,0
1.8397459983825684,-1.2593746185302734,-0.32437974214553833,0
1.5413419008255005,-1.241128921508789,-0.18583828210830688,0
1.3571937084197998,-1.2539701461791992,0.10649305582046509,0
1.3140368461608887,-1.3743820190429688,0.17415070533752441,0
1.194048285484314,-1.3964605331420898,0.2118549942970276,0
1.0637657642364502,-1.3345956802368164,0.3027496337890625,0
0.9680876731872559,-1.1577835083007812,0.32494086027145386,0
0.851730227470398,-0.8375101089477539,0.19072264432907104,0
0.6908929944038391,-0.5652875900268555,0.11834090948104858,0
0.6055322289466858,-0.4463081359863281,0.23221546411514282,0
0.4879242181777954,-0.36081600189208984,0.3430599868297577,0
0.29968178272247314,-0.45699214935302734,0.44339245557785034,0
0.15821075439453125,-0.45246124267578125,0.4347149431705475,0
0.15217351913452148,-0.4191131591796875,0.44615933299064636,0
0.06855052709579468,-0.4765472412109375,0.4729994535446167,0
0.05075734853744507,-0.4692239761352539,0.4865165948867798,0
0.08666855096817017,-0.44504451751708984,0.5679816603660583,0
0.11646878719329834,-0.3610076904296875,0.6483397483825684,0
0.1737038493156433,-0.24111270904541016,0.7492940425872803,0
0.2607859969139099,-0.09019184112548828,0.7966694235801697,0
0.3920193910598755,-0.006319999694824219,0.9605224132537842,0
0.4309687614440918,0.0727691650390625,1.0972552299499512,0
0.5353645086288452,0.0060176849365234375,1.1495665311813354,0
0.6237192153930664,-0.08682727813720703,1.2777620553970337,0
0.7679380774497986,-0.1698751449584961,1.3356930017471313,0
0.891140878200531,-0.25507545471191406,1.4023159742355347,0
0.9234849214553833,-0.38304805755615234,1.4057807922363281,0
0.9702091217041016,-0.47243785858154297,1.3775243759155273,0
1.0095386505126953,-0.4419889450073242,1.2770285606384277,0
1.0771641731262207,-0.26553821563720703,1.1023335456848145,0
1.1847872734069824,-0.012599945068359375,0.9517386555671692,0
1.267479658126831,0.3143472671508789,0.7487496137619019,0
1.3658695220947266,0.6649961471557617,0.6298877000808716,0
1.4775176048278809,0.9747495651245117,0.6331305503845215,0
1.5354362726211548,1.186244010925293,0.6262631416320801,0
1.5923525094985962,1.4143457412719727,0.6781268119812012,0
1.677025556564331,1.6757354736328125,0.7140506505966187,0
1.8112030029296875,1.7862224578857422,0.8223369121551514,0
1.894594430923462,1.784235954284668,0.8977842330932617,0
2.0923736095428467,1.7631664276123047,0.9454498291015625,0
2.411759376525879,1.6608610153198242,1.044542670249939,0
2.670999526977539,1.5037364959716797,1.1045037508010864,0
2.879720449447632,1.3086051940917969,1.1615270376205444,0
3.059584617614746,1.1639776229858398,1.265800952911377,0
3.09326171875,1.024343490600586,1.3906073570251465,0
3.083543539047241,0.9422769546508789,1.631150484085083,0
3.0014584064483643,0.9989748001098633,1.896012306213379,0
2.944908380508423,1.2109737396240234,2.170440673828125,0
2.846684217453003,1.4202499389648438,2.449535846710205,0
2.859539747238159,1.6243867874145508,2.534514904022217,0
2.8083364963531494,1.895094871520996,2.422823905944824,0
2.778613567352295,2.2944154739379883,2.0782885551452637,0
2.85810923576355,2.7408647537231445,1.6681452989578247,0
2.9098634719848633,3.3084707260131836,1.196707010269165,0
2.9742252826690674,3.8631820678710938,0.7427847385406494,0
3.063347816467285,4.196999549865723,0.3876538872718811,0
3.129690170288086,4.324562072753906,0.10222569108009338,0
3.219308376312256,4.093116760253906,-0.1187673807144165,0
3.3449158668518066,3.6585569381713867,-0.33579498529434204,0
3.3081696033477783,3.171820640563965,-0.5230034589767456,0
3.1452972888946533,2.6952104568481445,-0.6163529753684998,0
2.9645471572875977,2.350736618041992,-0.7409286499023438,0
2.639760732650757,1.990086555480957,-0.9883070588111877,0
2.391731023788452,1.6205902099609375,-1.3088773488998413,0
2.053654670715332,1.2926397323608398,-1.7559951543807983,0
1.6380743980407715,1.032705307006836,-2.1840736865997314,0
1.1622142791748047,0.7548789978027344,-2.604900360107422,0
0.6003022193908691,0.5168275833129883,-2.6850435733795166,0
-0.14488759636878967,0.3378419876098633,-2.6312928199768066,0
-0.9721659421920776,0.4618816375732422,-2.5253467559814453,0
-1.799606442451477,0.25732898712158203,-2.204305648803711,0
-2.5142722129821777,0.10236930847167969,-1.8677549362182617,0
-3.039865016937256,-0.11544036865234375,-1.467383623123169,0
-3.2455058097839355,-0.19042015075683594,-0.9474448561668396,0
-3.300316572189331,-0.03925037384033203,-0.365833580493927,0
-3.1181869506835938,0.3421316146850586,0.22809088230133057,0
-2.9170427322387695,0.7352943420410156,0.7368173599243164,0
-2.574017286300659,1.151803970336914,1.0200685262680054,0
-2.1972177028656006,1.6465606689453125,1.1196717023849487,0
-1.8368724584579468,2.2028799057006836,1.1051944494247437,0
-1.5325970649719238,2.610563278198242,0.9764721393585205,0
-1.2849504947662354,2.855955123901367,0.7254812717437744,0
-1.0299712419509888,3.0043869018554688,0.48558688163757324,0
-1.0196328163146973,2.960761070251465,0.32195496559143066,0
-1.056342601776123,2.919239044189453,0.22205209732055664,0
-1.1923151016235352,2.920496940612793,0.20085573196411133,0
-1.23134446144104,2.9355907440185547,0.08295488357543945,0
-0.9609249234199524,2.827892303466797,-0.08659172058105469,0
-0.6997841000556946,2.647336959838867,-0.44200754165649414,0
-0.508220374584198,2.1807384490966797,-0.9788745641708374,0
-0.2526666820049286,1.7605867385864258,-1.7393815517425537,0
0.0903603807091713,1.320002555847168,-2.5733392238616943,0
0.1996392160654068,0.7638263702392578,-3.109398365020752,0
0.34263062477111816,0.10213565826416016,-3.3204452991485596,0
0.4327394366264343,-0.5190191268920898,-3.082613229751587,0
0.34229394793510437,-1.164494514465332,-2.6107912063598633,0
0.22321030497550964,-1.794205665588379,-1.9202648401260376,0
0.14413513243198395,-2.3778042793273926,-1.1935498714447021,0
0.04977632313966751,-2.970881462097168,-0.7475442886352539,0
-0.006902486085891724,-3.2556257247924805,-0.6821362972259521,0
-0.1619378626346588,-3.4954628944396973,-0.9804501533508301,0
-0.1756839156150818,-3.6043882369995117,-1.3529942035675049,0
-0.20369653403759003,-3.807450294494629,-1.6992497444152832,0
-0.146833598613739,-3.963562488555908,-1.9953241348266602,0
-0.027461640536785126,-4.108458042144775,-2.3471508026123047,0
-0.05595047026872635,-4.179818630218506,-2.714600086212158,0
0.05253145843744278,-4.316309452056885,-2.8732974529266357,0
0.08471371233463287,-4.474806785583496,-2.945591926574707,0
0.07349084317684174,-4.5549798011779785,-2.905158042907715,0
0.040740422904491425,-4.698087215423584,-2.8213908672332764,0
-0.1357003152370453,-4.751315116882324,-2.533632278442383,0
-0.21149186789989471,-4.81777811050415,-2.266615390777588,0
-0.43078136444091797,-4.945595741271973,-1.9815313816070557,0
-0.6139050126075745,-4.98908805847168,-1.8429887294769287,0
-0.8517327308654785,-4.929498672485352,-1.6327967643737793,0
-1.0459840297698975,-4.757397174835205,-1.540055751800537,0
-1.2949341535568237,-4.5400471687316895,-1.4233055114746094,0
-1.354992389678955,-4.256378650665283,-1.3368818759918213,0
-1.3488529920578003,-4.023749351501465,-1.3332257270812988,0
-1.2767657041549683,-3.880384922027588,-1.3213653564453125,0
-1.2010259628295898,-3.8691911697387695,-1.3396356105804443,0
-1.2438991069793701,-3.9587454795837402,-1.3931374549865723,0
-1.2809181213378906,-4.143805027008057,-1.425079584121704,0
-1.2621403932571411,-4.371406078338623,-1.4000699520111084,0
-1.2165460586547852,-4.552750587463379,-1.2517287731170654,0
-1.2018711566925049,-4.659033298492432,-1.03310227394104,0
-1.1922661066055298,-4.766789436340332,-0.8232624530792236,0
-1.267192006111145,-4.878537178039551,-0.5453267097473145,0
-1.3071950674057007,-4.920348167419434,-0.2992568016052246,0
-1.4385489225387573,-4.906858444213867,-0.058095455169677734,0
-1.5815842151641846,-4.80014181137085,0.0928640365600586,0
-1.8335282802581787,-4.578851222991943,0.2521510124206543,0
-2.0885262489318848,-4.211747646331787,0.4193904399871826,0
-2.1672449111938477,-3.7083258628845215,0.8740706443786621,0
-2.333010196685791,-3.080543041229248,1.5942370891571045,0
-2.1956145763397217,-2.4094438552856445,2.4091522693634033,0
-1.8551514148712158,-1.7565345764160156,3.15226411819458,0
-1.4329988956451416,-0.8887796401977539,3.52705454826355,0
-0.8779768943786621,-0.041665077209472656,3.41536808013916,0
0.09647877514362335,1.0424013137817383,3.0353355407714844,0
1.099353313446045,2.073269844055176,2.4701733589172363,0
2.4274954795837402,3.2610368728637695,1.773747205734253,0
3.8646862506866455,4.934493064880371,1.599381685256958,0
4.4170756340026855,6.784562110900879,2.384064197540283,0
3.886073112487793,8.742315292358398,4.127050399780273,0
2.4912362098693848,9.473003387451172,6.1201300621032715,0
1.1211433410644531,8.684005737304688,7.568683624267578,0
0.23738479614257812,7.114704132080078,7.360198020935059,0
-0.06845158338546753,5.492402076721191,6.667089462280273,0
-0.015503346920013428,3.965723991394043,6.070069313049316,0
0.9209199547767639,1.3560876846313477,5.843003749847412,0
1.8439263105392456,-1.875380039215088,5.636929512023926,0
1.4797122478485107,-5.114315032958984,4.563934326171875,0
-0.04571175575256348,-5.505092144012451,2.4786624908447266,0
-0.533279299736023,-1.5893993377685547,0.7519364356994629,0
0.19514364004135132,3.131709098815918,-0.7380237579345703,0
0.5053373575210571,7.843894958496094,-2.5189385414123535,0
-0.4767564535140991,12.211705207824707,-5.010064601898193,0
-1.582573652267456,15.031803131103516,-6.3894548416137695,0
-2.5021586418151855,16.94652557373047,-5.548961639404297,0
-2.950713872909546,17.099319458007812,-4.346338748931885,0
-3.284921169281006,14.805476188659668,-3.1799299716949463,0
-3.8663995265960693,10.558952331542969,-1.814314603805542,0
-4.564213275909424,6.448415756225586,-0.7931942939758301,0
-5.0897345542907715,3.744142532348633,-1.6182196140289307,0
-5.264390468597412,2.079366683959961,-2.828052043914795,0
-4.356964111328125,0.5502538681030273,-1.8409769535064697,0
-4.055251121520996,-0.44619178771972656,-1.578237771987915,0
-4.011075019836426,-1.2951459884643555,-2.103733539581299,0
-3.7944624423980713,-2.059678077697754,-2.7241578102111816,0
-3.453080415725708,-2.395578384399414,-3.1435065269470215,0
-3.3275434970855713,-2.309530735015869,-3.3696792125701904,0
-3.226543426513672,-1.873511791229248,-3.4544405937194824,0
-3.0093889236450195,-1.1892657279968262,-3.635867118835449,0
-2.4361624717712402,-0.3018016815185547,-3.846237897872925,0
-1.7438639402389526,0.7810983657836914,-3.69716477394104,0
-1.0304762125015259,1.8352346420288086,-3.142033815383911,0
-0.2681116461753845,2.456902503967285,-2.51826810836792,0
0.7411481738090515,2.480161666870117,-2.3315234184265137,0
1.4840868711471558,2.136962890625,-2.674816846847534,0
1.5850993394851685,1.4060401916503906,-3.319305419921875,0
1.6376615762710571,0.43844032287597656,-3.7927117347717285,0
1.427168369293213,-0.5405130386352539,-4.339073181152344,0
1.1343636512756348,-1.1974897384643555,-4.995998382568359,0
1.031843900680542,-1.3285012245178223,-5.352520942687988,0
0.8655858039855957,-1.0193538665771484,-5.509844779968262,0
0.5614245533943176,-0.5019731521606445,-5.40566349029541,0
0.27252787351608276,0.008357048034667969,-4.916713714599609,0
0.06285130977630615,0.1146860122680664,-4.194185256958008,0
0.029791712760925293,0.12822628021240234,-3.295464515686035,0
0.24704593420028687,-0.14697742462158203,-2.4743924140930176,0
0.3628448247909546,-0.4545621871948242,-1.7339643239974976,0
0.39601999521255493,-0.7678165435791016,-1.242880940437317,0
0.5089266896247864,-1.0481529235839844,-0.7415790557861328,0
0.598331093788147,-1.3504228591918945,-0.434345006942749,0
0.7065146565437317,-1.71038818359375,-0.23774075508117676,0
0.696259617805481,-1.9511451721191406,-0.1465773582458496,0
0.775436520576477,-2.044455051422119,-0.14306926727294922,0
0.6016532182693481,-2.1965460777282715,-0.35474085807800293,0
0.36416858434677124,-2.3909196853637695,-0.665459156036377,0
0.09185463190078735,-2.6158065795898438,-0.9618600606918335,0
-0.04525482654571533,-2.7422566413879395,-1.2168958187103271,0
-0.16456764936447144,-2.796753406524658,-1.4877134561538696,0
-0.23025166988372803,-2.669318675994873,-1.7076412439346313,0
-0.27337372303009033,-2.3146400451660156,-1.827070951461792,0
-0.33741217851638794,-1.8452658653259277,-1.8608531951904297,0
-0.27894914150238037,-1.4718122482299805,-1.7921055555343628,0
-0.33504748344421387,-1.041259765625,-1.751747965812683,0
-0.34525275230407715,-0.8239479064941406,-1.8517719507217407,0
-0.3934919238090515,-0.5733442306518555,-1.8908865451812744,0
-0.2813760042190552,-0.5429019927978516,-1.7855604887008667,0
-0.1434563398361206,-0.5529327392578125,-1.5886693000793457,0
0.0032635927200317383,-0.5890216827392578,-1.1854166984558105,0
0.2853895425796509,-0.7371063232421875,-0.8156729936599731,0
0.6072310209274292,-0.8534860610961914,-0.43461310863494873,0
0.9642456769943237,-0.8903732299804688,-0.12623059749603271,0
1.186964988708496,-0.7522878646850586,0.13598906993865967,0
1.4244186878204346,-0.7168693542480469,0.280148983001709,0
1.5198456048965454,-0.5784769058227539,0.29189956188201904,0
1.4623932838439941,-0.4664487838745117,0.16869127750396729,0
1.3981953859329224,-0.3568248748779297,-0.10404360294342041,0
1.394347071647644,-0.4576864242553711,-0.2749428153038025,0
1.3410524129867554,-0.6254024505615234,-0.40591925382614136,0
1.2934449911117554,-0.7762384414672852,-0.5160085558891296,0
1.031432867050171,-0.9747467041015625,-0.6317658424377441,0
0.6694488525390625,-1.342742919921875,-0.6336796283721924,0
0.49738383293151855,-1.3731489181518555,-0.596168577671051,0
0.27098190784454346,-1.3724298477172852,-0.34001874923706055,0
0.05920279026031494,-1.3070993423461914,-0.10944533348083496,0
-0.1408904790878296,-1.1557025909423828,0.14390575885772705,0
-0.1960444450378418,-1.0019855499267578,0.2624606490135193,0
-0.36781638860702515,-0.9271717071533203,0.2727665305137634,0
-0.42941319942474365,-0.7709169387817383,0.2588053345680237,0
-0.4312894940376282,-0.7078819274902344,0.30209195613861084,0
-0.4381256699562073,-0.6112203598022461,0.290244460105896,0
-0.3996469974517822,-0.5168561935424805,0.25927042961120605,0
-0.40679723024368286,-0.491729736328125,0.1540732979774475,0
-0.3352434039115906,-0.6003055572509766,0.11575570702552795,0
-0.23527228832244873,-0.6941862106323242,0.15170496702194214,0
-0.17616653442382812,-0.8403654098510742,0.21426859498023987,0
-0.06689727306365967,-0.9287910461425781,0.27469301223754883,0
0.08777815103530884,-1.0193195343017578,0.383292019367218,0
0.2998737692832947,-1.102381706237793,0.44880765676498413,0
0.5192291140556335,-1.0727815628051758,0.5644320845603943,0
0.6881524920463562,-1.0358495712280273,0.7637434005737305,0
0.8878268599510193,-0.962890625,0.9656572341918945,0
1.0202958583831787,-0.8061351776123047,1.1463282108306885,0
1.0735845565795898,-0.5608901977539062,1.1211389303207397,0
1.1744418144226074,-0.3205080032348633,1.0427167415618896,0
1.169605016708374,-0.0012922286987304688,0.8986186981201172,0
1.17879056930542,0.28186702728271484,0.7077202796936035,0
1.1806401014328003,0.5983266830444336,0.5920305848121643,0
1.1440486907958984,0.9767255783081055,0.47748008370399475,0
1.1408271789550781,1.350020408630371,0.38105419278144836,0
1.0610225200653076,1.7229843139648438,0.27647721767425537,0
1.000571608543396,1.9712562561035156,0.20911015570163727,0
0.8806409239768982,2.159531593322754,0.2336570918560028,0
0.8713750839233398,2.1706924438476562,0.5126626491546631,0
0.9084235429763794,2.055147171020508,0.9023326635360718,0
0.9512380957603455,1.9134626388549805,1.2350468635559082,0
1.0740138292312622,1.7982568740844727,1.4843482971191406,0
1.3098498582839966,1.7166776657104492,1.6407313346862793,0
1.6800001859664917,1.525223731994629,1.8360497951507568,0
2.100374460220337,1.3770742416381836,1.855207920074463,0
2.491608142852783,1.2482681274414062,1.7843753099441528,0
2.8965139389038086,1.1937808990478516,1.6834790706634521,0
3.2383012771606445,1.2207002639770508,1.6029945611953735,0
3.4760987758636475,1.2739391326904297,1.5837041139602661,0
3.6720147132873535,1.389317512512207,1.5464025735855103,0
3.761532783508301,1.5595512390136719,1.5504406690597534,0
3.759131908416748,1.719975471496582,1.6214816570281982,0
3.8371946811676025,1.8849296569824219,1.7928134202957153,0
3.679839849472046,1.8798551559448242,1.9853885173797607,0
3.6387672424316406,1.927323341369629,2.0364387035369873,0
3.5508387088775635,1.9340038299560547,1.9624886512756348,0
3.3267433643341064,2.0242605209350586,1.7293883562088013,0
3.2265641689300537,2.2840681076049805,1.4588958024978638,0
3.1251840591430664,2.619945526123047,1.1454976797103882,0
3.0125370025634766,2.9935426712036133,0.9368605613708496,0
3.0440595149993896,3.529193878173828,0.9909247159957886,0
3.071899890899658,4.011548042297363,1.0518580675125122,0
3.1563496589660645,4.139438629150391,1.0910375118255615,0
3.2473740577697754,3.918132781982422,0.8950210809707642,0
3.2972793579101562,3.348128318786621,0.5444426536560059,0
3.3110439777374268,2.798182487487793,0.12721730768680573,0
3.210104465484619,2.1775283813476562,-0.3860396146774292,0
3.155496120452881,1.4792261123657227,-0.8040826916694641,0
2.980536937713623,0.897212028503418,-1.3254661560058594,0
2.7770369052886963,0.34064292907714844,-1.815914273262024,0
2.3044629096984863,0.08222103118896484,-2.0068559646606445,0
1.6816294193267822,-0.09590625762939453,-2.005295991897583,0
0.7786296606063843,-0.14356136322021484,-1.8103770017623901,0
-0.02015945315361023,-0.09912681579589844,-1.6247243881225586,0
-0.7090340852737427,0.025356292724609375,-1.4475407600402832,0
-1.3214569091796875,0.20111465454101562,-1.2369621992111206,0
-1.7695026397705078,0.3682832717895508,-0.9604794383049011,0
-2.2006993293762207,0.5292339324951172,-0.6932815313339233,0
-2.530945301055908,0.6623258590698242,-0.34267866611480713,0
-2.582794427871704,0.9060487747192383,-0.0551753044128418,0
-2.5498156547546387,1.2647762298583984,0.1014258861541748,0
-2.4481935501098633,1.6401042938232422,0.09686708450317383,0
-2.3674778938293457,1.9170875549316406,0.005316019058227539,0
-2.3457651138305664,2.1604700088500977,-0.2822495698928833,0
-2.5757527351379395,2.401646614074707,-0.6533057689666748,0
-3.15885591506958,2.5190963745117188,-0.926447868347168,0
-3.832998275756836,2.6161890029907227,-1.0681023597717285,0
-4.228844165802002,2.602365493774414,-0.9719545245170593,0
-4.445868492126465,2.6046266555786133,-0.8298577070236206,0
-4.391988754272461,2.606290817260742,-0.7278571128845215,0
-4.200242519378662,2.597773551940918,-0.6653554439544678,0
-3.8108556270599365,2.4953088760375977,-0.6246519088745117,0
-3.349262237548828,2.313253402709961,-0.6788952350616455,0
-2.8432371616363525,1.919997215270996,-0.7478973865509033,0
-2.4886560440063477,1.2962274551391602,-0.8321425914764404,0
-2.064718008041382,0.7525596618652344,-1.0350921154022217,0
-1.4022561311721802,0.4489727020263672,-1.449758529663086,0
-0.6285400986671448,0.32802677154541016,-1.792474627494812,0
-0.1605427861213684,0.18407917022705078,-2.011596202850342,0
0.029733672738075256,-0.157440185546875,-2.0354647636413574,0
0.054611578583717346,-0.5601568222045898,-2.045652389526367,0
-0.004015088081359863,-1.1676921844482422,-1.9507884979248047,0
-0.0658387541770935,-1.683598518371582,-1.8842624425888062,0
-0.2848671078681946,-2.2015180587768555,-1.9005566835403442,0
-0.43479830026626587,-2.7000350952148438,-2.025887966156006,0
-0.3950135111808777,-3.1817026138305664,-2.1261544227600098,0
-0.4161504805088043,-3.56766939163208,-2.2063567638397217,0
-0.3642650246620178,-3.7361679077148438,-2.2737560272216797,0
-0.3787820339202881,-3.838209629058838,-2.411982297897339,0
-0.25682559609413147,-3.9027152061462402,-2.6159939765930176,0
-0.2547818422317505,-3.8030500411987305,-2.9025027751922607,0
