AccX,AccY,AccZ,stepCount
1.9120206832885742,-0.1948108673095703,-0.025901436805725098,1.7340219020843506
1.855804204940796,-0.2954826354980469,-0.19939519464969635,-5.448195457458496
1.7646089792251587,-0.4029693603515625,-0.36668860912323,2.812304973602295
1.6097557544708252,-0.49331188201904297,-0.46318164467811584,-0.4980369210243225
1.4702242612838745,-0.5904006958007812,-0.5223067998886108,0.9448426961898804
1.2147666215896606,-0.7850551605224609,-0.5272068977355957,-3.1491713523864746
0.8605049848556519,-0.8786935806274414,-0.5710118412971497,1.0652210712432861
0.4652438163757324,-1.0340156555175781,-0.5723809599876404,1.760524868965149
0.08919477462768555,-1.0811901092529297,-0.6439546942710876,0
-0.3437473773956299,-1.0777397155761719,-0.7908480763435364,0
-0.7734036445617676,-1.1671419143676758,-0.98975670337677,0
-1.1130750179290771,-0.9595708847045898,-1.1643744707107544,0
-1.309604525566101,-0.7638359069824219,-1.3581042289733887,0
-1.6955857276916504,-0.36941051483154297,-1.5520086288452148,0
-1.8855592012405396,-0.09926128387451172,-1.568810224533081,0
-2.152113914489746,0.14008235931396484,-1.4799742698669434,0
-2.421147346496582,0.4874238967895508,-1.3162486553192139,0
-2.6376025676727295,0.7179450988769531,-1.1298922300338745,0
-2.801758050918579,0.9179830551147461,-0.884777307510376,0
-2.8349390029907227,1.1905136108398438,-0.7867235541343689,0
-2.830767869949341,1.5451488494873047,-0.7400717735290527,0
-2.7606077194213867,1.8432121276855469,-0.7159523367881775,0
-2.701634645462036,2.084958076477051,-0.69990473985672,0
-2.637767791748047,2.2705821990966797,-0.6794156432151794,0
-2.529189109802246,2.419236183166504,-0.6241934299468994,0
-2.3817267417907715,2.504364013671875,-0.5099326372146606,0
-2.198927879333496,2.5302114486694336,-0.4546908140182495,0
-2.0076398849487305,2.5344457626342773,-0.5989323854446411,0
-1.8724844455718994,2.507168769836426,-0.9968042373657227,0
-1.730705976486206,2.414822578430176,-1.517358660697937,0
-1.5861228704452515,2.181011199951172,-1.920589566230774,0
-1.6004518270492554,1.8635005950927734,-2.055673360824585,0
-1.7225801944732666,1.5297832489013672,-2.15523624420166,0
-1.8280044794082642,1.2140626907348633,-2.1388986110687256,0
-1.8901762962341309,1.0053958892822266,-1.8898868560791016,0
-1.9681017398834229,1.0498437881469727,-1.5462641716003418,0
-1.9507765769958496,1.261214256286621,-1.348040223121643,0
-1.8161251544952393,1.5270156860351562,-1.2257192134857178,0
-1.6549817323684692,1.8231773376464844,-1.1663092374801636,0
-1.438904047012329,2.077702522277832,-1.1228001117706299,0
-1.180030107498169,1.9746990203857422,-0.9811011552810669,0
-1.2645305395126343,1.872776985168457,-0.8489627838134766,0
-1.2604701519012451,1.594339370727539,-0.754878044128418,0
-1.1685303449630737,1.3471460342407227,-0.7810587882995605,0
-1.214057445526123,1.0473041534423828,-0.9940042495727539,0
-1.2538124322891235,0.8264150619506836,-1.3244655132293701,0
-1.2328886985778809,0.49808692932128906,-1.7396928071975708,0
-1.2228641510009766,0.08433341979980469,-2.1117310523986816,0
-1.0295053720474243,-0.3260202407836914,-2.271855354309082,0
-0.8415837287902832,-0.62054443359375,-2.2517523765563965,0
-0.7638161182403564,-1.1747856140136719,-2.087646961212158,0
-1.0086628198623657,-1.902663230895996,-1.7359285354614258,0
-1.171338677406311,-2.491150379180908,-1.3251161575317383,0
-1.2153264284133911,-2.854620933532715,-1.0319249629974365,0
-0.9872639775276184,-3.290231227874756,-1.0946767330169678,0
-1.1174523830413818,-3.9611706733703613,-0.3539884090423584,0
-1.2378941774368286,-4.186124324798584,-0.05813455581665039,0
-1.2313967943191528,-4.116149425506592,-0.2286837100982666,0
-1.5094342231750488,-3.6813879013061523,-1.0441153049468994,0
-1.5503511428833008,-3.2835679054260254,-1.591294288635254,0
-1.497382640838623,-3.018667221069336,-1.7647671699523926,0
-1.479552149772644,-2.748267650604248,-1.7340333461761475,0
-1.4517765045166016,-2.4439172744750977,-1.6471421718597412,0
-1.442812442779541,-2.593533515930176,-1.7168304920196533,0
-1.5627098083496094,-2.677974224090576,-1.528757095336914,0
-1.4958508014678955,-2.6163411140441895,-1.2979049682617188,0
-1.4597350358963013,-2.471376419067383,-1.0954666137695312,0
-1.4641493558883667,-2.398754596710205,-1.0215604305267334,0
-1.3490383625030518,-2.491598129272461,-1.0761117935180664,0
-1.2294402122497559,-2.7281532287597656,-1.0988240242004395,0
-1.1580488681793213,-2.962268352508545,-1.128222942352295,0
-1.1371806859970093,-3.129392147064209,-1.1045267581939697,0
-1.1089963912963867,-3.4518446922302246,-1.0711522102355957,0
-1.0017107725143433,-3.604185104370117,-0.9851734638214111,0
-0.9063782691955566,-3.6582393646240234,-0.9089853763580322,0
-0.7777400612831116,-3.798121929168701,-0.8331398963928223,0
-0.6092212200164795,-3.851351261138916,-0.7291784286499023,0
-0.4588730037212372,-3.8847923278808594,-0.6355700492858887,0
-0.32726991176605225,-3.8289284706115723,-0.5166239738464355,0
-0.16458070278167725,-3.812793254852295,-0.3606290817260742,0
-0.0548100471496582,-3.7834911346435547,-0.16318273544311523,0
-0.045999228954315186,-3.6714682579040527,0.1351299285888672,0
-0.059308767318725586,-3.4860920906066895,0.4739084243774414,0
-0.6642202734947205,-3.102705478668213,0.7041621208190918,0
-0.28993338346481323,-2.808534622192383,1.1558570861816406,0
0.10475558042526245,-2.5054855346679688,1.6540868282318115,0
0.15889006853103638,-2.150115966796875,1.992257833480835,0
0.1460821032524109,-1.6870160102844238,2.1741275787353516,0
-0.004937410354614258,-1.0727386474609375,2.3013033866882324,0
-0.04939162731170654,-0.2663593292236328,2.5589606761932373,0
-0.03207653760910034,0.5267429351806641,2.7732136249542236,0
0.1862660050392151,1.3264522552490234,2.877370834350586,0
0.6295995116233826,2.0476760864257812,2.596186399459839,0
1.28292977809906,2.8351669311523438,2.0585520267486572,0
1.9564405679702759,3.6133766174316406,1.614300012588501,0
2.3140275478363037,4.301427841186523,1.3296127319335938,0
2.315579891204834,5.028642654418945,1.4057509899139404,0
1.9776610136032104,5.3157758712768555,2.048497438430786,0
1.3331937789916992,5.021132469177246,3.010296583175659,0
1.141534686088562,4.301690101623535,3.917541742324829,0
0.543869137763977,3.6033506393432617,4.692751407623291,0
-0.07335186004638672,2.7835311889648438,5.386496543884277,0
-0.22358423471450806,1.539933204650879,5.442620277404785,0
-0.6114068627357483,0.45360279083251953,5.400422096252441,0
-0.642973005771637,-0.3368358612060547,5.00583553314209,0
-0.8164973855018616,-0.6703195571899414,3.7297725677490234,0
-0.8217226266860962,-0.5793647766113281,2.0142040252685547,0
-0.6460557579994202,0.1951761245727539,0.3752889633178711,0
-0.6229111552238464,1.8424301147460938,-0.9999644756317139,0
-0.874640166759491,3.956965446472168,-2.1938509941101074,0
-1.0833015441894531,6.466604232788086,-3.0137953758239746,0
-1.449191689491272,8.41287612915039,-3.8076531887054443,0
-1.295876383781433,9.71043586730957,-3.3804478645324707,0
-2.102985382080078,9.762253761291504,-4.420365810394287,0
-2.8830902576446533,8.78474235534668,-5.2283830642700195,0
-3.81931209564209,6.724698066711426,-5.638442516326904,0
-4.694734573364258,3.9339075088500977,-5.474470615386963,0
-5.2890944480896,1.4745893478393555,-4.754487991333008,0
-5.743611812591553,0.21010875701904297,-2.7612314224243164,0
-5.766345500946045,0.014620780944824219,-1.1286842823028564,0
-4.924445152282715,-0.14768505096435547,-0.2079143524169922,0
-3.6105105876922607,-0.20652008056640625,-0.04749107360839844,0
-2.495312452316284,-0.02993488311767578,-0.772566556930542,0
-2.1959924697875977,0.1566152572631836,-1.9561622142791748,0
-2.4104650020599365,0.3197975158691406,-2.999458074569702,0
-2.561771869659424,0.3390188217163086,-3.4645566940307617,0
-2.9722986221313477,0.3866548538208008,-3.2070305347442627,0
-2.8579511642456055,0.43216991424560547,-2.831346035003662,0
-2.3682332038879395,0.5909461975097656,-2.593963384628296,0
-1.63417649269104,0.8108587265014648,-2.4926366806030273,0
-1.058210849761963,1.209421157836914,-2.4556374549865723,0
-0.5436874628067017,1.5618057250976562,-2.3392744064331055,0
-0.16595304012298584,1.8007440567016602,-2.147108554840088,0
0.29007136821746826,1.7105207443237305,-1.9299952983856201,0
0.7227036952972412,1.2865848541259766,-2.304347276687622,0
0.9372481107711792,0.8523101806640625,-2.8774945735931396,0
0.990981936454773,0.36719799041748047,-3.211980104446411,0
1.2271591424942017,-0.1659679412841797,-3.508007764816284,0
1.2813359498977661,-0.4931211471557617,-3.7130861282348633,0
1.2021733522415161,-0.6236534118652344,-3.7291083335876465,0
1.089680552482605,-0.6842746734619141,-3.5699031352996826,0
1.0040111541748047,-0.6031770706176758,-3.265315294265747,0
0.9111913442611694,-0.4857177734375,-2.8444929122924805,0
0.8416464328765869,-0.4396219253540039,-2.3815410137176514,0
0.813833475112915,-0.4864320755004883,-1.935962200164795,0
0.7428880929946899,-0.7215795516967773,-1.5674797296524048,0
0.6897687911987305,-1.0203485488891602,-1.2544711828231812,0
0.682489275932312,-1.146071434020996,-1.0321791172027588,0
0.4616129398345947,-1.533900260925293,-0.9844732284545898,0
0.38326573371887207,-1.6288814544677734,-0.8739790916442871,0
0.20539140701293945,-1.8857612609863281,-0.8606584072113037,0
0.042318105697631836,-2.0247244834899902,-0.8863213062286377,0
-0.10614967346191406,-2.0007119178771973,-0.9118707180023193,0
-0.22564613819122314,-1.8141326904296875,-1.0418611764907837,0
-0.28766584396362305,-1.6325912475585938,-1.2329119443893433,0
-0.36433982849121094,-1.5421533584594727,-1.30302095413208,0
-0.2979848384857178,-1.2795867919921875,-1.520331621170044,0
-0.2681233882904053,-1.052983283996582,-1.6794960498809814,0
-0.2868121862411499,-0.7592391967773438,-1.8243863582611084,0
-0.27279675006866455,-0.41269874572753906,-1.8476946353912354,0
-0.2976740598678589,-0.12097740173339844,-1.845558524131775,0
-0.36856353282928467,0.1471538543701172,-1.8733634948730469,0
-0.30601966381073,0.34148120880126953,-1.7397781610488892,0
-0.5042881965637207,0.2876014709472656,-1.6010336875915527,0
-0.6257425546646118,0.27991676330566406,-1.395116925239563,0
-0.5554258227348328,0.22498226165771484,-1.1601454019546509,0
-0.5181946754455566,-0.04462242126464844,-0.9748145341873169,0
-0.3730509281158447,-0.20593643188476562,-0.9007909297943115,0
-0.14183783531188965,-0.38349437713623047,-0.8515031337738037,0
0.041063904762268066,-0.5916204452514648,-0.9127885103225708,0
0.20887482166290283,-0.8781166076660156,-0.9479265213012695,0
0.3879019021987915,-1.0492591857910156,-1.0236527919769287,0
0.5851653814315796,-1.1865873336791992,-1.0317471027374268,0
0.6929705142974854,-1.3021926879882812,-1.112815260887146,0
0.800102949142456,-1.3244495391845703,-1.204282522201538,0
0.7821595668792725,-1.3156185150146484,-1.363504409790039,0
0.7853184938430786,-1.2805585861206055,-1.4587230682373047,0
0.6613585948944092,-1.2455940246582031,-1.4780265092849731,0
0.6785290241241455,-1.2944765090942383,-1.4452160596847534,0
0.7318085432052612,-1.4032354354858398,-1.3339747190475464,0
0.6563372611999512,-1.5024499893188477,-1.2615811824798584,0
0.5816508531570435,-1.5418548583984375,-1.1854311227798462,0
0.5032385587692261,-1.4592866897583008,-1.0606493949890137,0
0.33040082454681396,-1.2189998626708984,-0.9593302011489868,0
0.3025921583175659,-1.0459203720092773,-0.8507968187332153,0
0.22390317916870117,-0.8322982788085938,-0.7024247646331787,0
0.049033284187316895,-0.5732927322387695,-0.5080476403236389,0
-0.21754419803619385,-0.38604068756103516,-0.3540780544281006,0
-0.4206418991088867,-0.3350381851196289,-0.21375000476837158,0
-0.5600732564926147,-0.25527000427246094,-0.0625157356262207,0
-0.6598407626152039,-0.2376708984375,0.042455077171325684,0
-0.8273869156837463,-0.4017066955566406,0.13665080070495605,0
-0.8279861211776733,-0.6706342697143555,0.276874303817749,0
-0.7244457602500916,-0.9437808990478516,0.3644564151763916,0
-0.6180398464202881,-1.1134862899780273,0.481079638004303,0
-0.4970294237136841,-1.2253789901733398,0.6370846033096313,0
-0.428658127784729,-1.3656291961669922,0.6823095083236694,0
-0.3197699785232544,-1.5174903869628906,0.7464948296546936,0
-0.03424978256225586,-1.592498779296875,0.8348626494407654,0
0.15962636470794678,-1.6433649063110352,0.8762683272361755,0
0.45061635971069336,-1.5099143981933594,0.8904378414154053,0
0.7670168876647949,-1.3406705856323242,0.8253160119056702,0
1.0541609525680542,-1.1667871475219727,0.6068044900894165,0
1.2239329814910889,-0.9643468856811523,0.3661136031150818,0
1.3868573904037476,-0.7333974838256836,0.24875277280807495,0
1.5193946361541748,-0.5218114852905273,0.2518303394317627,0
1.5451297760009766,-0.33670997619628906,0.27190226316452026,0
1.6315850019454956,-0.18040180206298828,0.19086450338363647,0
1.687972068786621,-0.05286121368408203,0.15193688869476318,0
1.7049098014831543,-0.004276275634765625,0.15460288524627686,0
1.6919926404953003,0.15195369720458984,0.12201553583145142,0
1.649132251739502,0.31049442291259766,0.061210811138153076,0
1.707926869392395,0.41871070861816406,0.04166916012763977,0
1.7559220790863037,0.5340251922607422,-0.03211022913455963,0
1.7095369100570679,0.6277141571044922,-0.231861412525177,0
1.5951106548309326,0.6782855987548828,-0.33494266867637634,0
1.4360928535461426,0.6571559906005859,-0.39842143654823303,0
1.2011467218399048,0.796381950378418,-0.4723907709121704,0
1.1104743480682373,0.8948850631713867,-0.33365657925605774,0
0.951158881187439,0.7040290832519531,-0.12548129260540009,0
0.9098483324050903,0.4274263381958008,0.051504772156476974,0
0.821471095085144,0.20864200592041016,0.06728873401880264,0
0.8246244192123413,0.18390560150146484,0.02635771408677101,0
0.7613834142684937,0.22623825073242188,0.08896825462579727,0
0.722252368927002,0.2997264862060547,0.1979665458202362,0
0.6325740218162537,0.3828573226928711,0.30099040269851685,0
0.7887889742851257,0.5138845443725586,0.4270750880241394,0
0.9394659996032715,0.5086355209350586,0.5958449840545654,0
1.0698858499526978,0.4725217819213867,0.6734777688980103,0
1.4191386699676514,0.7068462371826172,0.6548150181770325,0
1.7239998579025269,0.8071498870849609,0.7765989303588867,0
1.9939188957214355,1.0222816467285156,0.9263672828674316,0
2.2410364151000977,1.2253503799438477,1.108977198600769,0
2.609009265899658,1.6817684173583984,1.2170884609222412,0
2.6215152740478516,1.422804832458496,1.139687180519104,0
2.5915920734405518,1.456014633178711,1.0602669715881348,0
2.895315170288086,1.9866199493408203,1.1060596704483032,0
2.740468740463257,1.7012701034545898,0.9032420516014099,0
2.813312292098999,2.0810842514038086,0.6188981533050537,0
2.531846046447754,2.030085563659668,0.27580520510673523,0
2.5704362392425537,2.596125602722168,0.1871218979358673,0
2.4600069522857666,2.757411003112793,0.19207912683486938,0
2.4135091304779053,3.186356544494629,0.20212814211845398,0
2.5249767303466797,3.6339216232299805,0.32311147451400757,0
2.5600500106811523,3.631429672241211,0.23933464288711548,0
2.568824052810669,3.7246313095092773,-0.020804286003112793,0
2.45266056060791,3.4902238845825195,-0.44626396894454956,0
2.4744350910186768,3.492974281311035,-0.7071565389633179,0
2.505263090133667,3.0104780197143555,-0.9362553358078003,0
2.3972480297088623,2.796586036682129,-1.1483718156814575,0
2.151308059692383,2.6597251892089844,-1.261913537979126,0
1.7537732124328613,2.3679351806640625,-1.2861018180847168,0
1.2265516519546509,2.0028076171875,-1.4242265224456787,0
0.6131343841552734,1.626699447631836,-1.6164518594741821,0
0.15599125623703003,1.313812255859375,-1.8896119594573975,0
-0.3092105984687805,0.7676639556884766,-2.096451997756958,0
-0.7915287613868713,0.5386447906494141,-1.9880790710449219,0
-1.0676946640014648,0.4471254348754883,-1.8416794538497925,0
-1.4437179565429688,0.5337390899658203,-1.7237858772277832,0
-1.7826995849609375,0.5831718444824219,-1.5760796070098877,0
-2.0888171195983887,0.6648530960083008,-1.4284359216690063,0
-2.5148539543151855,0.6807689666748047,-1.3636741638183594,0
-2.9457805156707764,0.7602071762084961,-1.328601360321045,0
-3.1805672645568848,0.8147363662719727,-1.292141079902649,0
-3.4036834239959717,0.8827495574951172,-1.2275422811508179,0
-3.4990487098693848,1.0144634246826172,-1.1236573457717896,0
-3.4780986309051514,1.144984245300293,-0.8815975785255432,0
-3.2783803939819336,1.2498693466186523,-0.5261448621749878,0
-2.9663774967193604,1.2447242736816406,-0.24008703231811523,0
-2.6748194694519043,1.3824453353881836,-0.16199028491973877,0
-2.3870911598205566,1.3612432479858398,-0.32296276092529297,0
-1.9279427528381348,1.3822650909423828,-0.7443369626998901,0
-1.66972017288208,1.206904411315918,-1.2578589916229248,0
-1.3284032344818115,1.0921125411987305,-1.6725449562072754,0
-1.4387264251708984,0.8714208602905273,-1.809206485748291,0
-1.7172123193740845,0.7226409912109375,-1.6400346755981445,0
-1.9358386993408203,0.5097684860229492,-1.321738362312317,0
-2.127777099609375,0.3574056625366211,-1.0359997749328613,0
-2.228029727935791,0.21500587463378906,-0.6660885810852051,0
-2.155557155609131,0.2349567413330078,-0.3523726463317871,0
-1.8677728176116943,0.2537422180175781,-0.17784619331359863,0
-1.572983741760254,0.3041868209838867,-0.4270186424255371,0
-1.3895472288131714,0.28566932678222656,-1.0581120252609253,0
-1.3138713836669922,0.26329517364501953,-2.055260181427002,0
-1.1378062963485718,0.21596527099609375,-2.924408435821533,0
-0.8657902479171753,0.17275428771972656,-3.5998494625091553,0
-1.042650818824768,-0.0695047378540039,-3.8041646480560303,0
-0.8460232019424438,-0.29093265533447266,-3.515272617340088,0
-0.740424633026123,-0.6351594924926758,-3.199669122695923,0
-0.6058954000473022,-0.9301528930664062,-2.7348363399505615,0
-0.6002894639968872,-1.3582282066345215,-2.1843316555023193,0
-0.5058272480964661,-1.7528629302978516,-1.4695491790771484,0
-0.5889922976493835,-2.746906280517578,-0.28609657287597656,0
-0.736114501953125,-3.728245735168457,0.6255083084106445,0
-0.8374079465866089,-4.416557312011719,0.611020565032959,0
-0.7689712047576904,-4.921585559844971,-0.34238457679748535,0
-0.6282495260238647,-5.3748250007629395,-1.3979253768920898,0
-0.6594071984291077,-6.108810901641846,-2.0871543884277344,0
-0.8736658692359924,-6.630858898162842,-2.3959856033325195,0
-0.8429824709892273,-6.5830888748168945,-2.328805685043335,0
-0.7050243020057678,-5.878047943115234,-2.153348684310913,0
-0.41354119777679443,-5.068968772888184,-1.869629144668579,0
-0.059152305126190186,-4.280319690704346,-1.477705955505371,0
0.11600345373153687,-3.672333240509033,-1.1235644817352295,0
0.09042805433273315,-3.1610641479492188,-0.8790543079376221,0
-0.06362754106521606,-2.870929718017578,-0.7222762107849121,0
-0.07527536153793335,-2.794820785522461,-0.6932821273803711,0
-0.32364991307258606,-2.987590789794922,-0.6866846084594727,0
-0.5695205926895142,-3.269505023956299,-0.6523599624633789,0
-0.6722884774208069,-3.6403560638427734,-0.5856785774230957,0
-0.6872543692588806,-3.9349098205566406,-0.575347900390625,0
-0.7075818777084351,-4.2965264320373535,-0.6240277290344238,0
-0.7523696422576904,-4.543254852294922,-0.6194541454315186,0
-0.7523449063301086,-4.720503807067871,-0.5738439559936523,0
-0.71022629737854,-4.864060878753662,-0.4611034393310547,0
-0.7267863154411316,-4.949903964996338,-0.2551231384277344,0
-0.7043399214744568,-4.994579315185547,-0.05196571350097656,0
-0.7101677656173706,-5.072085380554199,0.18170928955078125,0
-0.818482518196106,-5.079446792602539,0.4793124198913574,0
-0.8451812267303467,-4.961549758911133,0.8214321136474609,0
-0.9288040399551392,-4.758867263793945,1.1429328918457031,0
-0.9828701019287109,-4.49506139755249,1.5484375953674316,0
-1.081756353378296,-4.141019344329834,1.8863320350646973,0
-1.2018697261810303,-3.691575050354004,2.1629767417907715,0
-1.1780037879943848,-3.1296634674072266,2.5496556758880615,0
-1.1368098258972168,-2.4763498306274414,2.8296468257904053,0
-1.2330739498138428,-1.7859816551208496,3.039360523223877,0
-1.1426584720611572,-0.9405536651611328,3.2791481018066406,0
-0.7471894025802612,-0.16389846801757812,3.1343157291412354,0
0.20820283889770508,0.8490447998046875,2.5510544776916504,0
1.2952964305877686,2.0994129180908203,1.9107389450073242,0
2.6634013652801514,3.9035873413085938,1.729663610458374,0
3.5919270515441895,5.969334602355957,2.2681968212127686,0
3.547329902648926,8.087447166442871,3.4354889392852783,0
2.359891414642334,9.634719848632812,5.1616716384887695,0
1.4248017072677612,9.670397758483887,6.808396816253662,0
0.6598445177078247,8.71084213256836,7.706883907318115,0
0.12987244129180908,7.451437950134277,7.713184356689453,0
0.0800619125366211,5.883975028991699,7.1183929443359375,0
0.18391084671020508,4.353076934814453,6.133248805999756,0
0.6447223424911499,2.3027801513671875,4.762441635131836,0
0.6678944826126099,1.0154609680175781,2.4041905403137207,0
0.5301525592803955,1.3358469009399414,0.48151302337646484,0
0.13344740867614746,3.4318180084228516,-0.37669897079467773,0
-0.2748517394065857,6.538364410400391,-1.2787864208221436,0
-0.47058117389678955,9.614156723022461,-3.662867546081543,0
-0.18656927347183228,12.172118186950684,-5.800568580627441,0
0.23886942863464355,12.726347923278809,-6.3347368240356445,0
-0.5341241955757141,11.918737411499023,-6.954931259155273,0
-1.8651881217956543,9.422183990478516,-6.35456657409668,0
-4.983334541320801,6.31614875793457,-5.161534786224365,0
-8.158673286437988,3.2406158447265625,-4.232787132263184,0
-9.913542747497559,0.21612548828125,-3.3641176223754883,0
-9.003557205200195,-1.422414779663086,-0.5304937362670898,0
-7.612415313720703,-1.274035930633545,0.5223045349121094,0
-5.847755432128906,-0.7589702606201172,0.2696986198425293,0
-4.713251113891602,-0.5672521591186523,-1.0258910655975342,0
-4.2956318855285645,-0.5238685607910156,-2.3571927547454834,0
-3.968538761138916,-0.6197500228881836,-3.4043567180633545,0
-3.238297462463379,-0.7282953262329102,-3.8620495796203613,0
-2.0495166778564453,-0.5149831771850586,-3.993997812271118,0
-1.7732089757919312,0.439239501953125,-4.222707748413086,0
-1.5604828596115112,1.848586082458496,-4.254401206970215,0
-0.5076988935470581,3.2308807373046875,-4.069555759429932,0
0.9055984020233154,4.252509117126465,-3.581159830093384,0
2.0693013668060303,4.826545715332031,-3.118252992630005,0
2.9870972633361816,4.77133846282959,-3.465761661529541,0
3.04215669631958,4.224368095397949,-4.510836601257324,0
2.714843511581421,3.291543960571289,-4.760594844818115,0
2.613130569458008,2.21309757232666,-5.111911773681641,0
2.3156228065490723,1.1627445220947266,-5.768921852111816,0
1.7281423807144165,0.4143533706665039,-6.170477867126465,0
1.1548411846160889,-0.06232738494873047,-6.2941083908081055,0
0.664322018623352,-0.3145904541015625,-6.092844486236572,0
0.010642170906066895,-0.2918891906738281,-5.59317684173584,0
-0.5534452199935913,-0.19523906707763672,-4.714937210083008,0
-0.9671452045440674,-0.06310653686523438,-3.6449167728424072,0
-1.009700059890747,-0.013010978698730469,-2.6263749599456787,0
-0.9435976147651672,-0.0546875,-1.8065768480300903,0
-0.7921059131622314,-0.11880874633789062,-1.2826008796691895,0
-0.7053553462028503,-0.24141502380371094,-0.8975908756256104,0
-0.4458959102630615,-0.31734371185302734,-0.7485191822052002,0
-0.2810620665550232,-0.585784912109375,-0.6694231033325195,0
-0.14032888412475586,-0.8839702606201172,-0.690587043762207,0
0.023730874061584473,-0.9610681533813477,-0.6840794086456299,0
-0.18634283542633057,-1.3122272491455078,-0.8770135641098022,0
-0.5210211873054504,-1.7528986930847168,-1.1833654642105103,0
-0.6104546785354614,-1.9938507080078125,-1.3828260898590088,0
-0.8192124962806702,-2.365464210510254,-1.6453408002853394,0
-1.0405791997909546,-2.640476703643799,-1.882720947265625,0
-1.153564214706421,-2.7592859268188477,-2.2365612983703613,0
-1.1284418106079102,-2.810549259185791,-2.461143970489502,0
-0.962250828742981,-2.6698923110961914,-2.6628551483154297,0
-0.7480611801147461,-2.4593706130981445,-2.6896557807922363,0
-0.7132840752601624,-2.0928850173950195,-2.496946334838867,0
-0.6620434522628784,-1.8455491065979004,-2.180950403213501,0
-0.5252496004104614,-1.6814775466918945,-1.686416506767273,0
-0.42294132709503174,-1.4524641036987305,-1.1420308351516724,0
-0.36755549907684326,-1.3595075607299805,-0.8103910684585571,0
-0.2490830421447754,-1.2446937561035156,-0.5571309328079224,0
-0.08684730529785156,-1.1726503372192383,-0.4537285566329956,0
0.032771944999694824,-1.1361732482910156,-0.528495192527771,0
0.27259528636932373,-1.0659942626953125,-0.5536849498748779,0
0.42442846298217773,-1.1272411346435547,-0.6268854141235352,0
0.6250988245010376,-1.2051210403442383,-0.7213814854621887,0
0.7840280532836914,-1.192021369934082,-0.858945369720459,0
0.9064199924468994,-1.1813125610351562,-0.9418613314628601,0
1.0806465148925781,-1.1872663497924805,-0.9753331542015076,0
1.194036841392517,-1.2074756622314453,-0.8803291916847229,0
1.2557481527328491,-1.1869277954101562,-0.6732780933380127,0
1.2991979122161865,-1.2667579650878906,-0.46178239583969116,0
1.3125325441360474,-1.234039306640625,-0.16457271575927734,0
1.2456053495407104,-1.2419366836547852,0.07227003574371338,0
1.382939338684082,-1.4218149185180664,0.03302609920501709,0
1.303244709968567,-1.550950050354004,-0.14176082611083984,0
0.6356431245803833,-1.2181968688964844,0.10385918617248535,0
0.592157244682312,-1.075037956237793,0.7573690414428711,0
0.5869460105895996,-1.130934715270996,0.9720973968505859,0
0.5093475580215454,-1.2202997207641602,0.8159637451171875,0
0.5906152725219727,-1.2567577362060547,0.9984713792800903,0
0.7249587774276733,-1.1398792266845703,0.9020918607711792,0
0.7136780023574829,-1.0037612915039062,0.520151674747467,0
0.6170837879180908,-0.9202651977539062,0.30773645639419556,0
0.6150254011154175,-1.0400810241699219,0.4038325548171997,0
0.6549553871154785,-1.0903759002685547,0.38222479820251465,0
0.6648147106170654,-1.1452703475952148,0.24487316608428955,0
0.7499051094055176,-1.0851736068725586,0.07024091482162476,0
0.7883001565933228,-0.9891529083251953,-0.03181582689285278,0
0.7512823343276978,-0.9552946090698242,-0.03018975257873535,0
0.8254783153533936,-0.916600227355957,0.053702354431152344,0
0.8074274063110352,-0.8228731155395508,0.12435489892959595,0
0.8092924356460571,-0.7554607391357422,0.21800947189331055,0
0.8425835371017456,-0.7597246170043945,0.30870169401168823,0
0.9119874238967896,-0.7088527679443359,0.3320891857147217,0
0.8808692693710327,-0.6554927825927734,0.300467848777771,0
0.9044889211654663,-0.5422334671020508,0.27631083130836487,0
0.9419155120849609,-0.45282936096191406,0.3412669003009796,0
0.9810184240341187,-0.29158687591552734,0.26342517137527466,0
1.0240778923034668,-0.1805257797241211,0.21983671188354492,0
1.0013996362686157,-0.15778827667236328,0.16714146733283997,0
1.06122624874115,-0.08934402465820312,0.06194514036178589,0
1.081571102142334,-0.09721088409423828,0.07171675562858582,0
1.0123507976531982,-0.14543914794921875,0.040748029947280884,0
1.0523980855941772,-0.1885833740234375,0.004859313368797302,0
0.9721599817276001,-0.17406368255615234,-0.031178884208202362,0
0.9009848833084106,-0.04218864440917969,-0.08172720670700073,0
0.8388587236404419,0.22841167449951172,-0.08212901651859283,0
0.676047682762146,0.4988422393798828,-0.013066817075014114,0
0.6401255130767822,0.7953767776489258,0.1371621936559677,0
0.671536922454834,1.0820751190185547,0.2701092064380646,0
0.7298169136047363,1.1580619812011719,0.3902400732040405,0
0.8580085039138794,1.1287994384765625,0.482837975025177,0
0.953068196773529,1.087677001953125,0.5308065414428711,0
1.1154121160507202,1.1016502380371094,0.6513345241546631,0
1.2155189514160156,1.1156816482543945,0.7489825487136841,0
1.3752458095550537,1.1560840606689453,0.7858562469482422,0
1.49168062210083,1.2562971115112305,0.6593337655067444,0
1.6772195100784302,1.373194694519043,0.5007524490356445,0
1.7857269048690796,1.470900535583496,0.422555148601532,0
1.8482537269592285,1.554224967956543,0.4462715983390808,0
1.847792148590088,1.8312263488769531,0.47117191553115845,0
1.8106930255889893,1.854506492614746,0.630815863609314,0
1.854382038116455,1.9734573364257812,0.8964363932609558,0
1.8213305473327637,1.702493667602539,0.9634037017822266,0
1.6035659313201904,1.5155315399169922,0.8787682056427002,0
1.727306842803955,1.7543869018554688,0.8340399265289307,0
1.8572776317596436,1.7896318435668945,0.629867434501648,0
1.6044176816940308,2.0902538299560547,0.2866631746292114,0
1.7958998680114746,2.9429168701171875,0.33362284302711487,0
1.9933335781097412,4.086360931396484,0.4484120011329651,0
2.3641247749328613,4.855506896972656,0.4398929178714752,0
2.726503610610962,5.030832290649414,0.319806307554245,0
3.337268352508545,4.706265449523926,0.2646808624267578,0
3.294299840927124,4.288952827453613,0.01983267068862915,0
3.3808040618896484,3.7957611083984375,0.05892908573150635,0
3.1373369693756104,3.107302665710449,0.07752563059329987,0
3.0068979263305664,2.625582695007324,0.12575075030326843,0
2.7982492446899414,2.0897865295410156,-0.06281209737062454,0
2.617058277130127,1.612447738647461,-0.26123157143592834,0
2.332608699798584,1.1409626007080078,-0.5823190808296204,0
1.93623685836792,0.775843620300293,-0.970699667930603,0
1.450355887413025,0.311431884765625,-1.3477206230163574,0
0.8872880339622498,-0.07743644714355469,-1.5455533266067505,0
0.27388840913772583,-0.1994476318359375,-1.6565735340118408,0
-0.3655775785446167,-0.27241039276123047,-1.6464285850524902,0
-1.002119779586792,-0.27477169036865234,-1.6029367446899414,0
-1.6426723003387451,-0.13957500457763672,-1.5351109504699707,0
-2.1933860778808594,-0.043862342834472656,-1.4739387035369873,0
-2.7234601974487305,5.388259887695312E-4,-1.3065611124038696,0
-3.0868375301361084,0.1252145767211914,-1.0799036026000977,0
-3.3317465782165527,0.26787281036376953,-0.8166296482086182,0
-3.4089698791503906,0.6124515533447266,-0.4642525315284729,0
-3.3440041542053223,0.8546714782714844,-0.0793755054473877,0
-3.2469482421875,1.1592254638671875,0.1905362606048584,0
-2.947934150695801,1.3437938690185547,0.3293799161911011,0
-2.5104129314422607,1.4271602630615234,0.28381991386413574,0
-2.1399993896484375,1.6101751327514648,-0.08821141719818115,0
-1.9500306844711304,1.709014892578125,-0.592063307762146,0
-1.82343590259552,1.8538360595703125,-1.0618199110031128,0
-1.6771970987319946,1.8878650665283203,-1.2094563245773315,0
-1.7496700286865234,1.8096199035644531,-0.9261695146560669,0
-1.8444197177886963,1.734156608581543,-0.293296217918396,0
-1.9452695846557617,1.7352304458618164,0.3497605323791504,0
-1.9160573482513428,1.8575372695922852,0.6931822299957275,0
-1.749582290649414,2.009554862976074,0.5219705104827881,0
-1.533915638923645,2.188736915588379,-0.10321211814880371,0
-1.2511513233184814,2.227773666381836,-0.9602384567260742,0
-0.8667037487030029,2.1486005783081055,-1.8993124961853027,0
-0.7124741077423096,2.009004592895508,-2.734609842300415,0
-0.8194266557693481,1.7183666229248047,-3.3444337844848633,0
-1.2919577360153198,1.652003288269043,-3.7560043334960938,0
-1.624299168586731,1.4097023010253906,-4.050879001617432,0
-1.4817402362823486,1.0346183776855469,-4.133398056030273,0
-1.2619991302490234,0.4649496078491211,-3.9015960693359375,0
-1.3255788087844849,-0.516850471496582,-2.9341349601745605,0
-1.2391564846038818,-1.274653434753418,-1.7445725202560425,0
-1.291076898574829,-2.189178943634033,-0.870553731918335,0
-1.0359787940979004,-2.775317668914795,-0.2703065872192383,0
-0.9035400748252869,-3.3352813720703125,-0.10067939758300781,0
-0.8237715363502502,-3.9224724769592285,0.1685175895690918,0
-0.7444807291030884,-4.360324382781982,0.3416299819946289,0
-0.684736430644989,-4.656123161315918,0.24601078033447266,0
-0.7344096899032593,-4.6947221755981445,-0.416201114654541,0
-0.6860990524291992,-4.767902851104736,-1.1839039325714111,0
-0.7325006723403931,-4.894973278045654,-1.5691297054290771,0
-0.7672237753868103,-5.231691837310791,-1.8086605072021484,0
-0.7945259213447571,-5.479217529296875,-1.9358367919921875,0
-0.7099826335906982,-5.312320709228516,-1.9463520050048828,0
-0.6580907106399536,-4.745851039886475,-1.7782127857208252,0
-0.7377089858055115,-4.031512260437012,-1.5628764629364014,0
-0.6959025859832764,-3.454265594482422,-1.290417194366455,0
-0.6953667402267456,-2.9688544273376465,-1.089526891708374,0
-0.786034882068634,-2.5656371116638184,-1.0558507442474365,0
-0.843062162399292,-2.471705436706543,-1.0673267841339111,0
-0.9786210656166077,-2.6603760719299316,-1.1479144096374512,0
-1.0037970542907715,-2.8897714614868164,-1.2258739471435547,0
-1.0765416622161865,-3.336641788482666,-1.363664150238037,0
-1.115370273590088,-3.850071430206299,-1.4321274757385254,0
-1.1346060037612915,-4.329735279083252,-1.4190704822540283,0
-1.0673590898513794,-4.739856243133545,-1.3675141334533691,0
-1.0309333801269531,-5.116621017456055,-1.1455161571502686,0
-0.9992465972900391,-5.398065567016602,-0.9106855392456055,0
-0.9892784357070923,-5.613126754760742,-0.667445182800293,0
-0.9392870664596558,-5.690060615539551,-0.4588017463684082,0
-0.940475583076477,-5.669504165649414,-0.28005170822143555,0
-0.8639512062072754,-5.60157585144043,-0.07393407821655273,0
-0.7411302328109741,-5.457374095916748,0.13535785675048828,0
-0.6509356498718262,-5.16727352142334,0.28992176055908203,0
-0.6434298157691956,-4.821756362915039,0.4893627166748047,0
-0.6947805881500244,-4.348607540130615,0.787743091583252,0
-0.8056201934814453,-3.8215389251708984,1.0884227752685547,0
-0.7197820544242859,-3.3427038192749023,1.4042882919311523,0
-0.6133162379264832,-2.6936488151550293,1.6019091606140137,0
-0.44157692790031433,-1.8903236389160156,1.7338414192199707,0
-0.09332025051116943,-0.9366087913513184,1.782872200012207,0
0.42228585481643677,0.0750417709350586,1.7870182991027832,0
1.2061060667037964,1.3463802337646484,1.7602639198303223,0
2.132624864578247,2.983292579650879,1.9343838691711426,0
2.7660903930664062,5.139315605163574,2.2616875171661377,0
2.7427148818969727,7.407769203186035,2.6409852504730225,0
1.89951753616333,9.510957717895508,3.3915395736694336,0
1.1216394901275635,10.199838638305664,4.501542091369629,0
1.0949976444244385,9.407302856445312,5.766932487487793,0
0.7419148087501526,7.8626861572265625,6.71580696105957,0
0.27581948041915894,6.04832649230957,7.138970851898193,0
0.07118254899978638,4.015996932983398,7.0843024253845215,0
0.09290188550949097,1.6125173568725586,6.664821147918701,0
0.08682304620742798,-1.2526907920837402,5.919073104858398,0
-0.13094359636306763,-3.6154394149780273,4.653674602508545,0
-0.2713739275932312,-5.1247406005859375,2.838021755218506,0
-0.2617790699005127,-4.629674911499023,1.3612360954284668,0
-0.4674544930458069,-2.2696642875671387,0.6266260147094727,0
-0.34908026456832886,0.5067434310913086,-0.6174561977386475,0
-0.36888641119003296,3.6336326599121094,-2.922025203704834,0
-0.2182999849319458,6.561863899230957,-5.15844202041626,0
0.5873904824256897,9.270323753356934,-4.931488990783691,0
-0.15212947130203247,11.425159454345703,-5.114631175994873,0
-2.2622556686401367,13.197476387023926,-5.546648025512695,0
-5.119689464569092,14.544743537902832,-6.1308369636535645,0
-7.500945091247559,14.76008415222168,-6.047236442565918,0
-8.423112869262695,13.130331993103027,-4.760705471038818,0
-5.72152042388916,8.551704406738281,-2.09173321723938,0
-4.6023712158203125,5.155952453613281,-0.29733705520629883,0
-4.326612949371338,3.7300329208374023,0.2649388313293457,0
-4.121886253356934,2.736130714416504,0.854093074798584,0
-3.783064842224121,1.146322250366211,0.761500358581543,0
-3.792726993560791,-0.6095495223999023,-0.19427871704101562,0
-3.891998052597046,-2.0965375900268555,-1.4221138954162598,0
-3.8034110069274902,-3.0247373580932617,-2.417851686477661,0
-3.6424241065979004,-3.190854072570801,-3.0528464317321777,0
-3.6262288093566895,-2.819399833679199,-3.3765735626220703,0
-3.421598196029663,-2.12357234954834,-3.414780378341675,0
-2.6223411560058594,-1.1243209838867188,-3.2868459224700928,0
-1.2342817783355713,0.15834712982177734,-3.4045004844665527,0
0.1953466534614563,1.5142908096313477,-3.054295778274536,0
1.4343767166137695,2.5878334045410156,-2.736219882965088,0
2.468092918395996,2.9358139038085938,-3.111353874206543,0
2.958259105682373,2.8786449432373047,-3.79095196723938,0
3.1624889373779297,2.2536191940307617,-4.3159990310668945,0
2.982119083404541,1.279271125793457,-4.952764987945557,0
2.546590805053711,0.2248678207397461,-5.641962051391602,0
1.8881654739379883,-0.5757389068603516,-6.095771789550781,0
1.2052150964736938,-0.8945703506469727,-6.0620927810668945,0
0.6976035833358765,-0.8537769317626953,-5.392557621002197,0
0.41546666622161865,-0.7670574188232422,-4.454019546508789,0
0.12556755542755127,-0.574798583984375,-3.6551685333251953,0
-0.005190134048461914,-0.49486446380615234,-2.9785640239715576,0
-0.0442805290222168,-0.6490669250488281,-2.400017499923706,0
-0.18587779998779297,-0.792999267578125,-1.9653984308242798,0
-0.17867839336395264,-1.086441993713379,-1.7072083950042725,0
-0.11852967739105225,-1.5167150497436523,-1.4910329580307007,0
-0.08025777339935303,-1.9708232879638672,-1.3735040426254272,0
-0.11974072456359863,-2.321812152862549,-1.1783349514007568,0
-0.09189581871032715,-2.634366035461426,-0.9463890790939331,0
-0.07366347312927246,-2.872805595397949,-0.7922875881195068,0
-0.041182637214660645,-3.073373317718506,-0.6937370300292969,0
-0.13328814506530762,-3.1599178314208984,-0.5683668851852417,0
-0.3141292333602905,-3.216618537902832,-0.5249212980270386,0
-0.5048924088478088,-3.1170411109924316,-0.619636058807373,0
-0.5499894022941589,-2.7612714767456055,-0.7841900587081909,0
-0.49742555618286133,-2.3267483711242676,-0.8694807291030884,0
-0.4356793165206909,-1.863901138305664,-1.1357523202896118,0
-0.3334164619445801,-1.336935043334961,-1.314939260482788,0
-0.25733351707458496,-0.9419498443603516,-1.4554063081741333,0
-0.14985370635986328,-0.5950412750244141,-1.5288835763931274,0
-0.04208195209503174,-0.3390636444091797,-1.6126468181610107,0
0.14753401279449463,-0.238433837890625,-1.5947672128677368,0
0.25161099433898926,-0.2427196502685547,-1.4589744806289673,0
0.3204540014266968,-0.25611019134521484,-1.2440277338027954,0
0.35408759117126465,-0.3121204376220703,-0.9379227757453918,0
0.3573288917541504,-0.33425235748291016,-0.5907334089279175,0
0.533862829208374,-0.48760414123535156,-0.252854585647583,0
0.5440502166748047,-0.7169675827026367,0.12057411670684814,0
0.49810802936553955,-0.8046903610229492,0.42909348011016846,0
0.5279026031494141,-0.8276252746582031,0.48443615436553955,0
0.6097167730331421,-0.9007501602172852,0.32077956199645996,0
0.7268717288970947,-0.990595817565918,0.07255423069000244,0
0.9033957719802856,-1.1330690383911133,-0.1905897855758667,0
0.9957445859909058,-1.3114280700683594,-0.36781156063079834,0
1.0971282720565796,-1.446812629699707,-0.45119547843933105,0
1.1928507089614868,-1.5321340560913086,-0.4999082088470459,0
1.2852586507797241,-1.639261245727539,-0.46543461084365845,0
1.3836400508880615,-1.5983638763427734,-0.5149684548377991,0
1.4802370071411133,-1.576878547668457,-0.5839049816131592,0
1.5938010215759277,-1.4790639877319336,-0.5788325071334839,0
1.7166632413864136,-1.3551616668701172,-0.49474769830703735,0
1.7359802722930908,-1.274454116821289,-0.4010072350502014,0
1.7617548704147339,-1.1890506744384766,-0.2877447009086609,0
1.6074129343032837,-1.058232307434082,-0.207841694355011,0
1.4049359560012817,-0.8676605224609375,-0.22158175706863403,0
1.2363123893737793,-0.6819877624511719,-0.12849032878875732,0
0.9753116369247437,-0.6279468536376953,-0.07272958755493164,0
0.7300758361816406,-0.6599235534667969,-0.004822254180908203,0
0.5010935068130493,-0.6582746505737305,0.07696342468261719,0
0.305325984954834,-0.6660938262939453,0.16743439435958862,0
0.1716252565383911,-0.6594686508178711,0.2591457962989807,0
-0.04344499111175537,-0.5547313690185547,0.19634336233139038,0
-0.12683546543121338,-0.41179943084716797,0.2899209260940552,0
-0.2509680986404419,-0.2426605224609375,0.4486636519432068,0
-0.21245825290679932,-0.054534912109375,0.6340797543525696,0
-0.23154008388519287,0.08081626892089844,0.8296263217926025,0
-0.2340189814567566,0.22322368621826172,0.889677882194519,0
-0.2417546510696411,0.3009910583496094,0.8455269932746887,0
-0.18348664045333862,0.4146900177001953,0.7617050409317017,0
-0.09578108787536621,0.5189123153686523,0.693386971950531,0
0.09951579570770264,0.6328706741333008,0.6740569472312927,0
0.28441357612609863,0.8498668670654297,0.5743973851203918,0
0.5446817874908447,1.0406627655029297,0.5547922849655151,0
0.7507293820381165,1.1813907623291016,0.4453646242618561,0
0.8687127828598022,1.3892946243286133,0.4136555790901184,0
0.8792639374732971,1.5686445236206055,0.4358345568180084,0
0.8303669691085815,1.7194452285766602,0.6054096817970276,0
0.8324071764945984,1.884718894958496,0.745269775390625,0
0.9050357341766357,1.8993892669677734,0.8912906646728516,0
1.017868995666504,1.6726980209350586,1.0216546058654785,0
1.0898709297180176,1.3316307067871094,1.0783905982971191,0
1.2889565229415894,1.1321210861206055,1.046665906906128,0
1.5004761219024658,1.0333061218261719,1.0555049180984497,0
1.5660362243652344,0.8796787261962891,1.1125473976135254,0
1.8061054944992065,0.8052148818969727,1.1273584365844727,0
2.129473924636841,0.8241710662841797,1.1456108093261719,0
2.4663796424865723,0.8886241912841797,1.1890443563461304,0
2.7688536643981934,0.9985246658325195,1.241264820098877,0
3.0727498531341553,1.048604965209961,1.2831956148147583,0
3.2486510276794434,1.2302188873291016,1.103684425354004,0
3.33712100982666,1.2634477615356445,1.1788699626922607,0
3.304656744003296,1.2823781967163086,1.3052871227264404,0
3.2781660556793213,1.2535333633422852,1.4420340061187744,0
3.1668143272399902,1.1865148544311523,1.5168397426605225,0
3.05210542678833,1.2032909393310547,1.5603543519973755,0
2.919558048248291,1.2415666580200195,1.5312150716781616,0
2.9151723384857178,1.3993310928344727,1.507939338684082,0
2.92639422416687,1.5377349853515625,1.4061741828918457,0
2.751737594604492,1.6735563278198242,1.1628079414367676,0
2.855102062225342,2.0148353576660156,0.9852673411369324,0
2.803067207336426,2.307891845703125,0.7364082336425781,0
2.616684675216675,2.3998327255249023,0.43978047370910645,0
2.5730464458465576,2.5898990631103516,0.12472216039896011,0
2.6050033569335938,2.641338348388672,-0.3276311755180359,0
2.5952863693237305,2.040325164794922,-0.8860702514648438,0
2.5441219806671143,1.533799171447754,-1.3283398151397705,0
2.4783568382263184,0.9663209915161133,-1.6906218528747559,0
2.279029130935669,0.34046268463134766,-1.8028515577316284,0
1.9592247009277344,-0.15468502044677734,-2.0319199562072754,0
1.8075674772262573,-0.617182731628418,-2.307312488555908,0
1.55519437789917,-0.6834630966186523,-2.529024362564087,0
1.112535834312439,-0.5355997085571289,-2.545778274536133,0
0.5331062078475952,-0.29091358184814453,-2.3874683380126953,0
-0.1492658257484436,-0.002025604248046875,-2.2059378623962402,0
-0.7931090593338013,0.21149253845214844,-2.011688232421875,0
-1.3194692134857178,0.31146717071533203,-1.819969892501831,0
-1.8942680358886719,0.36498260498046875,-1.5433595180511475,0
-2.3632678985595703,0.5562000274658203,-1.245490312576294,0
-2.742434024810791,0.6649351119995117,-0.8561751246452332,0
-2.880157470703125,0.8442564010620117,-0.4417945146560669,0
-2.861553192138672,1.1010560989379883,0.02987062931060791,0
-2.5705037117004395,1.4014720916748047,0.4906672239303589,0
-2.4630773067474365,1.7117919921875,0.7928917407989502,0
-2.303166389465332,2.1299734115600586,0.905363917350769,0
-2.088160514831543,2.5411224365234375,0.8610014915466309,0
-1.8745003938674927,2.9143199920654297,0.7303493022918701,0
-1.7395923137664795,3.292936325073242,0.55484938621521,0
-1.54070246219635,3.5719823837280273,0.4672226905822754,0
-1.5544792413711548,3.734908103942871,0.44319987297058105,0
-1.7804831266403198,3.7746400833129883,0.4040837287902832,0
-1.8500275611877441,3.8154382705688477,0.22886419296264648,0
-1.9903464317321777,3.747213363647461,-0.13219428062438965,0
-1.7654752731323242,3.562973976135254,-0.595468282699585,0
-1.1821248531341553,3.1888341903686523,-1.0130267143249512,0
-0.9462555050849915,2.6515445709228516,-1.4357125759124756,0
-0.6221606731414795,2.1546554565429688,-1.7489428520202637,0
-0.5075058937072754,1.559269905090332,-1.9592854976654053,0
-0.3489435315132141,1.2167730331420898,-2.1638360023498535,0
0.21909472346305847,0.813319206237793,-2.325962781906128,0
0.5656846761703491,0.3533163070678711,-2.459120750427246,0
0.607062816619873,-0.08198165893554688,-2.6110172271728516,0
0.26569807529449463,-0.5716190338134766,-2.621201276779175,0
0.19705843925476074,-1.1087970733642578,-2.32397723197937,0
0.07152754068374634,-1.6818113327026367,-2.2023346424102783,0
0.013411343097686768,-2.0635085105895996,-2.1892471313476562,0
-0.02990657091140747,-2.4192681312561035,-2.1960091590881348,0
-6.0439109802246094E-5,-2.6824541091918945,-2.365802764892578,0
0.051403701305389404,-2.841557025909424,-2.6096420288085938,0
-0.08509331941604614,-3.0668253898620605,-2.85295033454895,0
-0.2540126442909241,-3.4661865234375,-2.9588589668273926,0
-0.3098927140235901,-4.161959648132324,-2.6850666999816895,0
-0.4106527268886566,-4.9458112716674805,-2.5271613597869873,0
-0.6251641511917114,-5.594727993011475,-2.7397828102111816,0
-0.7225950956344604,-6.113205432891846,-3.0223841667175293,0
-0.9011716842651367,-6.503657341003418,-3.1625194549560547,0
-1.2060904502868652,-6.637112617492676,-3.1629016399383545,0
-1.3643404245376587,-6.384891986846924,-2.9829471111297607,0
-1.4147589206695557,-5.809747695922852,-2.7422726154327393,0
-1.377457857131958,-5.151151657104492,-2.414694309234619,0
-1.2701067924499512,-4.471215724945068,-2.091435432434082,0
-1.2344084978103638,-3.8797597885131836,-1.8517405986785889,0
-1.1557378768920898,-3.4936885833740234,-1.7364344596862793,0
-1.2141759395599365,-3.348299503326416,-1.6765365600585938,0
-1.2231999635696411,-3.237697124481201,-1.5069193840026855,0
-1.386130928993225,-3.099788188934326,-1.4283690452575684,0
-1.4136362075805664,-3.1619482040405273,-1.3782503604888916,0
-1.5952723026275635,-3.3189377784729004,-1.3656949996948242,0
-1.6560070514678955,-3.4895129203796387,-1.2803311347961426,0
-1.7591638565063477,-3.762287139892578,-1.2581748962402344,0
-1.79996919631958,-4.099052429199219,-1.2413508892059326,0
-1.8553098440170288,-4.401975631713867,-1.2029483318328857,0
-1.8532840013504028,-4.6331963539123535,-1.0872833728790283,0
-1.8822376728057861,-4.843258380889893,-0.9871563911437988,0
-1.8891799449920654,-5.049102306365967,-0.8447170257568359,0
-1.7878588438034058,-5.176729202270508,-0.6380858421325684,0
-1.6668407917022705,-5.254964828491211,-0.4268064498901367,0
-1.505014419555664,-5.2622504234313965,-0.2585315704345703,0
-1.3096513748168945,-5.222299575805664,-0.11427116394042969,0
-1.3102940320968628,-4.976977348327637,0.05106925964355469,0
-1.3006277084350586,-4.461525917053223,0.2584071159362793,0
-1.2631452083587646,-3.730736255645752,0.6239991188049316,0
-1.1706759929656982,-2.925581455230713,1.2977123260498047,0
-1.029104232788086,-2.2465806007385254,2.1180872917175293,0
-0.5012346506118774,-1.6186695098876953,2.8820440769195557,0
0.05552399158477783,-0.7941532135009766,3.4355101585388184,0
0.807523787021637,0.2834625244140625,3.644822835922241,0
1.643239974975586,1.5679731369018555,3.3541126251220703,0
2.7830584049224854,3.0849647521972656,2.8259024620056152,0
4.072381496429443,4.905308723449707,2.413811206817627,0
5.343277931213379,6.802840232849121,2.360363483428955,0
5.6085052490234375,8.634225845336914,3.294689655303955,0
5.335852146148682,9.434442520141602,5.720950126647949,0
4.73037052154541,8.889429092407227,7.678064346313477,0
3.6859982013702393,8.297061920166016,8.62738037109375,0
3.052248001098633,7.392041206359863,8.670981407165527,0
2.2031049728393555,6.027115821838379,7.899809837341309,0
1.618464469909668,4.4631195068359375,5.841489791870117,0
0.9847120046615601,4.389159202575684,3.1357197761535645,0
0.9669283032417297,6.226994514465332,1.998006820678711,0
0.372308611869812,8.454606056213379,1.2165179252624512,0
-0.755954921245575,11.481794357299805,0.3928990364074707,0
-1.4668316841125488,14.872161865234375,-1.0318388938903809,0
-2.215467929840088,16.803817749023438,-2.4804348945617676,0
-3.3406147956848145,16.026134490966797,-3.2034287452697754,0
-4.664516925811768,12.00137710571289,-3.5823731422424316,0
-5.798789024353027,7.6520795822143555,-3.717599391937256,0
-7.1405415534973145,3.553683280944824,-3.203631639480591,0
-8.848287582397461,0.11179542541503906,-2.4852564334869385,0
-9.843836784362793,-2.364619255065918,-2.7714104652404785,0
-9.993054389953613,-3.770646572113037,-3.4366750717163086,0
-9.14344596862793,-2.939055919647217,-1.8211266994476318,0
-7.628148555755615,-1.899299144744873,-1.624558925628662,0
-6.169013500213623,-0.8135881423950195,-1.9777252674102783,0
-4.995560169219971,-0.05530071258544922,-2.530571937561035,0
-3.9494788646698,0.2429218292236328,-3.1420559883117676,0
-2.9379873275756836,0.3427762985229492,-3.510313034057617,0
-2.023214340209961,0.5557470321655273,-3.6751761436462402,0
-1.1017712354660034,1.2864856719970703,-3.6908912658691406,0
-0.1637168526649475,2.5728511810302734,-3.1053683757781982,0
0.43761956691741943,4.048008918762207,-1.9603941440582275,0
1.2393207550048828,5.017155647277832,-1.082934856414795,0
2.1577937602996826,5.057167053222656,-0.8342363834381104,0
2.7689552307128906,4.337776184082031,-2.3391666412353516,0
2.5025148391723633,3.222982406616211,-3.8390543460845947,0
1.655391812324524,1.8304004669189453,-4.357585906982422,0
1.4327205419540405,0.3840456008911133,-5.139714241027832,0
1.2344748973846436,-0.724146842956543,-5.910351753234863,0
1.0505940914154053,-1.2799420356750488,-6.208112716674805,0
0.8209854364395142,-1.3280534744262695,-6.032799243927002,0
0.574769139289856,-1.025740623474121,-5.6276044845581055,0
0.46915602684020996,-0.6714353561401367,-4.9429931640625,0
0.24687457084655762,-0.23850727081298828,-3.942502021789551,0
0.05016922950744629,-0.009313583374023438,-2.7078325748443604,0
-0.06945109367370605,-0.08202838897705078,-1.6282087564468384,0
-0.21111416816711426,-0.48540687561035156,-0.8601198196411133,0
-0.2826562523841858,-1.0518836975097656,-0.450270414352417,0
-0.45983457565307617,-1.6211233139038086,-0.2758827209472656,0
-0.5929394364356995,-2.2552871704101562,-0.27669596672058105,0
-0.732876718044281,-2.8277597427368164,-0.30593419075012207,0
-0.7390859127044678,-3.255167007446289,-0.4415881633758545,0
-0.6024269461631775,-3.659923553466797,-0.6801052093505859,0
-0.682532012462616,-3.8174333572387695,-0.783754825592041,0
-0.7310328483581543,-3.976710796356201,-1.0009095668792725,0
-0.6328185796737671,-3.941713809967041,-1.3266186714172363,0
-0.33435988426208496,-3.715132713317871,-1.6868913173675537,0
-0.0405956506729126,-3.3594183921813965,-2.0365400314331055,0
0.2058124542236328,-2.893655776977539,-2.520055055618286,0
0.2925158739089966,-2.4062156677246094,-2.9924464225769043,0
0.24828815460205078,-1.880317211151123,-3.119335651397705,0
0.20964467525482178,-1.2992973327636719,-3.0208144187927246,0
0.19610440731048584,-0.8499050140380859,-2.725531816482544,0
0.16958820819854736,-0.30980873107910156,-2.347856283187866,0
-0.09736073017120361,0.06501293182373047,-2.22961163520813,0
-0.3208690881729126,0.1552906036376953,-2.159804105758667,0
-0.4223146438598633,0.23868274688720703,-2.0350635051727295,0
-0.37080061435699463,0.19318103790283203,-1.8239768743515015,0
-0.21202945709228516,-0.1436929702758789,-1.4641008377075195,0
0.03538322448730469,-0.5157928466796875,-1.0107839107513428,0
0.1348477602005005,-0.9874963760375977,-0.8812198638916016,0
0.40444207191467285,-1.4605016708374023,-0.6885201930999756,0
0.5094257593154907,-1.7076401710510254,-0.38781213760375977,0
0.5959608554840088,-1.8152847290039062,-0.010604500770568848,0
0.673926591873169,-1.7669949531555176,0.27828288078308105,0
0.8705263137817383,-1.6755247116088867,0.44839322566986084,0
0.9275968074798584,-1.6366405487060547,0.44495463371276855,0
0.9289461374282837,-1.506819725036621,0.3901093006134033,0
0.9321852922439575,-1.3651180267333984,0.3006291389465332,0
0.9205543994903564,-1.2761411666870117,0.0786430835723877,0
0.8771860599517822,-1.2278709411621094,-0.18468517065048218,0
0.8808605670928955,-1.115065574645996,-0.37658798694610596,0
0.8428010940551758,-0.9952325820922852,-0.41509777307510376,0
0.7338297367095947,-0.9568166732788086,-0.4982704818248749,0
0.477047324180603,-0.8705282211303711,-0.7263133525848389,0
0.38375210762023926,-0.9086799621582031,-0.7682397961616516,0
0.2698180675506592,-1.0257377624511719,-0.7719369530677795,0
0.19298481941223145,-1.161829948425293,-0.7877021431922913,0
0.17264807224273682,-1.2523736953735352,-0.629146158695221,0
0.2185724973678589,-1.290191650390625,-0.5843347907066345,0
0.2494649887084961,-1.3063507080078125,-0.604168176651001,0
0.2530860900878906,-1.171656608581543,-0.5101432204246521,0
0.2627832889556885,-0.9747419357299805,-0.3864681124687195,0
0.1660555601119995,-0.7037229537963867,-0.20208695530891418,0
0.034934282302856445,-0.5046138763427734,0.06511175632476807,0
-0.16396057605743408,-0.38690853118896484,0.3435836434364319,0
-0.32541126012802124,-0.3313560485839844,0.573384165763855,0
-0.4518384337425232,-0.41678905487060547,0.8525987267494202,0
-0.5218086242675781,-0.5138998031616211,1.008839726448059,0
-0.49715977907180786,-0.7039661407470703,1.1041793823242188,0
-0.4091643691062927,-0.8147087097167969,1.1841717958450317,0
-0.27020198106765747,-0.8844432830810547,1.172471523284912,0
-0.13814705610275269,-0.8749198913574219,1.0883586406707764,0
-0.05633842945098877,-0.7694644927978516,1.0446557998657227,0
0.0826636552810669,-0.563389778137207,0.9460867643356323,0
0.15903842449188232,-0.29982948303222656,0.9103835225105286,0
0.23977375030517578,-0.012318611145019531,0.8275978565216064,0
0.32741856575012207,0.35408782958984375,0.723796546459198,0
0.4149000644683838,0.6127662658691406,0.6510950326919556,0
0.4737470746040344,0.804448127746582,0.678177535533905,0
0.4775211811065674,0.9674558639526367,0.7277629971504211,0
0.45722877979278564,1.1137256622314453,0.7055544853210449,0
0.4965248703956604,1.2288742065429688,0.6636433601379395,0
0.5976385474205017,1.2483482360839844,0.728784441947937,0
0.7437490224838257,1.3013620376586914,0.7360841035842896,0
0.879780650138855,1.337651252746582,0.7289465069770813,0
1.067887544631958,1.3883142471313477,0.669425368309021,0
1.2243425846099854,1.4557056427001953,0.5983530282974243,0
1.4352705478668213,1.6712970733642578,0.5325250029563904,0
1.6407339572906494,1.9440441131591797,0.5032094717025757,0
1.8622190952301025,2.307352066040039,0.5919005870819092,0
2.0519542694091797,2.7324094772338867,0.6886077523231506,0
2.2939095497131348,3.116292953491211,0.853117048740387,0
2.452012062072754,3.5211524963378906,0.9412937164306641,0
2.6125872135162354,3.8871068954467773,1.1294739246368408,0
2.7228779792785645,4.238040924072266,1.2755755186080933,0
2.7421910762786865,4.471121788024902,1.5060362815856934,0
2.759263753890991,4.471718788146973,1.8375792503356934,0
2.724041700363159,4.326172828674316,2.1048331260681152,0
2.655870199203491,3.927064895629883,2.3389387130737305,0
2.6549439430236816,3.5688247680664062,2.3939030170440674,0
2.6269304752349854,3.275322914123535,2.149838447570801,0
2.620840549468994,3.082331657409668,1.8525333404541016,0
2.877329111099243,3.1307897567749023,1.4510455131530762,0
3.0008437633514404,3.2339248657226562,1.1747565269470215,0
3.2181692123413086,3.5185155868530273,1.0315240621566772,0
3.40203857421875,3.9390697479248047,0.9390756487846375,0
3.62469482421875,3.8570966720581055,0.908146858215332,0
3.5201964378356934,3.3712539672851562,0.38061395287513733,0
3.741849899291992,3.177898406982422,-0.21283212304115295,0
4.218926906585693,2.5976266860961914,-0.711885392665863,0
4.1857805252075195,1.729055404663086,-1.0684489011764526,0
4.269572734832764,0.9528284072875977,-1.100313663482666,0
4.2983598709106445,0.4912424087524414,-1.313544750213623,0
4.038880348205566,0.028324127197265625,-1.5974537134170532,0
3.4998767375946045,-0.5481996536254883,-1.9718555212020874,0
2.9125916957855225,-1.2739286422729492,-2.4870951175689697,0
2.2754483222961426,-1.785064697265625,-2.8920910358428955,0
1.552779197692871,-2.0744991302490234,-3.000330686569214,0
0.8169398307800293,-2.1446971893310547,-2.881406307220459,0
-0.029191255569458008,-1.8355436325073242,-2.518336772918701,0
-0.8503121733665466,-1.367380142211914,-2.003288745880127,0
-1.743786334991455,-1.060781478881836,-1.5351089239120483,0
-2.5807504653930664,-0.7219009399414062,-0.994268536567688,0
-3.089595079421997,-0.44650936126708984,-0.5151956081390381,0
-3.459521532058716,-0.24192428588867188,0.06498277187347412,0
-3.5022366046905518,-0.029542922973632812,0.7132151126861572,0
-3.225048303604126,0.2140493392944336,1.0969152450561523,0
-2.8212687969207764,0.42147064208984375,1.2220146656036377,0
-2.475966215133667,0.5974874496459961,1.0418684482574463,0
-2.196124792098999,0.895416259765625,0.6782097816467285,0
-2.0150411128997803,1.1864042282104492,0.34799301624298096,0
-1.92757248878479,1.4015998840332031,0.11760377883911133,0
-1.777144193649292,1.4935846328735352,0.07625150680541992,0
-1.6836525201797485,1.5462322235107422,0.0634908676147461,0
-1.615898609161377,1.683823585510254,0.16353154182434082,0
-2.134974718093872,1.8128662109375,0.16180419921875,0
-2.7543482780456543,1.959794044494629,-0.11173605918884277,0
-3.2124149799346924,2.048330307006836,-0.5525219440460205,0
-3.4224746227264404,2.0667619705200195,-0.9814528226852417,0
-3.1108272075653076,1.869476318359375,-1.461084246635437,0
-2.384679079055786,1.480759620666504,-1.9292150735855103,0
-1.7484550476074219,1.2475252151489258,-2.241593837738037,0
-1.1257705688476562,0.9279327392578125,-2.5120859146118164,0
-0.42218154668807983,0.6318340301513672,-2.7922189235687256,0
0.2245652973651886,0.49777984619140625,-3.1221396923065186,0
0.5191488265991211,0.35795116424560547,-3.374255657196045,0
0.7791946530342102,0.2837657928466797,-3.330188512802124,0
0.6921860575675964,0.028718948364257812,-3.1023740768432617,0
0.5997873544692993,-0.5318355560302734,-2.2354307174682617,0
0.3513469099998474,-1.190032958984375,-1.4511258602142334,0
-0.035868436098098755,-1.8600678443908691,-0.896949291229248,0
-0.4105396866798401,-2.307835578918457,-0.7349960803985596,0
-0.7048159837722778,-2.76347017288208,-0.5460011959075928,0
-0.8044930696487427,-3.394850254058838,-0.38669824600219727,0
-0.9354193210601807,-3.8794360160827637,-0.27321815490722656,0
-1.0582878589630127,-4.308407783508301,-0.4735081195831299,0
-1.1265761852264404,-4.726873397827148,-1.1200048923492432,0
-1.0770574808120728,-5.356689453125,-1.80241060256958,0
-1.0191094875335693,-6.0276198387146,-2.2512006759643555,0
-1.00986647605896,-6.663041591644287,-2.4406824111938477,0
-1.0544036626815796,-6.971231460571289,-2.5268170833587646,0
-1.0217039585113525,-6.66583251953125,-2.392302989959717,0
-0.9317087531089783,-5.891451835632324,-2.153887987136841,0
-0.828439474105835,-4.885868549346924,-1.856245517730713,0
-0.7070980072021484,-3.910327911376953,-1.5300419330596924,0
-0.6161725521087646,-3.2924118041992188,-1.2805171012878418,0
-0.5756388902664185,-2.971688747406006,-1.1223397254943848,0
-0.5380004644393921,-2.7732906341552734,-0.9812135696411133,0
-0.7087153792381287,-2.8931798934936523,-1.1201322078704834,0
-0.922327995300293,-3.068021774291992,-1.1488978862762451,0
-1.054352045059204,-3.3696446418762207,-1.1917097568511963,0
-1.135994791984558,-3.6163010597229004,-1.183736801147461,0
-1.165132999420166,-3.8941359519958496,-1.163273572921753,0
-1.163630485534668,-4.162440299987793,-1.1279222965240479,0
-1.1363192796707153,-4.3686699867248535,-1.0082054138183594,0
-1.0882775783538818,-4.594172477722168,-0.8232936859130859,0
-1.1273131370544434,-4.767115592956543,-0.5995864868164062,0
-1.078787922859192,-4.839696884155273,-0.239044189453125,0
-1.1028578281402588,-4.869361877441406,0.15058231353759766,0
-1.1634708642959595,-4.805837631225586,0.5572590827941895,0
-1.1245012283325195,-4.747112274169922,0.9545660018920898,0
-1.0319397449493408,-4.642854690551758,1.3234376907348633,0
-0.9365348815917969,-4.440295696258545,1.596806526184082,0
-0.874556303024292,-4.14872932434082,1.8245015144348145,0
-0.7715848684310913,-3.7630276679992676,1.9843149185180664,0
-0.787964940071106,-3.2540597915649414,2.1710121631622314,0
-0.8088698387145996,-2.652475357055664,2.4384288787841797,0
-0.43350568413734436,-2.1538939476013184,2.749225378036499,0
-0.047388702630996704,-1.7074060440063477,3.082559823989868,0
0.38693535327911377,-1.2592010498046875,3.086143732070923,0
0.9443999528884888,-0.8101100921630859,2.5814383029937744,0
1.7307312488555908,-0.08819961547851562,1.8795971870422363,0
2.5637612342834473,0.9674882888793945,1.4066646099090576,0
3.59261155128479,2.7446889877319336,1.513822317123413,0
4.148435115814209,5.194729804992676,2.5257318019866943,0
3.553497076034546,7.71352481842041,4.659365653991699,0
1.9710853099822998,9.376527786254883,7.225058555603027,0
1.6753813028335571,8.92965316772461,8.530538558959961,0
1.2686467170715332,7.846471786499023,8.57242202758789,0
0.5382562279701233,6.961565017700195,7.87226676940918,0
0.6271495223045349,5.804323196411133,6.143645286560059,0
0.7831352353096008,4.731276512145996,3.4003562927246094,0
0.8426041007041931,5.612414360046387,1.4397523403167725,0
-0.13959532976150513,8.39612865447998,0.9412298202514648,0
-1.1074957847595215,11.807957649230957,0.5555496215820312,0
-1.7456953525543213,15.114121437072754,-1.6116454601287842,0
-2.592525005340576,17.479637145996094,-4.024135112762451,0
-3.411022663116455,17.083744049072266,-5.645476341247559,0
-4.73444938659668,14.045533180236816,-6.706396579742432,0
-6.59985876083374,8.591286659240723,-6.898677349090576,0
-8.405484199523926,2.9244470596313477,-5.46722412109375,0
-8.930963516235352,-1.8163366317749023,-3.4946365356445312,0
-9.033259391784668,-4.451859951019287,-0.7768096923828125,0
-8.402979850769043,-3.973996639251709,0.7872123718261719,0
-6.63002347946167,-2.678936004638672,-0.1352376937866211,0
-5.247133255004883,-1.303746223449707,-1.545403242111206,0
-4.648052215576172,-0.19689083099365234,-2.746800422668457,0
-4.240919589996338,0.3311347961425781,-3.8531949520111084,0
-3.6460416316986084,0.552642822265625,-4.342305660247803,0
-2.7156598567962646,0.9729013442993164,-4.287590026855469,0
-1.9593682289123535,2.1249399185180664,-3.368809223175049,0
-0.7931797504425049,3.4838552474975586,-2.3267600536346436,0
0.2505342960357666,4.487118721008301,-1.8176496028900146,0
1.3650195598602295,4.8443708419799805,-1.992616891860962,0
2.2064855098724365,4.780976295471191,-3.347203254699707,0
2.5012593269348145,4.374044418334961,-4.535423755645752,0
2.4098007678985596,3.674457550048828,-4.973568916320801,0
2.2479941844940186,2.6885995864868164,-5.494274616241455,0
1.9703071117401123,1.7941417694091797,-5.912385940551758,0
1.7743947505950928,1.086115837097168,-5.888017177581787,0
1.471311330795288,0.6402158737182617,-5.624742031097412,0
1.3211467266082764,0.34284496307373047,-5.280275821685791,0
1.0929664373397827,0.2018880844116211,-4.798286437988281,0
0.8083237409591675,0.12894630432128906,-4.159093379974365,0
0.4165053367614746,0.07105636596679688,-3.3510122299194336,0
-0.020837903022766113,-0.08961868286132812,-2.4376392364501953,0
-0.34394705295562744,-0.44449615478515625,-1.608923077583313,0
-0.5725387334823608,-0.8814907073974609,-0.9495499134063721,0
-0.793442964553833,-1.3865156173706055,-0.5850131511688232,0
-0.935954213142395,-1.7947063446044922,-0.3921358585357666,0
-0.8890369534492493,-2.161194324493408,-0.3750336170196533,0
-0.7309432029724121,-2.5648880004882812,-0.4421985149383545,0
-0.5396521687507629,-2.8239688873291016,-0.6266167163848877,0
-0.28729385137557983,-3.0700807571411133,-0.8155863285064697,0
-0.20208096504211426,-3.2026538848876953,-1.0976940393447876,0
-0.26798534393310547,-3.2383952140808105,-1.4180461168289185,0
-0.26484644412994385,-3.354417324066162,-1.678376317024231,0
-0.16793513298034668,-3.2638888359069824,-1.78995943069458,0
-0.0385127067565918,-3.0271005630493164,-1.8648467063903809,0
0.04030907154083252,-2.8283543586730957,-2.166367769241333,0
0.051924824714660645,-2.3925132751464844,-2.369556427001953,0
0.1569223403930664,-1.9421968460083008,-2.5036425590515137,0
0.24260163307189941,-1.5275039672851562,-2.5310299396514893,0
0.28494155406951904,-1.1865949630737305,-2.382817506790161,0
0.314924955368042,-1.0342121124267578,-1.9346152544021606,0
0.1962670087814331,-0.9721469879150391,-1.6002758741378784,0
0.1830441951751709,-0.9382467269897461,-1.2407279014587402,0
0.2992546558380127,-1.066446304321289,-0.8128505945205688,0
0.3370016813278198,-1.2370738983154297,-0.4289594888687134,0
0.6703516244888306,-1.7108139991760254,-0.06059896945953369,0
0.6054009199142456,-1.8391823768615723,0.11450850963592529,0
0.555933952331543,-1.8879270553588867,0.342326283454895,0
0.6827875375747681,-1.9505081176757812,0.5819281339645386,0
0.7302913665771484,-1.8835134506225586,0.5891454219818115,0
0.7776111364364624,-1.567622184753418,0.5890575647354126,0
0.8941386938095093,-1.1849498748779297,0.6082394123077393,0
1.0152095556259155,-0.8552093505859375,0.5418107509613037,0
0.9849375486373901,-0.6906852722167969,0.4378228187561035,0
1.0472412109375,-0.6840171813964844,0.3228287696838379,0
1.0969345569610596,-0.6868066787719727,0.2495098114013672,0
1.1673883199691772,-0.777958869934082,0.17490530014038086,0
1.2225466966629028,-0.9143190383911133,0.08955925703048706,0
1.3002632856369019,-1.064687728881836,0.002892434597015381,0
1.2758278846740723,-1.2123222351074219,-0.04865485429763794,0
1.1732604503631592,-1.2210521697998047,0.11088186502456665,0
1.0505517721176147,-1.2729253768920898,0.32466018199920654,0
0.965295672416687,-1.3918046951293945,0.42536693811416626,0
0.8646835088729858,-1.457961082458496,0.48914629220962524,0
0.9205856323242188,-1.473733901977539,0.5151926279067993,0
0.996326208114624,-1.4008417129516602,0.4094371795654297,0
0.9839578866958618,-1.2489042282104492,0.33440810441970825,0
0.9242128133773804,-1.0873746871948242,0.3213683068752289,0
0.8915444612503052,-0.9736919403076172,0.38238126039505005,0
0.7906649112701416,-0.8480520248413086,0.4047393798828125,0
0.6864413022994995,-0.7439641952514648,0.45770978927612305,0
0.5264739990234375,-0.6135883331298828,0.5051894187927246,0
0.4282112121582031,-0.4641456604003906,0.475191593170166,0
0.3609471321105957,-0.3937368392944336,0.5471043586730957,0
0.36548668146133423,-0.22293567657470703,0.6392211318016052,0
0.3893025517463684,-0.10251426696777344,0.6938760876655579,0
0.40836507081985474,-0.027604103088378906,0.7612212300300598,0
0.3844112157821655,0.020989418029785156,0.762370228767395,0
0.3408193588256836,-0.018804550170898438,0.7860556244850159,0
0.3105328679084778,-0.08465099334716797,0.8088775873184204,0
0.27131515741348267,-0.07841873168945312,0.7931710481643677,0
0.2873362898826599,-0.09580135345458984,0.8111141324043274,0
0.34371650218963623,0.04976940155029297,0.786226749420166,0
0.4446231722831726,0.2529125213623047,0.6467176675796509,0
0.601895809173584,0.3294353485107422,0.5360701084136963,0
0.7816401720046997,0.3607969284057617,0.4732794761657715,0
0.8709517121315002,0.33987903594970703,0.38149452209472656,0
0.9818880558013916,0.41258907318115234,0.2842006981372833,0
1.1261980533599854,0.5644397735595703,0.2604275047779083,0
1.4069223403930664,0.7044382095336914,0.37972283363342285,0
1.5441902875900269,0.7799663543701172,0.5534717440605164,0
1.6221731901168823,0.9297513961791992,0.5782008767127991,0
1.71804678440094,0.9121541976928711,0.7003635764122009,0
1.762486219406128,1.0692863464355469,0.809542715549469,0
1.937438726425171,1.3195981979370117,0.9653124809265137,0
2.075408458709717,1.3640661239624023,1.114965558052063,0
2.2385151386260986,1.5352983474731445,1.1964291334152222,0
2.4726386070251465,1.4888067245483398,1.3487038612365723,0
2.8762314319610596,1.7126655578613281,1.5507831573486328,0
3.043288230895996,1.2811012268066406,1.5672106742858887,0
2.853564739227295,1.1034984588623047,1.5287384986877441,0
3.0802202224731445,1.217794418334961,1.820667028427124,0
2.9407474994659424,1.0090656280517578,2.0953426361083984,0
3.0238354206085205,1.0874347686767578,2.5177483558654785,0
2.932126522064209,0.9957809448242188,2.6278462409973145,0
3.067286491394043,1.3583545684814453,2.547534465789795,0
2.9567346572875977,1.5527992248535156,1.9600163698196411,0
2.958421230316162,1.8901453018188477,1.3750414848327637,0
3.0187628269195557,2.363041877746582,0.9242250919342041,0
3.0603442192077637,2.9856414794921875,0.4397452771663666,0
3.063816547393799,3.8749494552612305,0.2876737415790558,0
2.8326213359832764,4.186574935913086,0.25925084948539734,0
2.839921236038208,4.600348472595215,0.2895228862762451,0
3.059929847717285,4.4490461349487305,0.11935901641845703,0
3.0382821559906006,4.087296485900879,-0.27375558018684387,0
3.222910165786743,3.687617301940918,-0.751705527305603,0
3.3962624073028564,3.2334671020507812,-1.085374116897583,0
3.4008162021636963,2.717924118041992,-1.4095675945281982,0
3.2132294178009033,2.507150650024414,-1.721984624862671,0
2.8847551345825195,2.3117141723632812,-1.993831992149353,0
2.184161901473999,2.072113037109375,-1.9681202173233032,0
1.3156769275665283,2.0062484741210938,-1.7796337604522705,0
0.5892391204833984,1.9084405899047852,-1.512874722480774,0
-0.12058092653751373,1.661646842956543,-1.1567437648773193,0
-0.7119174003601074,1.4095516204833984,-0.8610665202140808,0
-1.2076778411865234,1.061330795288086,-0.7930842041969299,0
-1.5906684398651123,0.8706207275390625,-0.7398509383201599,0
-2.0048599243164062,0.8229389190673828,-0.6650676727294922,0
-2.216874599456787,0.8893060684204102,-0.43023544549942017,0
-2.343362331390381,1.0381813049316406,0.027628183364868164,0
-2.2924997806549072,1.1709842681884766,0.4912576675415039,0
-2.3192853927612305,1.4643259048461914,0.7133426666259766,0
-2.3741111755371094,1.8341693878173828,0.5884280204772949,0
-2.3707380294799805,2.199191093444824,0.32782113552093506,0
-2.413578510284424,2.5548667907714844,0.005544424057006836,0
-2.3124163150787354,2.8201656341552734,-0.1844649314880371,0
-2.198000431060791,2.8830299377441406,-0.1792525053024292,0
-2.052607774734497,2.841859817504883,-0.09209632873535156,0
-1.9515031576156616,2.7853260040283203,-0.03585612773895264,0
-1.9152809381484985,2.6153955459594727,0.013591527938842773,0
-1.9486287832260132,2.4470348358154297,-0.1301872730255127,0
-2.0640869140625,2.3282384872436523,-0.41463470458984375,0
-1.85276198387146,2.175410270690918,-0.794380784034729,0
-1.5829607248306274,1.8357362747192383,-1.1141425371170044,0
-1.1642926931381226,1.5199079513549805,-1.34255850315094,0
-0.996278703212738,1.3712158203125,-1.5406618118286133,0
-0.9258038401603699,1.2263374328613281,-1.7205743789672852,0
-0.639891505241394,1.0608205795288086,-2.0815818309783936,0
-0.41580653190612793,0.960820198059082,-2.643085479736328,0
-0.35153132677078247,0.8668861389160156,-3.0715222358703613,0
-0.31545504927635193,0.6167497634887695,-3.234151601791382,0
-0.477845162153244,0.22739791870117188,-3.047666549682617,0
-0.6930837631225586,-0.4041604995727539,-2.6764562129974365,0
-0.8725486993789673,-1.1708459854125977,-1.9967422485351562,0
-0.9492942094802856,-1.8078546524047852,-1.3443489074707031,0
-1.047642469406128,-2.241575241088867,-1.2639272212982178,0
-1.1720130443572998,-2.5560030937194824,-1.3939883708953857,0
-1.2116109132766724,-2.8925137519836426,-1.667386531829834,0
-1.160579800605774,-3.2682576179504395,-1.9542858600616455,0
-1.0257482528686523,-3.8057541847229004,-2.134154796600342,0
-0.8219650983810425,-4.541281700134277,-2.0961766242980957,0
-0.6252646446228027,-5.336139678955078,-1.962531328201294,0
-0.58747398853302,-6.065652847290039,-2.229309558868408,0
-0.6957440972328186,-6.61224365234375,-2.7491116523742676,0
-0.550148069858551,-6.787040710449219,-3.0631937980651855,0
-0.4231811761856079,-6.624312400817871,-3.039855718612671,0
-0.35574981570243835,-6.153350353240967,-2.9829745292663574,0
-0.2552461326122284,-5.5300374031066895,-2.8327393531799316,0
-0.0959952175617218,-4.967131614685059,-2.5993611812591553,0
0.097571462392807,-4.4736762046813965,-2.307755947113037,0
0.14541560411453247,-4.180541038513184,-1.9184012413024902,0
-0.03605484962463379,-3.96775484085083,-1.613485336303711,0
-0.29007574915885925,-3.9314417839050293,-1.4756195545196533,0
-0.6131947040557861,-4.1300835609436035,-1.5667972564697266,0
-0.8832814693450928,-4.485217094421387,-1.9618968963623047,0
-0.9602800607681274,-4.8889312744140625,-2.2900583744049072,0
-0.9055721759796143,-5.185522079467773,-2.343618154525757,0
-0.8472244143486023,-5.344038963317871,-2.1371309757232666,0
-0.797822117805481,-5.443479537963867,-1.8502788543701172,0
-0.8367749452590942,-5.6272735595703125,-1.5119314193725586,0
-0.8781524300575256,-5.859258651733398,-1.096059799194336,0
-0.9940763711929321,-6.079371452331543,-0.7034428119659424,0
-1.1156516075134277,-6.043385028839111,-0.40146517753601074,0
-1.2622268199920654,-5.966380596160889,-0.11177587509155273,0
-1.3476678133010864,-5.776410102844238,0.2705106735229492,0
-1.3984644412994385,-5.526026725769043,0.5872936248779297,0
-1.4360167980194092,-5.133786201477051,0.812100887298584,0
-1.5087709426879883,-4.697425842285156,1.0351862907409668,0
-1.7273261547088623,-4.137693881988525,1.3109493255615234,0
-1.4140452146530151,-3.521239757537842,1.5810694694519043,0
-0.9472158551216125,-2.8380441665649414,1.6386456489562988,0
-0.5137977004051208,-2.0898404121398926,1.4939823150634766,0
-0.11178275942802429,-1.3237686157226562,1.3771111965179443,0
0.5365918874740601,-0.5387802124023438,1.2178151607513428,0
1.2517527341842651,0.43172359466552734,0.9825992584228516,0
2.1112871170043945,1.6849699020385742,1.0057628154754639,0
2.9303762912750244,3.613737106323242,1.6402573585510254,0
3.368176221847534,6.867740631103516,3.014228105545044,0
2.7293646335601807,10.894105911254883,5.767265796661377,0
0.778461217880249,13.243094444274902,8.1435546875,0
0.36162251234054565,12.38878059387207,8.313434600830078,0
0.8190445899963379,10.720321655273438,7.194569110870361,0
0.940032422542572,9.145650863647461,5.593735694885254,0
0.1649988889694214,7.047229766845703,4.434578895568848,0
-0.20494189858436584,4.193312644958496,3.2673308849334717,0
-0.8276209235191345,2.0058374404907227,2.4900808334350586,0
-1.1043903827667236,2.919921875,2.711946964263916,0
-1.830096960067749,6.11629581451416,1.800797462463379,0
-2.4952964782714844,9.787946701049805,-0.38080286979675293,0
-3.150029182434082,13.231520652770996,-2.7231225967407227,0
-3.538048267364502,14.68224811553955,-4.0008673667907715,0
-2.8564865589141846,13.84636402130127,-4.599854946136475,0
-3.1543853282928467,11.12938404083252,-4.5454206466674805,0
-4.630893707275391,7.8609466552734375,-4.583127975463867,0
-5.981912612915039,4.457733154296875,-4.613641262054443,0
-5.91414213180542,1.3965864181518555,-3.843636989593506,0
-5.6841301918029785,0.4574413299560547,-2.463550567626953,0
-6.019529819488525,1.189305305480957,-0.6529371738433838,0
-4.945210933685303,2.068866729736328,0.3195981979370117,0
-3.045370101928711,2.052168846130371,0.6120786666870117,0
-2.0220417976379395,1.4627695083618164,0.2082052230834961,0
-1.824582815170288,0.13464641571044922,-1.064378261566162,0
-1.9030957221984863,-1.4356331825256348,-2.309908866882324,0
-1.8458154201507568,-2.3838367462158203,-3.2558817863464355,0
-1.6901625394821167,-2.337723731994629,-3.7554855346679688,0
-1.4377018213272095,-1.3911876678466797,-3.669922351837158,0
-0.6079848408699036,0.045719146728515625,-3.260007858276367,0
0.3983125686645508,1.4494056701660156,-2.6220736503601074,0
1.4604841470718384,2.557493209838867,-2.1534740924835205,0
2.605963945388794,3.2138805389404297,-2.2456140518188477,0
3.1529343128204346,3.3685359954833984,-3.027798652648926,0
3.245971441268921,2.9860410690307617,-3.7950360774993896,0
3.186739444732666,2.194239616394043,-4.559839725494385,0
2.880781650543213,1.166804313659668,-5.398597717285156,0
2.468611240386963,0.2115650177001953,-6.0928473472595215,0
1.656550645828247,-0.4906444549560547,-6.384455680847168,0
0.7815338373184204,-0.8432760238647461,-6.168050765991211,0
-0.03635972738265991,-0.8773069381713867,-5.408359050750732,0
-0.7789981365203857,-0.846653938293457,-4.264207363128662,0
-1.2708039283752441,-0.8428201675415039,-2.9642162322998047,0
-1.5160582065582275,-0.9763851165771484,-1.779222846031189,0
-1.5696778297424316,-1.2069110870361328,-0.8557643890380859,0
-1.4145689010620117,-1.5153160095214844,-0.28582239151000977,0
-1.1167635917663574,-1.8776721954345703,-0.0755617618560791,0
-0.7541475892066956,-2.250837802886963,-0.10476565361022949,0
-0.47628524899482727,-2.603675365447998,-0.2150859832763672,0
-0.1930515170097351,-2.962442398071289,-0.42552876472473145,0
0.08601444959640503,-3.1525654792785645,-0.5710372924804688,0
0.2515205144882202,-3.2221755981445312,-0.6299580335617065,0
0.34490078687667847,-3.214606761932373,-0.7885035276412964,0
0.379023015499115,-3.0630369186401367,-1.144675850868225,0
0.40525317192077637,-2.84889554977417,-1.5935695171356201,0
0.3788997530937195,-2.5315661430358887,-1.9897202253341675,0
0.3384861946105957,-2.1350345611572266,-2.3885722160339355,0
0.42757976055145264,-1.7335405349731445,-2.512784481048584,0
0.21966999769210815,-1.4274463653564453,-2.5038530826568604,0
0.13097071647644043,-1.2596759796142578,-2.251922130584717,0
0.20738232135772705,-1.1536197662353516,-1.9318791627883911,0
0.1860523223876953,-1.2263879776000977,-1.6014432907104492,0
0.03853178024291992,-1.291245460510254,-1.2632842063903809,0
-0.026705622673034668,-1.4510679244995117,-1.001220464706421,0
-0.08340811729431152,-1.4715042114257812,-0.8581652045249939,0
-0.10054993629455566,-1.4628210067749023,-0.5848299860954285,0
-0.14060759544372559,-1.3988237380981445,-0.4080190658569336,0
-0.10557568073272705,-1.2175054550170898,-0.2816014289855957,0
0.2609785795211792,-1.466567039489746,-0.12726294994354248,0
0.3054288625717163,-1.4518613815307617,0.058542490005493164,0
0.4633740186691284,-1.228724479675293,0.39992737770080566,0
0.6107381582260132,-0.9887714385986328,0.43025434017181396,0
0.7161238193511963,-0.9041566848754883,0.3338109254837036,0
0.8942698240280151,-0.9221181869506836,0.3045363426208496,0
1.0707910060882568,-1.0497770309448242,0.32621681690216064,0
1.2358380556106567,-1.0240507125854492,0.3494190573692322,0
1.391486406326294,-1.1727619171142578,0.26258349418640137,0
1.5422565937042236,-1.3857393264770508,0.12878698110580444,0
1.7313251495361328,-1.6199493408203125,0.0374869704246521,0
1.7866607904434204,-1.8180627822875977,-0.04619187116622925,0
1.8041797876358032,-1.879720687866211,-0.16463476419448853,0
1.8389068841934204,-1.8050599098205566,-0.2983776330947876,0
1.9318430423736572,-1.6803464889526367,-0.2483757734298706,0
1.8684422969818115,-1.4626235961914062,-0.13428261876106262,0
1.8860559463500977,-1.1232471466064453,0.004945635795593262,0
1.8126660585403442,-0.7770557403564453,0.1851787269115448,0
1.6604809761047363,-0.5196104049682617,0.3502349555492401,0
1.5156878232955933,-0.33637046813964844,0.5561081767082214,0
1.3257980346679688,-0.3587198257446289,0.6938136219978333,0
1.071535587310791,-0.37357139587402344,0.7147014737129211,0
0.8676668405532837,-0.36659908294677734,0.7498914003372192,0
0.6160138845443726,-0.3617668151855469,0.736569881439209,0
0.37873876094818115,-0.2993354797363281,0.7389289736747742,0
0.2969437837600708,-0.19138526916503906,0.7902710437774658,0
0.1744840145111084,-0.12650203704833984,0.9074407815933228,0
0.09278243780136108,-0.059234619140625,0.9424701929092407,0
0.07840836048126221,0.0031824111938476562,0.8667886257171631,0
0.02614724636077881,0.034420013427734375,0.6634087562561035,0
0.08175468444824219,0.015383720397949219,0.4806630611419678,0
0.1537190079689026,-0.08729743957519531,0.3020271360874176,0
0.2532375454902649,-0.07020282745361328,0.17111805081367493,0
0.350647509098053,0.02117919921875,0.13405779004096985,0
0.4427575469017029,0.16532230377197266,0.12702569365501404,0
0.5697444677352905,0.4195890426635742,0.15771883726119995,0
0.6811226010322571,0.67864990234375,0.2455529272556305,0
0.7479371428489685,0.8086080551147461,0.49826309084892273,0
0.8469154238700867,0.9889307022094727,0.755402147769928,0
0.8992405533790588,1.1477737426757812,1.0429054498672485,0
0.935908317565918,1.2946796417236328,1.1711984872817993,0
1.0383206605911255,1.4224157333374023,1.2163640260696411,0
1.1682113409042358,1.5213851928710938,1.2593657970428467,0
1.2846863269805908,1.5150938034057617,1.331371784210205,0
1.395014762878418,1.4323301315307617,1.3270740509033203,0
1.635681390762329,1.3951196670532227,1.3734326362609863,0
1.7340219020843506,1.3149032592773438,1.367502212524414,0
1.860023021697998,1.2921485900878906,1.3166104555130005,0
2.0711922645568848,1.3339519500732422,1.2090258598327637,0
2.1784274578094482,1.356546401977539,1.0712753534317017,0
2.4233944416046143,1.4747190475463867,0.9297390580177307,0
2.5669000148773193,1.4564085006713867,0.8395208120346069,0
2.8073885440826416,1.4619855880737305,0.8340674042701721,0
2.955820322036743,1.2331609725952148,0.8916077613830566,0
3.000011444091797,0.999730110168457,0.9327186942100525,0
3.0475361347198486,0.8644590377807617,0.96876060962677,0
2.990074872970581,0.7793540954589844,0.913161039352417,0
2.980025053024292,0.708409309387207,0.6742280721664429,0
2.9805798530578613,0.9360866546630859,0.2753388285636902,0
2.8567779064178467,1.4954614639282227,-0.13076603412628174,0
2.4832422733306885,2.2833290100097656,-0.25477296113967896,0
2.3600685596466064,3.332943916320801,-0.13251250982284546,0
2.2890167236328125,4.048651695251465,0.042111337184906006,0
2.4837021827697754,4.134411811828613,0.17074620723724365,0
2.7320973873138428,3.8229808807373047,0.11184364557266235,0
3.001354932785034,3.224893569946289,-0.20914947986602783,0
3.088498830795288,2.608391761779785,-0.4838770031929016,0
3.187256336212158,2.038205146789551,-0.4945337176322937,0
3.2334418296813965,1.8396615982055664,-0.2017686665058136,0
3.1108806133270264,1.9024286270141602,-0.1982300579547882,0
2.84216570854187,1.9464731216430664,-0.6160165071487427,0
2.384937286376953,1.9216833114624023,-1.1999913454055786,0
1.751772403717041,1.622640609741211,-1.845637321472168,0
1.0846093893051147,1.1359272003173828,-2.4576358795166016,0
0.35995596647262573,0.7369346618652344,-2.6788129806518555,0
-0.46203067898750305,0.3276634216308594,-2.747955799102783,0
-1.3110251426696777,-0.09655094146728516,-2.4538731575012207,0
-2.0565590858459473,-0.21526622772216797,-1.976989507675171,0
-2.999307155609131,-0.26806640625,-1.4414782524108887,0
-3.6098904609680176,-0.22172927856445312,-1.0126487016677856,0
-3.9460413455963135,-0.007144927978515625,-0.7041522264480591,0
-4.148126602172852,0.4280061721801758,-0.32602572441101074,0
-3.878756284713745,0.9110698699951172,0.13340246677398682,0
-3.3083152770996094,1.496718406677246,0.5517202615737915,0
-2.649463415145874,1.957505226135254,0.8407677412033081,0
-2.1113905906677246,2.36785888671875,0.9026871919631958,0
-1.7113364934921265,2.701899528503418,0.9280802011489868,0
-1.3272144794464111,2.9481124877929688,1.0794072151184082,0
-1.0085275173187256,3.178643226623535,1.2278412580490112,0
-0.8210656642913818,3.2908782958984375,1.3342469930648804,0
-0.6725618839263916,3.3495683670043945,1.3604763746261597,0
-0.815026044845581,3.280538558959961,1.2691837549209595,0
-1.0269514322280884,3.227235794067383,1.0472220182418823,0
-1.5516310930252075,3.160776138305664,0.5474038124084473,0
-1.6689502000808716,3.1169185638427734,-0.14796757698059082,0
-1.6257200241088867,2.8971471786499023,-0.976373553276062,0
-1.452878713607788,2.609269142150879,-1.720078468322754,0
-1.1501296758651733,2.2652597427368164,-2.369459867477417,0
-0.9664367437362671,1.7505130767822266,-2.896270990371704,0
-0.7970675230026245,1.1683235168457031,-3.244044780731201,0
-0.6696946620941162,0.8083534240722656,-3.2604446411132812,0
-0.5234381556510925,0.48381805419921875,-2.933499336242676,0
-0.5604051351547241,0.16574859619140625,-2.4897191524505615,0
-0.6814461946487427,-0.23949432373046875,-1.9923897981643677,0
-0.8808374404907227,-0.5002574920654297,-1.5240087509155273,0
-0.9463299512863159,-0.7677764892578125,-1.1695868968963623,0
-0.9256678819656372,-1.2313785552978516,-0.9711446762084961,0
-0.806434154510498,-1.6928625106811523,-0.6119136810302734,0
-1.0450429916381836,-2.0304999351501465,-0.5893208980560303,0
-1.150160789489746,-2.5074868202209473,-0.8268439769744873,0
-1.2188900709152222,-2.8319311141967773,-1.047255039215088,0
-1.2071456909179688,-3.1233649253845215,-1.3973886966705322,0
-1.1119768619537354,-3.3026328086853027,-1.86851966381073,0
-1.095526099205017,-3.6326632499694824,-2.3273794651031494,0
-0.7735020518302917,-3.8596243858337402,-2.6073851585388184,0
-0.6696239113807678,-4.1534647941589355,-2.720724582672119,0
-0.631079375743866,-4.507077693939209,-2.6983683109283447,0
-0.7513831853866577,-4.872956275939941,-2.420107364654541,0
-0.8577263355255127,-5.210757255554199,-2.3567934036254883,0
-0.9399689435958862,-5.353329658508301,-2.309504508972168,0
-1.297257900238037,-5.2774577140808105,-2.157820224761963,0
-1.3913425207138062,-5.015023231506348,-1.9033074378967285,0
-1.421412467956543,-4.6168718338012695,-1.6577730178833008,0
-1.4958549737930298,-4.2316131591796875,-1.425661563873291,0
-1.5129165649414062,-4.086389064788818,-1.3671460151672363,0
-1.5135514736175537,-4.020695686340332,-1.3410208225250244,0
-1.6048648357391357,-3.893378734588623,-1.3377909660339355,0
-1.561720848083496,-3.9628539085388184,-1.3477559089660645,0
-1.5662416219711304,-4.061337471008301,-1.4046878814697266,0
-1.5876917839050293,-4.279409885406494,-1.4324548244476318,0
-1.6120030879974365,-4.542637825012207,-1.4767796993255615,0
-1.6104490756988525,-4.877262115478516,-1.5113120079040527,0
-1.5427477359771729,-5.118282318115234,-1.4999303817749023,0
-1.457136631011963,-5.230064392089844,-1.3371038436889648,0
-1.305978536605835,-5.389720916748047,-1.1376323699951172,0
-1.1898503303527832,-5.451296329498291,-0.937335729598999,0
-1.0537275075912476,-5.464979648590088,-0.7435002326965332,0
-1.0387940406799316,-5.437894821166992,-0.4700465202331543,0
-1.0254645347595215,-5.374778747558594,-0.19591927528381348,0
-1.1764918565750122,-5.2301025390625,0.07648086547851562,0
-1.259299397468567,-4.999092102050781,0.3352358341217041,0
-1.0841364860534668,-4.858745098114014,0.8410730361938477,0
-1.0839262008666992,-4.495500087738037,1.3137598037719727,0
-1.083668828010559,-4.114891052246094,1.7503793239593506,0
-0.9490936994552612,-3.750009059906006,2.31286358833313,0
-0.48116371035575867,-3.2350831031799316,2.7721107006073,0
0.258822500705719,-2.583103656768799,2.6649694442749023,0
1.2090351581573486,-1.8037214279174805,1.9276630878448486,0
2.512624740600586,-0.5883293151855469,0.6549928188323975,0
3.57171893119812,1.2320117950439453,-0.32796239852905273,0
4.138912677764893,3.786998748779297,0.03561115264892578,0
4.096836090087891,6.927487373352051,2.335973024368286,0
3.2475650310516357,10.121803283691406,6.817408561706543,0
1.8832019567489624,11.498259544372559,12.046828269958496,0
1.8946866989135742,10.988519668579102,13.845736503601074,0
1.0266444683074951,10.300620079040527,13.186515808105469,0
0.715533435344696,9.445455551147461,11.08536148071289,0
1.0892099142074585,7.464447975158691,9.064401626586914,0
1.7816362380981445,5.075235366821289,6.6578369140625,0
2.6600029468536377,2.7501096725463867,3.6918439865112305,0
2.7546796798706055,2.088716506958008,1.939270257949829,0
1.4893219470977783,4.51972770690918,0.9259641170501709,0
-0.033121466636657715,8.31164836883545,-1.4536817073822021,0
-0.9164970517158508,11.97343921661377,-4.118825435638428,0
-1.5951858758926392,14.231892585754395,-5.173544883728027,0
-2.630209445953369,14.477006912231445,-6.061339378356934,0
-3.9020233154296875,12.170188903808594,-7.725393295288086,0
-5.448195457458496,8.46960163116455,-8.958778381347656,0
-6.669790267944336,4.769854545593262,-8.169655799865723,0
-7.139035224914551,2.039891242980957,-6.247050762176514,0
-7.489213943481445,0.3966035842895508,-3.3583943843841553,0
-8.270074844360352,0.22585391998291016,0.12476587295532227,0
-7.790390491485596,0.1518688201904297,1.9190669059753418,0
-5.960551738739014,-0.38222789764404297,2.703505754470825,0
-3.1877994537353516,-0.790797233581543,2.0355324745178223,0
-1.2102162837982178,-1.065439224243164,0.9847531318664551,0
-1.2961485385894775,-1.5460166931152344,-1.2809181213378906,0
-1.9046926498413086,-1.9641618728637695,-3.3423080444335938,0
-2.291459321975708,-2.003302574157715,-4.345508575439453,0
-2.2129766941070557,-1.204491138458252,-4.236292839050293,0
-1.469529151916504,0.36182498931884766,-3.6250343322753906,0
-0.39711126685142517,2.1001367568969727,-3.145962715148926,0
0.7045093774795532,3.3371429443359375,-3.122774839401245,0
1.854317307472229,3.9705114364624023,-3.5946474075317383,0
2.643589496612549,4.034736633300781,-4.11379861831665,0
2.7329578399658203,3.6460981369018555,-4.709925174713135,0
2.6166470050811768,2.787289619445801,-5.4572224617004395,0
2.2540009021759033,1.7614307403564453,-5.966577529907227,0
1.6837856769561768,0.8114166259765625,-6.1128034591674805,0
0.8940942287445068,-0.03299522399902344,-5.864511013031006,0
0.008394598960876465,-0.7421331405639648,-5.269377708435059,0
-0.8126171231269836,-1.3155956268310547,-4.366379261016846,0
-1.3710060119628906,-1.5315380096435547,-3.1005218029022217,0
-1.6948213577270508,-1.5203652381896973,-1.8547420501708984,0
-1.8676974773406982,-1.314453125,-0.9003796577453613,0
-1.724646806716919,-1.1802959442138672,-0.3005707263946533,0
-1.5504075288772583,-1.1421594619750977,-0.06203150749206543,0
-1.0543410778045654,-1.1641597747802734,-0.09251022338867188,0
-0.5551227331161499,-1.2722997665405273,-0.36099672317504883,0
-0.2849191427230835,-1.4828252792358398,-0.641116738319397,0
0.04111051559448242,-1.7187824249267578,-0.8764441013336182,0
