AccX,AccY,AccZ,stepCount
-0.2558740973472595,-2.586716651916504,-1.3122787475585938,1.7508809566497803
-0.31753668189048767,-2.9813575744628906,-1.3247401714324951,-4.195248603820801
-0.4426400661468506,-3.402641773223877,-1.3360602855682373,1.5596882104873657
-0.5403918027877808,-3.74318790435791,-1.3004474639892578,-2.427502393722534
-0.5517542362213135,-4.074989318847656,-1.2391993999481201,3.6192398071289062
-0.5042375326156616,-4.417294025421143,-1.2214322090148926,-4.221737861633301
-0.4823075830936432,-4.7986674308776855,-1.1133372783660889,1.947050929069519
-0.5531294345855713,-5.195095062255859,-1.0154705047607422,-1.4345667362213135
-0.5973492860794067,-5.417674541473389,-0.7723348140716553,2.7278873920440674
-0.6366848945617676,-5.5906758308410645,-0.5327510833740234,-3.7426185607910156
-0.7964203953742981,-5.465348720550537,-0.14621877670288086,-1.807944893836975
-0.7131814956665039,-5.266727447509766,0.13363218307495117,4.779234409332275
-0.7958431243896484,-5.018477439880371,0.47866344451904297,-1.9466850757598877
-0.7904845476150513,-4.770569801330566,0.9625535011291504,0
-0.8094922304153442,-4.450724124908447,1.266313076019287,0
-0.800261378288269,-4.048884391784668,1.5375041961669922,0
-0.6879312992095947,-3.547731876373291,1.7295079231262207,0
-0.4473646879196167,-2.994307041168213,1.6899776458740234,0
-0.37668368220329285,-2.325472831726074,1.6419620513916016,0
-0.004828274250030518,-1.5766096115112305,1.5001564025878906,0
0.12281042337417603,-0.7948446273803711,1.298388957977295,0
0.0072872936725616455,0.0875406265258789,1.1947307586669922,0
0.10799551010131836,1.0064725875854492,1.4048619270324707,0
0.5773819088935852,2.0317201614379883,1.8504140377044678,0
1.2605308294296265,3.390692710876465,2.183293104171753,0
1.8908591270446777,5.167003631591797,2.393120050430298,0
2.148622989654541,7.202472686767578,2.661531448364258,0
1.6342525482177734,8.430315017700195,3.1757593154907227,0
0.9090886116027832,7.667722702026367,3.755277156829834,0
0.7937436699867249,5.860779762268066,4.414516925811768,0
0.6206536293029785,4.073400497436523,5.082704544067383,0
0.4670868515968323,2.423778533935547,5.564427852630615,0
0.5533632636070251,0.8656797409057617,5.602763652801514,0
0.7470127940177917,-0.6609678268432617,5.3247270584106445,0
0.8143727779388428,-1.9936800003051758,4.780444622039795,0
0.8007130026817322,-2.989558696746826,3.8149876594543457,0
0.7599368691444397,-3.229127883911133,2.4111733436584473,0
0.6071815490722656,-2.3273987770080566,0.9973669052124023,0
0.2680402994155884,-0.35395336151123047,-0.3096151351928711,0
0.03447467088699341,1.9309921264648438,-1.390380620956421,0
0.042485058307647705,3.797085762023926,-2.39331316947937,0
-0.059772610664367676,5.272887229919434,-3.34277606010437,0
-0.488313764333725,6.5181074142456055,-3.777742624282837,0
-1.2365118265151978,7.053865432739258,-3.817075729370117,0
-2.3826186656951904,7.744499206542969,-3.9263205528259277,0
-3.661682605743408,8.651460647583008,-4.279204368591309,0
-4.913164138793945,9.63891315460205,-4.647511005401611,0
-5.989786624908447,10.06925106048584,-4.452232360839844,0
-5.953226089477539,9.962067604064941,-3.2062838077545166,0
-4.868320465087891,8.82005786895752,-0.9527535438537598,0
-3.8639719486236572,6.883100509643555,1.326371192932129,0
-2.6773719787597656,5.188340187072754,2.688540458679199,0
-1.796778917312622,3.43072509765625,2.923309326171875,0
-1.5053799152374268,1.5401411056518555,2.1404848098754883,0
-1.902846097946167,-0.19102954864501953,0.5153360366821289,0
-2.6025147438049316,-1.461103916168213,-1.1973700523376465,0
-3.2885985374450684,-2.3329367637634277,-2.5942649841308594,0
-3.70859694480896,-2.9439053535461426,-3.46517276763916,0
-3.829470634460449,-3.1333374977111816,-3.903995990753174,0
-3.6673359870910645,-3.0601372718811035,-4.1929545402526855,0
-3.377305507659912,-2.8223876953125,-4.4771623611450195,0
-2.9982829093933105,-2.4675493240356445,-4.591440677642822,0
-2.4431447982788086,-1.933854103088379,-4.442720413208008,0
-1.752765417098999,-1.3643012046813965,-4.046360492706299,0
-0.9619391560554504,-0.6470909118652344,-3.4982552528381348,0
0.0035326480865478516,0.24746990203857422,-2.9765453338623047,0
1.0428234338760376,0.9498491287231445,-2.626242160797119,0
1.7284797430038452,1.3855276107788086,-2.5789217948913574,0
1.96708083152771,1.5712671279907227,-2.746933937072754,0
1.7984955310821533,1.4641647338867188,-3.0649263858795166,0
1.244860053062439,1.140878677368164,-3.336393356323242,0
0.7283287048339844,0.8071937561035156,-3.444552183151245,0
0.37410640716552734,0.5254621505737305,-3.560622453689575,0
0.27983367443084717,0.3676729202270508,-3.542597532272339,0
0.11825692653656006,0.20500659942626953,-3.3896877765655518,0
0.14550268650054932,0.004256248474121094,-3.0861897468566895,0
0.13116908073425293,-0.27742671966552734,-2.7018744945526123,0
0.12685012817382812,-0.5369195938110352,-2.3183956146240234,0
-0.01650989055633545,-0.8816118240356445,-2.0892333984375,0
-0.09338700771331787,-1.244206428527832,-1.9312078952789307,0
-0.09392428398132324,-1.536057949066162,-1.8522125482559204,0
-0.06315827369689941,-1.7117104530334473,-1.7573139667510986,0
-0.09676671028137207,-1.8430213928222656,-1.6994521617889404,0
-0.1901869773864746,-1.9253664016723633,-1.585084080696106,0
-0.21950304508209229,-1.9112281799316406,-1.4277702569961548,0
-0.3695793151855469,-1.7961559295654297,-1.327065348625183,0
-0.4470710754394531,-1.5852470397949219,-1.2246724367141724,0
-0.4740859270095825,-1.383896827697754,-1.1966445446014404,0
-0.5470099449157715,-1.1465539932250977,-1.2166250944137573,0
-0.5560746192932129,-0.8899803161621094,-1.181675672531128,0
-0.6186891794204712,-0.7288970947265625,-1.2379299402236938,0
-0.7848738431930542,-0.5148611068725586,-1.4286916255950928,0
-0.9157639741897583,-0.2598609924316406,-1.5483746528625488,0
-0.9776908159255981,-0.10746192932128906,-1.6257531642913818,0
-0.9443198442459106,0.04286479949951172,-1.6489449739456177,0
-0.9425297379493713,0.05476570129394531,-1.687129259109497,0
-0.8025059700012207,0.12435340881347656,-1.6130216121673584,0
-0.723198652267456,0.04826545715332031,-1.572214126586914,0
-0.6639521718025208,-0.06329822540283203,-1.5910273790359497,0
-0.4569241404533386,-0.12662601470947266,-1.583498239517212,0
-0.2477632761001587,-0.42148590087890625,-1.4306144714355469,0
-0.22540521621704102,-0.6271591186523438,-1.1805273294448853,0
-0.10683798789978027,-0.9662456512451172,-1.0341334342956543,0
0.014730453491210938,-1.1589021682739258,-1.0221445560455322,0
0.12257933616638184,-1.234048843383789,-1.0748670101165771,0
0.3193697929382324,-1.2205209732055664,-1.1179966926574707,0
0.6266658306121826,-1.2021331787109375,-1.1946346759796143,0
0.7550324201583862,-1.123891830444336,-1.2713297605514526,0
0.8887990713119507,-0.9762716293334961,-1.2526395320892334,0
1.0232198238372803,-0.8047962188720703,-1.1769859790802002,0
1.0888539552688599,-0.6860008239746094,-1.0755293369293213,0
1.071338176727295,-0.5528230667114258,-0.9676578044891357,0
1.0232808589935303,-0.45548248291015625,-0.8414737582206726,0
0.9927046298980713,-0.43462371826171875,-0.7184567451477051,0
0.8695298433303833,-0.43754005432128906,-0.6416980624198914,0
0.7687186002731323,-0.5048637390136719,-0.5657297372817993,0
0.4080237150192261,-0.7871923446655273,-0.5094090700149536,0
0.2851346731185913,-0.9232063293457031,-0.42246729135513306,0
0.13454127311706543,-0.9466123580932617,-0.3502919673919678,0
-0.014769792556762695,-0.9149742126464844,-0.2809150218963623,0
-0.11507344245910645,-0.9216213226318359,-0.18551933765411377,0
-0.2023632526397705,-0.8397865295410156,-0.10457944869995117,0
-0.2024843692779541,-0.7963390350341797,0.00995171070098877,0
-0.254175066947937,-0.7338504791259766,0.04089844226837158,0
-0.22573208808898926,-0.6977958679199219,0.15340149402618408,0
-0.21306300163269043,-0.6929054260253906,0.2303532361984253,0
-0.17311489582061768,-0.6999940872192383,0.25494080781936646,0
-0.12501466274261475,-0.7142362594604492,0.21262478828430176,0
-0.009096980094909668,-0.8072996139526367,0.15569889545440674,0
0.04984593391418457,-0.8738155364990234,0.08163774013519287,0
0.13771557807922363,-1.0524768829345703,-0.01660555601119995,0
0.15379607677459717,-1.132695198059082,-0.15339601039886475,0
0.22229349613189697,-1.1767568588256836,-0.23752954602241516,0
0.28325891494750977,-1.0460319519042969,-0.278339684009552,0
0.3030402660369873,-0.8842048645019531,-0.299535870552063,0
0.3868832588195801,-0.6434907913208008,-0.2866596281528473,0
0.47970592975616455,-0.4937448501586914,-0.25898993015289307,0
0.6149410009384155,-0.3224506378173828,-0.26947152614593506,0
0.7255645990371704,-0.222869873046875,-0.36377468705177307,0
0.7783626317977905,-0.10646343231201172,-0.4152746796607971,0
0.7951785326004028,-0.04978656768798828,-0.5032116770744324,0
0.727920413017273,-0.045558929443359375,-0.5511862635612488,0
0.7252184152603149,0.01145172119140625,-0.5544651746749878,0
0.6439586877822876,0.13785839080810547,-0.5010219812393188,0
0.4747968912124634,0.34788990020751953,-0.4194123148918152,0
0.2611227035522461,0.6055517196655273,-0.33130982518196106,0
0.0029870271682739258,0.8557891845703125,-0.31096625328063965,0
-0.1317196488380432,1.2061548233032227,-0.1668541133403778,0
-0.28668689727783203,1.3241662979125977,0.010112136602401733,0
-0.31839877367019653,1.260324478149414,0.17689333856105804,0
-0.31043577194213867,1.1893844604492188,0.3142581880092621,0
-0.2341507077217102,1.0611448287963867,0.4604205787181854,0
-0.12817496061325073,0.9067926406860352,0.5460317730903625,0
0.09572523832321167,0.8220252990722656,0.7195923328399658,0
0.32243162393569946,0.9215488433837891,0.7587372064590454,0
0.5756230354309082,1.1955890655517578,0.8549330830574036,0
0.9531320929527283,1.5196094512939453,1.0369728803634644,0
1.3397425413131714,1.8768301010131836,1.1277192831039429,0
1.6944750547409058,2.162022590637207,1.1796083450317383,0
2.072305202484131,2.3800525665283203,1.1780506372451782,0
2.4013428688049316,2.49752140045166,1.1657967567443848,0
2.640958547592163,2.516934394836426,1.1688423156738281,0
2.8629255294799805,2.4957799911499023,1.2226099967956543,0
3.0459342002868652,2.426900863647461,1.3291999101638794,0
3.1662163734436035,2.3533716201782227,1.4093472957611084,0
3.211869478225708,2.327770233154297,1.3859838247299194,0
3.271470069885254,2.3045835494995117,1.375964641571045,0
3.2925524711608887,2.2598657608032227,1.3933162689208984,0
3.3301618099212646,2.2055864334106445,1.3899815082550049,0
3.3554952144622803,2.1704511642456055,1.3419815301895142,0
3.3801755905151367,2.1903152465820312,1.1868889331817627,0
3.374753475189209,2.427748680114746,1.0058283805847168,0
3.3863930702209473,2.7462358474731445,0.8729662895202637,0
3.3785510063171387,3.131376266479492,0.7210509777069092,0
3.2742953300476074,3.439655303955078,0.5089186429977417,0
3.2338738441467285,3.5588150024414062,0.35312336683273315,0
3.276355266571045,3.426969528198242,0.1286812722682953,0
3.249048948287964,2.896230697631836,-0.13353073596954346,0
3.3273189067840576,2.2349557876586914,-0.43345487117767334,0
3.238877296447754,1.7374944686889648,-0.8141353726387024,0
3.058079481124878,1.3033370971679688,-1.1750074625015259,0
2.708143711090088,0.9253911972045898,-1.4849603176116943,0
2.368938446044922,0.48415660858154297,-1.6337960958480835,0
1.9406845569610596,0.10176658630371094,-1.8581676483154297,0
1.3716140985488892,-0.3245573043823242,-2.1171486377716064,0
0.9092571139335632,-0.7253332138061523,-2.3889591693878174,0
0.36776065826416016,-1.0215749740600586,-2.7547996044158936,0
-0.25454363226890564,-1.2802257537841797,-3.1787004470825195,0
-0.7917065620422363,-1.5108003616333008,-3.3182995319366455,0
-1.4414950609207153,-1.7778749465942383,-3.029271125793457,0
-1.978193998336792,-1.9188823699951172,-2.52085542678833,0
-2.468419313430786,-1.8838438987731934,-2.009521961212158,0
-2.8453402519226074,-1.6825370788574219,-1.473190426826477,0
-3.1215872764587402,-1.3797245025634766,-0.9136138558387756,0
-3.248805522918701,-0.8584709167480469,-0.19535350799560547,0
-3.242095470428467,-0.1456737518310547,0.4688621759414673,0
-2.922938346862793,0.6000680923461914,1.0582515001296997,0
-2.4800615310668945,1.2418413162231445,1.3621585369110107,0
-2.0406837463378906,1.707784652709961,1.2300516366958618,0
-1.8076549768447876,2.074798583984375,0.8874170780181885,0
-1.7226921319961548,2.341139793395996,0.5056953430175781,0
-1.7609655857086182,2.605680465698242,0.11955142021179199,0
-1.8041269779205322,2.794981002807617,-0.22379231452941895,0
-1.7927501201629639,2.861769676208496,-0.40190720558166504,0
-2.0693519115448,2.8731536865234375,-0.44826292991638184,0
-2.6207048892974854,2.9341182708740234,-0.5097982883453369,0
-2.960184335708618,2.934351921081543,-0.6259839534759521,0
-3.13759446144104,2.7901554107666016,-0.813030481338501,0
-3.169053792953491,2.36785888671875,-1.1115516424179077,0
-3.0809850692749023,1.923598289489746,-1.4779229164123535,0
-2.7103664875030518,1.7560338973999023,-1.9012542963027954,0
-2.0696609020233154,1.6828279495239258,-2.3874964714050293,0
-1.6704896688461304,1.4287405014038086,-3.0316884517669678,0
-1.31697416305542,1.2281789779663086,-3.591850757598877,0
-1.0139378309249878,1.0811214447021484,-4.068382740020752,0
-0.6990575194358826,0.8371105194091797,-4.1322245597839355,0
-0.6214885711669922,0.4509916305541992,-3.77472186088562,0
-0.7436096668243408,-0.2829780578613281,-2.9645586013793945,0
-0.9276665449142456,-1.0805072784423828,-1.8632240295410156,0
-0.9636104106903076,-1.9112768173217773,-0.875756025314331,0
-0.9565527439117432,-2.61801815032959,-0.2544417381286621,0
-0.8548335433006287,-3.129450798034668,-0.005791664123535156,0
-0.7669551968574524,-3.5366010665893555,-0.21126747131347656,0
-0.6839423775672913,-3.906580924987793,-0.6243901252746582,0
-0.7166476249694824,-4.351851940155029,-1.1830670833587646,0
-0.6438522934913635,-4.8628458976745605,-1.5142664909362793,0
-0.6729714870452881,-5.463382720947266,-1.783574104309082,0
-0.6211380362510681,-5.911684036254883,-2.0394957065582275,0
-0.6344103217124939,-5.973490238189697,-2.1054911613464355,0
-0.7138927578926086,-5.5536932945251465,-1.9649739265441895,0
-0.5644828081130981,-4.710526466369629,-1.6703243255615234,0
-0.38437291979789734,-3.722032070159912,-1.321854591369629,0
-0.1775742471218109,-2.8013596534729004,-1.0125856399536133,0
-0.2005811482667923,-2.13504695892334,-0.8068752288818359,0
-0.25926661491394043,-1.8210444450378418,-0.7210230827331543,0
-0.33635321259498596,-1.7659387588500977,-0.7042765617370605,0
-0.5191181898117065,-1.9791336059570312,-0.8257675170898438,0
-0.797374427318573,-2.2978005409240723,-0.9513223171234131,0
-0.8433748483657837,-2.559264659881592,-1.109574556350708,0
-0.85835862159729,-2.9452757835388184,-1.2790484428405762,0
-0.8711020946502686,-3.314483642578125,-1.4097082614898682,0
-0.8673722743988037,-3.568795680999756,-1.4777934551239014,0
-0.8041096925735474,-3.808640480041504,-1.5146727561950684,0
-0.8298138976097107,-4.019585132598877,-1.4535372257232666,0
-0.8680311441421509,-4.168160915374756,-1.3422787189483643,0
-0.9235717058181763,-4.251995086669922,-1.1211824417114258,0
-1.0061709880828857,-4.3022356033325195,-0.8237514495849609,0
-1.0703951120376587,-4.311675548553467,-0.4644150733947754,0
-1.1018930673599243,-4.301900863647461,0.050200462341308594,0
-1.112559199333191,-4.215529918670654,0.5335402488708496,0
-1.2677865028381348,-4.095533847808838,0.9497108459472656,0
-1.2398929595947266,-3.9130234718322754,1.272264003753662,0
-1.2109105587005615,-3.629539966583252,1.532090663909912,0
-1.1232876777648926,-3.2950711250305176,1.7981138229370117,0
-1.0102295875549316,-2.921093463897705,2.0024075508117676,0
-0.840058445930481,-2.569007396697998,2.1314010620117188,0
-0.6861133575439453,-2.1780338287353516,2.1757874488830566,0
-0.42790716886520386,-1.6729106903076172,2.237942934036255,0
-0.005284309387207031,-1.1002402305603027,2.1230127811431885,0
0.8476183414459229,-0.33664798736572266,1.8677036762237549,0
1.8486876487731934,0.8103961944580078,1.3412275314331055,0
2.9468019008636475,2.444345474243164,0.9735739231109619,0
3.6991941928863525,4.524454116821289,0.9498920440673828,0
3.818570613861084,6.9134521484375,1.5510337352752686,0
2.507387161254883,8.694131851196289,2.880155086517334,0
0.857144832611084,9.016833305358887,4.577672958374023,0
0.4238808751106262,8.151484489440918,6.139062881469727,0
0.06640738248825073,6.834113121032715,7.0977301597595215,0
-0.4860754609107971,5.429512023925781,7.263814926147461,0
-0.8126082420349121,3.5872650146484375,7.051772594451904,0
-0.7658036947250366,1.1779193878173828,6.302689075469971,0
-0.47808143496513367,-1.7572259902954102,5.203118801116943,0
0.04186791181564331,-4.499495029449463,3.61281681060791,0
0.11546260118484497,-5.9122490882873535,1.8979558944702148,0
0.02935558557510376,-4.513683319091797,0.31023216247558594,0
-0.35757002234458923,-1.217524528503418,-0.555732250213623,0
-0.18302655220031738,2.011575698852539,-1.3899259567260742,0
-0.1195838451385498,4.859033584594727,-2.9389939308166504,0
-0.3424895107746124,7.514270782470703,-4.579360008239746,0
-0.7104222774505615,9.790724754333496,-5.525931358337402,0
-1.5319901704788208,11.422473907470703,-5.104216575622559,0
-2.662973165512085,12.679438591003418,-3.9710464477539062,0
-4.372366428375244,13.082908630371094,-3.0265355110168457,0
-6.322822093963623,12.10910415649414,-2.670546770095825,0
-7.501277923583984,9.651729583740234,-3.19468355178833,0
-6.566588401794434,6.745409965515137,-3.9201669692993164,0
-5.029000282287598,4.895224571228027,-3.657541036605835,0
-4.285854816436768,4.476356506347656,-1.5348939895629883,0
-3.5019781589508057,4.130266189575195,0.2635684013366699,0
-2.5648341178894043,3.0293188095092773,0.8993782997131348,0
-1.7198784351348877,1.418853759765625,0.572601318359375,0
-1.359711766242981,-0.35164737701416016,-0.663015604019165,0
-1.5199395418167114,-1.7701830863952637,-2.448861598968506,0
-2.1384518146514893,-2.617326259613037,-4.084102153778076,0
-2.850381374359131,-2.8259048461914062,-5.222254276275635,0
-3.2806200981140137,-2.5911865234375,-5.934967994689941,0
-3.34578800201416,-2.224935531616211,-6.25429630279541,0
-2.9958155155181885,-1.720407485961914,-6.111800193786621,0
-2.243382453918457,-0.8662605285644531,-5.476512908935547,0
-1.2035999298095703,0.011511802673339844,-4.542917728424072,0
-0.25432759523391724,0.7662162780761719,-3.776888132095337,0
0.7030627727508545,1.3804140090942383,-3.2041268348693848,0
1.596492052078247,1.6168270111083984,-2.924895763397217,0
1.9116101264953613,1.4536876678466797,-2.862206220626831,0
1.9210134744644165,0.9721393585205078,-2.9704790115356445,0
1.7137764692306519,0.41390228271484375,-3.4615776538848877,0
1.173006296157837,-0.009911537170410156,-3.9181861877441406,0
0.5512728691101074,-0.11882686614990234,-4.399342060089111,0
0.06889224052429199,0.09767627716064453,-4.584396839141846,0
-0.42052221298217773,0.45615196228027344,-4.3984575271606445,0
-0.6879895925521851,0.8493127822875977,-3.776658535003662,0
-0.7092556953430176,1.025935173034668,-2.8530211448669434,0
-0.47971755266189575,1.0648212432861328,-1.982704520225525,0
-0.25957047939300537,0.9658222198486328,-1.3675215244293213,0
-0.001499772071838379,0.6740312576293945,-1.1598107814788818,0
0.21341383457183838,0.29021644592285156,-1.2112791538238525,0
0.4095195531845093,-0.1781148910522461,-1.3025883436203003,0
0.5345884561538696,-0.6636848449707031,-1.3797550201416016,0
0.5407842397689819,-1.1328182220458984,-1.4316579103469849,0
0.45675933361053467,-1.6046829223632812,-1.4823905229568481,0
0.2468801736831665,-2.0723400115966797,-1.4477638006210327,0
0.012071490287780762,-2.4309611320495605,-1.3723700046539307,0
-0.29534590244293213,-2.695352554321289,-1.3844034671783447,0
-0.5222215056419373,-2.9017505645751953,-1.3944443464279175,0
-0.6924365758895874,-2.763535499572754,-1.372987151145935,0
-0.8468173742294312,-2.5920419692993164,-1.3843138217926025,0
-0.8996874690055847,-2.291630744934082,-1.373277187347412,0
-0.9042092561721802,-1.8696227073669434,-1.3252832889556885,0
-0.8198461532592773,-1.457601547241211,-1.4390766620635986,0
-0.70677649974823,-1.2108421325683594,-1.456552505493164,0
-0.6225067973136902,-1.0501594543457031,-1.4019707441329956,0
-0.4760626554489136,-0.9036064147949219,-1.385956048965454,0
-0.3268165588378906,-0.8764505386352539,-1.2817704677581787,0
-0.1961350440979004,-0.7438087463378906,-1.1134412288665771,0
0.09810864925384521,-0.6014595031738281,-0.8431642651557922,0
0.2424297332763672,-0.7768869400024414,-0.6223376989364624,0
0.47397780418395996,-1.0066375732421875,-0.27932536602020264,0
0.6059155464172363,-1.0108795166015625,0.044592976570129395,0
0.8537139892578125,-1.0482444763183594,0.10825800895690918,0
1.1239473819732666,-1.233506202697754,-0.07354843616485596,0
1.4790136814117432,-1.2389202117919922,-0.2234334945678711,0
1.785037636756897,-1.1556720733642578,-0.24546527862548828,0
2.0370309352874756,-1.1775445938110352,-0.3285931348800659,0
1.9427621364593506,-1.046158790588379,-0.4531291127204895,0
1.5075334310531616,-0.699798583984375,-0.2467052936553955,0
1.4935287237167358,-0.7847576141357422,0.1890859603881836,0
1.6764297485351562,-0.9872941970825195,0.1669832468032837,0
1.4860512018203735,-1.459895133972168,0.0037425756454467773,0
1.4551509618759155,-1.7931203842163086,0.03367960453033447,0
1.2844196557998657,-1.7623724937438965,-0.20232534408569336,0
0.9931684732437134,-1.5761785507202148,-0.5122731328010559,0
0.6897847652435303,-1.344832420349121,-0.6185328364372253,0
0.36921799182891846,-1.2405033111572266,-0.30370259284973145,0
0.1647036075592041,-1.215087890625,0.04184997081756592,0
0.16438567638397217,-1.1512537002563477,0.2933228611946106,0
0.1599867343902588,-1.0705375671386719,0.5125568509101868,0
0.01020514965057373,-0.9394369125366211,0.6227805614471436,0
-0.048006415367126465,-0.8943090438842773,0.7147288918495178,0
-0.012265205383300781,-0.9135570526123047,0.7884697318077087,0
-0.004781126976013184,-0.9564485549926758,0.8727176189422607,0
-0.044854164123535156,-0.8172702789306641,0.6058750152587891,0
0.03499925136566162,-0.6086521148681641,0.4258716106414795,0
0.11955749988555908,-0.44306278228759766,0.40468430519104004,0
0.11773085594177246,-0.3061180114746094,0.4446195363998413,0
0.2641866207122803,-0.1954507827758789,0.572288453578949,0
0.257082462310791,-0.14446640014648438,0.5843136310577393,0
0.3331723213195801,-0.1435079574584961,0.5619964599609375,0
0.442065954208374,-0.04665851593017578,0.44795212149620056,0
0.5045261383056641,-0.10507869720458984,0.30685484409332275,0
0.5633021593093872,-0.2611675262451172,0.09101468324661255,0
0.6659369468688965,-0.42153263092041016,-0.12050408124923706,0
0.7238336801528931,-0.4594411849975586,-0.31104138493537903,0
0.7490034103393555,-0.4252796173095703,-0.3824588656425476,0
0.7463392019271851,-0.2546062469482422,-0.3105080723762512,0
0.6658539772033691,-0.03849220275878906,-0.22636443376541138,0
0.5295480489730835,0.17274761199951172,-0.15868908166885376,0
0.33784687519073486,0.2858295440673828,-0.11472860723733902,0
0.24665415287017822,0.45386314392089844,-0.03227648138999939,0
0.144073486328125,0.6456365585327148,0.10996950417757034,0
0.06635475158691406,0.7773942947387695,0.18239690363407135,0
0.035123467445373535,0.8037710189819336,0.323453813791275,0
-0.042936086654663086,0.7081584930419922,0.42536816000938416,0
-0.09570711851119995,0.7465219497680664,0.42840576171875,0
-0.13995301723480225,0.9784736633300781,0.4548152983188629,0
-0.1613001823425293,1.2626972198486328,0.6125884652137756,0
-0.12126755714416504,1.5608539581298828,0.8494119048118591,0
0.05681025981903076,1.7581443786621094,1.0479234457015991,0
0.2386993169784546,1.8045015335083008,1.2221121788024902,0
0.4647565484046936,1.829263687133789,1.2666469812393188,0
0.7681233882904053,1.7440176010131836,1.5475519895553589,0
1.2319797277450562,1.6708793640136719,1.7843605279922485,0
1.7789424657821655,1.6385555267333984,1.8877979516983032,0
2.3052666187286377,1.7402896881103516,1.9699451923370361,0
2.7813680171966553,1.9807415008544922,2.0449721813201904,0
3.35971999168396,2.3334646224975586,2.1633622646331787,0
3.741102933883667,2.614203453063965,2.2104806900024414,0
4.136322021484375,2.846923828125,2.1623294353485107,0
4.4762115478515625,2.9551124572753906,1.9009838104248047,0
4.69150972366333,3.0393028259277344,1.4207775592803955,0
4.837499141693115,3.1449098587036133,0.921878457069397,0
4.844523906707764,3.353219985961914,0.5259478688240051,0
4.7791547775268555,3.5493831634521484,0.2808433175086975,0
4.679607391357422,3.7525854110717773,0.13678757846355438,0
4.51727294921875,3.797870635986328,0.06078873574733734,0
4.390313148498535,3.5682926177978516,-0.13142703473567963,0
4.291701316833496,3.1957168579101562,-0.3278767168521881,0
3.9826831817626953,2.7305421829223633,-0.5747333765029907,0
3.696040630340576,2.39047908782959,-0.7123608589172363,0
3.2738921642303467,1.9315500259399414,-0.7846300601959229,0
2.8170485496520996,1.5309257507324219,-0.8543846607208252,0
2.307049036026001,1.260331153869629,-1.0634523630142212,0
1.797623872756958,1.0957565307617188,-1.4436222314834595,0
1.3542704582214355,0.8913183212280273,-1.9382911920547485,0
0.9349992275238037,0.6256828308105469,-2.42374849319458,0
0.4309474229812622,0.44733619689941406,-2.8045268058776855,0
-0.2025313377380371,0.2774696350097656,-3.101649045944214,0
-0.8666923642158508,0.0731964111328125,-3.181976079940796,0
-1.6018182039260864,-0.04578399658203125,-3.0722079277038574,0
-2.2761309146881104,-0.16084957122802734,-2.7990264892578125,0
-2.8823418617248535,-0.27677249908447266,-2.4712047576904297,0
-3.327014446258545,-0.3815889358520508,-2.0544896125793457,0
-3.725667715072632,-0.3892345428466797,-1.5046788454055786,0
-3.897825002670288,-0.3238840103149414,-0.8794606924057007,0
-4.024852275848389,-0.013703346252441406,-0.34161627292633057,0
-4.035044193267822,0.41641902923583984,0.1299598217010498,0
-3.880549907684326,0.8990993499755859,0.4721207618713379,0
-3.5102498531341553,1.3645553588867188,0.609565258026123,0
-3.011317491531372,1.7120552062988281,0.5358046293258667,0
-2.6117146015167236,1.9536161422729492,0.19533228874206543,0
-2.4310009479522705,2.2210912704467773,-0.33234310150146484,0
-2.390929937362671,2.3740386962890625,-0.8360192775726318,0
-2.2954225540161133,2.375242233276367,-1.181870937347412,0
-2.1330361366271973,2.368968963623047,-1.2485564947128296,0
-2.0419042110443115,2.209674835205078,-1.013245940208435,0
-1.9740207195281982,2.227604866027832,-0.6121324300765991,0
-1.7253578901290894,2.3004026412963867,-0.1684861183166504,0
-1.3766343593597412,2.365365982055664,0.20973610877990723,0
-1.0881255865097046,2.4029455184936523,0.3140432834625244,0
-0.8483656644821167,2.4989213943481445,0.15809011459350586,0
-0.6966567039489746,2.4426393508911133,-0.3407461643218994,0
-0.571481466293335,2.183995246887207,-0.9761238098144531,0
-0.41290730237960815,1.9121513366699219,-1.693081021308899,0
-0.43427345156669617,1.713181495666504,-2.180637836456299,0
-0.20279598236083984,1.3215208053588867,-2.45572566986084,0
-0.13769006729125977,0.8689565658569336,-2.6263315677642822,0
-0.08810895681381226,0.35793209075927734,-2.668708562850952,0
0.07748013734817505,-0.2521381378173828,-2.764784336090088,0
0.27751100063323975,-0.8872642517089844,-2.7082886695861816,0
0.35396140813827515,-1.4305853843688965,-2.5513176918029785,0
0.28495603799819946,-2.054790496826172,-2.3050780296325684,0
0.19735586643218994,-2.535527229309082,-1.9926576614379883,0
0.045934200286865234,-3.172288417816162,-1.7593622207641602,0
-0.08472311496734619,-3.7572479248046875,-1.602276086807251,0
-0.2008189857006073,-4.305126667022705,-1.597625494003296,0
-0.20053118467330933,-5.024202346801758,-1.6735777854919434,0
-0.31417933106422424,-5.95975399017334,-1.8495776653289795,0
-0.452336847782135,-6.611786365509033,-2.075608015060425,0
-0.6248244047164917,-7.164592742919922,-2.309074878692627,0
-0.702430248260498,-7.2668352127075195,-2.2631418704986572,0
-0.975149929523468,-6.632412433624268,-2.193554162979126,0
-0.8244202136993408,-5.649768352508545,-2.0761208534240723,0
-0.7139531373977661,-4.524995803833008,-1.874915599822998,0
-0.5999719500541687,-3.5905051231384277,-1.6499834060668945,0
-0.5573083758354187,-2.8578124046325684,-1.4471986293792725,0
-0.6140997409820557,-2.5014872550964355,-1.368992805480957,0
-0.7221707701683044,-2.303676128387451,-1.3168997764587402,0
-0.8405203819274902,-2.3000998497009277,-1.2932629585266113,0
-1.119152545928955,-2.5885252952575684,-1.365147590637207,0
-1.2854835987091064,-2.8051419258117676,-1.3889470100402832,0
-1.3446563482284546,-2.976473331451416,-1.3453168869018555,0
-1.418809175491333,-3.119278907775879,-1.318058967590332,0
-1.3339558839797974,-3.412902355194092,-1.2616541385650635,0
-1.3227039575576782,-3.7423343658447266,-1.2215416431427002,0
-1.3540788888931274,-4.054849147796631,-1.1403388977050781,0
-1.3659290075302124,-4.266741752624512,-0.9797825813293457,0
-1.4086048603057861,-4.468941688537598,-0.7734074592590332,0
-1.4462007284164429,-4.58485221862793,-0.4806244373321533,0
-1.3902111053466797,-4.676721572875977,-0.12292337417602539,0
-1.4105312824249268,-4.713439464569092,0.2543044090270996,0
-1.4423789978027344,-4.764184951782227,0.5551662445068359,0
-1.3828729391098022,-4.692348957061768,0.8129005432128906,0
-1.3513880968093872,-4.514438152313232,0.9935250282287598,0
-1.347879409790039,-4.268476486206055,1.1898794174194336,0
-1.4580981731414795,-3.8799853324890137,1.362938404083252,0
-1.3681070804595947,-3.4777631759643555,1.595445156097412,0
-1.2138181924819946,-3.0468835830688477,1.85731840133667,0
-0.846271276473999,-2.5674524307250977,2.1393818855285645,0
-0.2986457049846649,-2.028560161590576,2.0410921573638916,0
0.36282116174697876,-1.2397527694702148,1.694676399230957,0
1.1437633037567139,-0.14717483520507812,1.1483452320098877,0
2.0918643474578857,1.673243522644043,0.7834882736206055,0
2.8797531127929688,4.209576606750488,0.6761012077331543,0
3.3700332641601562,7.262581825256348,1.2012922763824463,0
2.649282932281494,10.043989181518555,2.4549620151519775,0
0.9569408297538757,11.54533576965332,4.772666931152344,0
0.16591250896453857,10.838004112243652,6.911269187927246,0
-0.2831495702266693,9.450989723205566,8.049890518188477,0
-0.8208814859390259,8.269227981567383,8.027849197387695,0
-0.8637211322784424,7.08662223815918,7.3954877853393555,0
-0.6213737726211548,5.504142761230469,6.588945388793945,0
-0.46099311113357544,3.413508415222168,5.186748504638672,0
0.16353672742843628,1.3233137130737305,3.6511008739471436,0
1.069534182548523,0.39081478118896484,2.4270315170288086,0
1.1482818126678467,1.412912368774414,1.4061708450317383,0
0.8853923678398132,3.533397674560547,0.03398609161376953,0
0.5021747350692749,5.719679832458496,-2.1159560680389404,0
0.056834518909454346,7.231908798217773,-3.7677001953125,0
-0.2633853554725647,7.988293647766113,-4.242555141448975,0
-0.7091161012649536,7.410098075866699,-4.251029968261719,0
-1.7723102569580078,6.288529396057129,-4.283366680145264,0
-3.178605318069458,5.135894775390625,-4.433536052703857,0
-4.87607479095459,4.4112091064453125,-4.348700046539307,0
-6.63873815536499,4.172390937805176,-4.451331615447998,0
-7.747003078460693,4.694902420043945,-4.3023152351379395,0
-7.595541954040527,5.229057312011719,-2.8230323791503906,0
-5.9746479988098145,5.021446228027344,-0.26450085639953613,0
-4.408888816833496,3.9744205474853516,0.9669594764709473,0
-3.044650077819824,2.517547607421875,1.10819673538208,0
-2.5145368576049805,1.066554069519043,0.31169915199279785,0
-2.7382068634033203,-0.24828624725341797,-1.1798691749572754,0
-2.9171061515808105,-1.1240782737731934,-2.564324378967285,0
-3.119962692260742,-1.6149044036865234,-3.293449878692627,0
-2.9385156631469727,-1.7553319931030273,-3.4273228645324707,0
-2.4244072437286377,-1.563910961151123,-3.341867208480835,0
-1.798039197921753,-1.0360641479492188,-3.2980241775512695,0
-0.9394185543060303,-0.42113780975341797,-3.395172595977783,0
0.04525423049926758,0.1630697250366211,-3.571798324584961,0
0.8705165386199951,0.5390520095825195,-3.75419282913208,0
1.3748540878295898,0.5512685775756836,-4.038728713989258,0
1.7394955158233643,0.3053436279296875,-4.326411247253418,0
2.065796375274658,-0.17395877838134766,-4.814186096191406,0
2.0636935234069824,-0.6127471923828125,-5.214990615844727,0
1.81069016456604,-0.7611608505249023,-5.657099723815918,0
1.317628026008606,-0.5133743286132812,-5.747316360473633,0
0.5753616094589233,-0.0702667236328125,-5.486268997192383,0
-0.16405951976776123,0.34797191619873047,-4.837080001831055,0
-0.7602158784866333,0.6307411193847656,-3.6647257804870605,0
-1.052706241607666,0.5383415222167969,-2.361673355102539,0
-1.1731311082839966,0.08754348754882812,-1.2656207084655762,0
-1.1161524057388306,-0.608922004699707,-0.5786426067352295,0
-0.9758710265159607,-1.3234539031982422,-0.2621479034423828,0
-0.8150003552436829,-2.0867133140563965,-0.24275422096252441,0
-0.6459105014801025,-2.759648323059082,-0.35608577728271484,0
-0.3584277033805847,-3.3159170150756836,-0.545326828956604,0
-0.03838694095611572,-3.684009075164795,-0.7028039693832397,0
0.12567472457885742,-3.7136969566345215,-0.8903554677963257,0
0.21560931205749512,-3.549065589904785,-1.0643991231918335,0
0.27713799476623535,-3.063793659210205,-1.360748529434204,0
0.3940788507461548,-2.3084702491760254,-1.8631325960159302,0
0.3486441373825073,-1.4986028671264648,-2.205570936203003,0
0.15756261348724365,-0.7896480560302734,-2.6035561561584473,0
0.026091337203979492,-0.11688804626464844,-2.7532472610473633,0
-0.1871398687362671,0.2542753219604492,-2.8173115253448486,0
-0.3196280002593994,0.42457008361816406,-2.7021594047546387,0
-0.45526570081710815,0.41570186614990234,-2.4196081161499023,0
-0.5244750380516052,0.30197715759277344,-2.153886318206787,0
-0.5295407176017761,-0.1054220199584961,-1.947861671447754,0
-0.551655650138855,-0.3423032760620117,-1.8108490705490112,0
-0.37765514850616455,-0.5236997604370117,-1.6183600425720215,0
-0.1414738893508911,-0.7643871307373047,-1.3303139209747314,0
0.049456119537353516,-1.1358890533447266,-1.010010004043579,0
0.15217995643615723,-1.260232925415039,-0.6433698534965515,0
0.2605102062225342,-1.2549753189086914,-0.4408921003341675,0
0.3007241487503052,-1.1729927062988281,-0.45238733291625977,0
0.36885643005371094,-1.0168476104736328,-0.5268403887748718,0
0.574917197227478,-1.0927143096923828,-0.6235759258270264,0
0.7874093055725098,-1.032118797302246,-0.6253696084022522,0
0.8962893486022949,-0.9189252853393555,-0.6471688151359558,0
1.105031967163086,-0.937291145324707,-0.7275843024253845,0
1.1289892196655273,-0.9268226623535156,-0.9530582427978516,0
0.8914604187011719,-0.9257955551147461,-1.1892807483673096,0
0.773127555847168,-0.9104394912719727,-1.1531800031661987,0
0.7118589878082275,-1.0004987716674805,-0.8437901735305786,0
0.8293962478637695,-1.2580757141113281,-0.7244805097579956,0
0.8189539909362793,-1.4388999938964844,-0.7478744983673096,0
0.8213289976119995,-1.6170692443847656,-0.7947357892990112,0
0.9314554929733276,-1.596419334411621,-0.7836164236068726,0
0.9286701679229736,-1.391526222229004,-0.7808118462562561,0
0.8872785568237305,-1.2441768646240234,-0.7496355175971985,0
0.7717475891113281,-0.8936519622802734,-0.7311217784881592,0
0.6516550779342651,-0.6246824264526367,-0.656688928604126,0
0.5201758146286011,-0.4754066467285156,-0.5009357929229736,0
0.4089393615722656,-0.4456968307495117,-0.30056872963905334,0
0.3011596202850342,-0.5066814422607422,-0.19255417585372925,0
0.24256563186645508,-0.5698280334472656,-0.03822094202041626,0
0.12790751457214355,-0.5371160507202148,0.047620415687561035,0
0.1318676471710205,-0.45412731170654297,0.1464335322380066,0
0.17792367935180664,-0.2898702621459961,0.20570647716522217,0
0.13918960094451904,-0.27161216735839844,0.2761021554470062,0
0.05614662170410156,-0.24131393432617188,0.19462144374847412,0
0.04351019859313965,-0.1870250701904297,0.042484015226364136,0
0.16587090492248535,-0.21401596069335938,0.11427925527095795,0
0.12423598766326904,-0.24091243743896484,0.2596921920776367,0
0.18661832809448242,-0.18402671813964844,0.3498295545578003,0
0.17352521419525146,-0.1414957046508789,0.39207330346107483,0
0.21192634105682373,-0.024834632873535156,0.4078596532344818,0
0.2681037187576294,0.0032968521118164062,0.4594222903251648,0
0.40644800662994385,0.09605979919433594,0.48666396737098694,0
0.5477842092514038,0.24622058868408203,0.49895960092544556,0
0.6797567009925842,0.4824371337890625,0.5175285935401917,0
0.7856511473655701,0.7089471817016602,0.5971361398696899,0
0.9178789854049683,0.9735927581787109,0.6225361824035645,0
1.0403910875320435,1.1711101531982422,0.6676758527755737,0
1.13376784324646,1.3350696563720703,0.737282395362854,0
1.1858477592468262,1.412907600402832,0.6829692721366882,0
1.2923542261123657,1.4620981216430664,0.5982667207717896,0
1.3936023712158203,1.4683046340942383,0.5479409694671631,0
1.4083919525146484,1.4028739929199219,0.5536761283874512,0
1.3797211647033691,1.363936424255371,0.5390646457672119,0
1.3626160621643066,1.3179826736450195,0.6119998693466187,0
1.3665943145751953,1.3798036575317383,0.746475100517273,0
1.357956886291504,1.4392948150634766,0.9809728264808655,0
1.504349946975708,1.4390525817871094,1.3131694793701172,0
1.7508809566497803,1.4149951934814453,1.5826634168624878,0
1.956329584121704,1.309737205505371,1.7220606803894043,0
2.211378812789917,1.2596635818481445,1.8004320859909058,0
2.462968349456787,1.2551374435424805,1.7912012338638306,0
2.7826614379882812,1.210012435913086,1.7852137088775635,0
2.971662759780884,1.2319374084472656,1.753713846206665,0
3.144998073577881,1.256265640258789,1.7758612632751465,0
3.247748851776123,1.3618803024291992,1.7797801494598389,0
3.27778959274292,1.5223312377929688,1.7147668600082397,0
3.3071136474609375,1.689692497253418,1.7383761405944824,0
3.1229095458984375,1.7993669509887695,1.7831443548202515,0
3.072279930114746,1.896834373474121,1.8631763458251953,0
2.949784517288208,1.852956771850586,1.8442530632019043,0
2.812837600708008,1.8830842971801758,1.6827876567840576,0
2.7973783016204834,1.8818960189819336,1.421226978302002,0
2.759549617767334,1.913996696472168,1.2481789588928223,0
2.789763927459717,1.998509407043457,1.046150803565979,0
2.7129318714141846,2.233448028564453,0.8772387504577637,0
2.6505045890808105,2.625864028930664,0.6410048604011536,0
2.6357321739196777,3.0130252838134766,0.421255499124527,0
2.503321647644043,3.0124120712280273,0.07873760163784027,0
2.4303441047668457,2.894754409790039,-0.3704666197299957,0
2.3976240158081055,2.665066719055176,-0.8241654634475708,0
2.2974631786346436,2.392949104309082,-1.3046085834503174,0
2.0848755836486816,2.1766357421875,-1.6780370473861694,0
1.8151894807815552,1.8655986785888672,-1.8676416873931885,0
1.5103673934936523,1.4218721389770508,-1.980232834815979,0
1.0824357271194458,0.9055643081665039,-2.2524304389953613,0
0.6735237240791321,0.43170166015625,-2.6964974403381348,0
0.1485106348991394,0.0745382308959961,-3.0953383445739746,0
-0.36417198181152344,-0.23047542572021484,-3.173792839050293,0
-1.0282089710235596,-0.3494129180908203,-2.7632205486297607,0
-1.6576474905014038,-0.5073413848876953,-2.184382915496826,0
-2.2799835205078125,-0.6493558883666992,-1.6478989124298096,0
-2.978154182434082,-0.6488990783691406,-1.2094473838806152,0
-3.5753021240234375,-0.5302619934082031,-0.7402328848838806,0
-4.080479621887207,-0.38948631286621094,-0.2810251712799072,0
-4.223400115966797,-0.2770986557006836,0.19871151447296143,0
-4.287155628204346,-0.08796405792236328,0.5078853368759155,0
-3.9411964416503906,0.31888675689697266,0.7247182130813599,0
-3.4956612586975098,0.7926406860351562,0.8669639825820923,0
-3.052464485168457,1.3190574645996094,0.9091570377349854,0
-2.5698678493499756,1.7285051345825195,0.9050284624099731,0
-2.2108640670776367,1.9448328018188477,0.8269840478897095,0
-2.0339784622192383,2.0976057052612305,0.7193303108215332,0
-2.0541069507598877,2.1679515838623047,0.6505393981933594,0
-2.207247257232666,2.175182342529297,0.5556962490081787,0
-2.302795648574829,2.1503963470458984,0.432811975479126,0
-2.425769090652466,2.162838935852051,0.22040271759033203,0
-2.594569444656372,2.169276237487793,-0.049713850021362305,0
-2.5719738006591797,2.1697072982788086,-0.4586918354034424,0
-2.437039375305176,2.305384635925293,-0.9614524841308594,0
-1.7941193580627441,2.2008466720581055,-1.2976341247558594,0
-1.3567135334014893,1.9448366165161133,-1.5699212551116943,0
-1.1314582824707031,1.8241033554077148,-1.6812188625335693,0
-0.8723263740539551,1.8735322952270508,-1.7940120697021484,0
-0.28686627745628357,2.0256547927856445,-2.108428955078125,0
0.1300864815711975,1.80487060546875,-2.408055067062378,0
0.20703378319740295,1.101792335510254,-2.435286521911621,0
0.13520726561546326,0.3687562942504883,-2.1661412715911865,0
-0.02838793396949768,-0.23200225830078125,-1.7626538276672363,0
-0.054457396268844604,-0.8681678771972656,-1.583465576171875,0
0.015941739082336426,-1.5110297203063965,-1.3988473415374756,0
0.2211301028728485,-2.234910011291504,-1.1774044036865234,0
0.3247167468070984,-2.7291407585144043,-1.1267616748809814,0
0.11918893456459045,-3.1282501220703125,-1.1911473274230957,0
-0.001507103443145752,-3.5308589935302734,-1.4127492904663086,0
-0.0379638671875,-3.8847098350524902,-1.7671291828155518,0
-0.134922057390213,-4.340609073638916,-2.2160463333129883,0
-0.025654584169387817,-4.898420333862305,-2.5613486766815186,0
0.06009644269943237,-5.562692642211914,-2.8394997119903564,0
0.3308049440383911,-6.065471649169922,-2.8165409564971924,0
0.2490461766719818,-6.586202621459961,-2.7874059677124023,0
0.15269261598587036,-6.892812252044678,-2.745330810546875,0
-0.07557797431945801,-6.861236572265625,-2.6425890922546387,0
-0.17971476912498474,-6.671388626098633,-2.3762032985687256,0
-0.42380955815315247,-6.0198445320129395,-2.137528419494629,0
-0.32798200845718384,-5.244594573974609,-1.8518192768096924,0
-0.35240626335144043,-4.556379318237305,-1.6383261680603027,0
-0.4335581362247467,-4.005383014678955,-1.4130191802978516,0
-0.4790772795677185,-3.7325310707092285,-1.2666549682617188,0
-0.601919412612915,-3.656135082244873,-1.1250486373901367,0
-0.6685999631881714,-3.5941944122314453,-1.038412094116211,0
-0.7560577392578125,-3.5609397888183594,-0.9709484577178955,0
-0.7927237749099731,-3.5850319862365723,-0.8866982460021973,0
-0.7406152486801147,-3.7070350646972656,-0.7927868366241455,0
-0.7362544536590576,-3.8621387481689453,-0.68461012840271,0
-0.6503676176071167,-3.956880569458008,-0.49787044525146484,0
-0.6674063205718994,-3.96486234664917,-0.3046095371246338,0
-0.7680648565292358,-3.8214573860168457,-0.12420272827148438,0
-0.7966901063919067,-3.605600357055664,0.13402652740478516,0
-0.8514333367347717,-3.3291802406311035,0.4363231658935547,0
-0.7337338924407959,-3.059023380279541,0.7990913391113281,0
-0.6588555574417114,-2.7374815940856934,1.1740145683288574,0
-0.6123567819595337,-2.342648506164551,1.4502143859863281,0
-0.624858021736145,-1.8669376373291016,1.6075859069824219,0
-0.6023820638656616,-1.345759391784668,1.7621088027954102,0
-0.44788068532943726,-0.7809457778930664,1.8953545093536377,0
-0.3134029805660248,-0.11685943603515625,2.0603585243225098,0
-0.08260521292686462,0.6925382614135742,2.305037260055542,0
0.25540685653686523,1.6742820739746094,2.5595126152038574,0
0.6480823755264282,2.807734489440918,2.796722412109375,0
1.2262568473815918,4.282647132873535,2.9827606678009033,0
1.5116922855377197,5.9607343673706055,3.1373395919799805,0
1.1735572814941406,7.428460121154785,3.4539198875427246,0
0.738540530204773,7.674007415771484,4.17139196395874,0
0.9068579077720642,6.58493709564209,5.198101997375488,0
0.8361927270889282,5.203561782836914,5.933722019195557,0
0.5466122031211853,4.009269714355469,6.167387962341309,0
0.2870215177536011,2.6300010681152344,6.036158561706543,0
0.35708916187286377,1.1223869323730469,5.771720886230469,0
0.6186986565589905,-0.784092903137207,5.290927886962891,0
0.7577967047691345,-2.744770050048828,4.7373576164245605,0
0.7356029748916626,-4.345765590667725,3.8787970542907715,0
0.5579603314399719,-4.934516906738281,1.9190144538879395,0
0.4178387522697449,-3.5801310539245605,-0.32680797576904297,0
0.0949062705039978,-0.8460202217102051,-1.1863212585449219,0
-0.2011120319366455,1.998112678527832,-1.542149543762207,0
-0.6069632768630981,4.7239274978637695,-2.865234851837158,0
-0.6299980878829956,7.355958938598633,-4.327144145965576,0
-0.8330409526824951,9.52603530883789,-4.743167877197266,0
-1.4190843105316162,11.479482650756836,-3.9484951496124268,0
-2.808420181274414,12.349162101745605,-3.010061740875244,0
-4.195248603820801,12.305554389953613,-2.6092357635498047,0
-5.581712245941162,10.89541244506836,-2.550804615020752,0
-6.200944900512695,8.905633926391602,-2.606058120727539,0
-6.236270427703857,7.437614440917969,-2.386012554168701,0
-5.776583194732666,6.716835021972656,-0.8159685134887695,0
-4.897014617919922,6.201605796813965,1.2922251224517822,0
-3.750558853149414,5.196188926696777,1.9176688194274902,0
-2.821784496307373,3.6369457244873047,1.188110113143921,0
-2.6691834926605225,1.8517999649047852,-0.659813642501831,0
-2.8627748489379883,0.20557212829589844,-2.5114705562591553,0
-2.8810017108917236,-0.8048858642578125,-3.690751075744629,0
-2.671149730682373,-1.057896614074707,-4.243429660797119,0
-2.3652191162109375,-0.9469995498657227,-4.435387134552002,0
-1.9461874961853027,-0.6610031127929688,-4.526719570159912,0
-1.5700024366378784,-0.25051212310791016,-4.627137660980225,0
-1.1978510618209839,0.17364215850830078,-4.765763759613037,0
-0.5117680430412292,0.3711404800415039,-4.829236030578613,0
0.23448902368545532,0.2956523895263672,-4.902718544006348,0
0.6991618275642395,0.020885467529296875,-5.086546897888184,0
0.9551170468330383,-0.5199966430664062,-5.40349006652832,0
0.9584482908248901,-1.1015653610229492,-5.650230407714844,0
0.850974440574646,-1.6873302459716797,-5.626938343048096,0
0.6611785292625427,-1.912731647491455,-5.73358154296875,0
0.37714701890945435,-1.6144495010375977,-5.542840003967285,0
0.11122256517410278,-0.8878631591796875,-5.086686134338379,0
-0.0832398533821106,-0.02713489532470703,-4.422065734863281,0
-0.31496670842170715,0.8336982727050781,-3.4320948123931885,0
-0.24843400716781616,1.2400951385498047,-2.3720173835754395,0
-0.16274958848953247,1.2114934921264648,-1.4248977899551392,0
0.010782778263092041,0.9109106063842773,-0.7477450370788574,0
0.21968334913253784,0.422515869140625,-0.39801740646362305,0
0.3688342571258545,-0.2173023223876953,-0.4265875816345215,0
0.4902750849723816,-0.9554405212402344,-0.46138453483581543,0
0.5228807330131531,-1.550008773803711,-0.5565128326416016,0
0.5944693088531494,-2.163754463195801,-0.6409629583358765,0
0.7057713270187378,-2.780064582824707,-0.7674943208694458,0
0.7307798862457275,-3.344163417816162,-0.9454636573791504,0
0.6891440153121948,-3.653108596801758,-1.19115149974823,0
0.5953754186630249,-3.7313356399536133,-1.4513922929763794,0
0.47102999687194824,-3.5433950424194336,-1.699589490890503,0
0.3231624364852905,-3.183039665222168,-1.834760069847107,0
4.178285598754883E-4,-2.7103171348571777,-2.0048258304595947,0
-0.30409348011016846,-2.051298141479492,-1.948571801185608,0
-0.40653377771377563,-1.5003776550292969,-2.079610824584961,0
-0.4866892099380493,-1.0741596221923828,-2.141791820526123,0
-0.6909573078155518,-0.7485380172729492,-2.113626480102539,0
-0.7894922494888306,-0.5091447830200195,-2.0330753326416016,0
-0.7705813646316528,-0.4754972457885742,-1.899768352508545,0
-0.6109658479690552,-0.5253973007202148,-1.6846823692321777,0
-0.34459125995635986,-0.42681217193603516,-1.4832402467727661,0
0.06219291687011719,-0.42845726013183594,-1.1888290643692017,0
0.32716262340545654,-0.35082340240478516,-0.8019958734512329,0
0.44307827949523926,-0.4211616516113281,-0.327498197555542,0
0.5289943218231201,-0.38331127166748047,-0.08376538753509521,0
0.7259365320205688,-0.15613269805908203,0.013353109359741211,0
0.874010443687439,0.047165870666503906,0.01737356185913086,0
1.0504385232925415,0.09972381591796875,0.04858863353729248,0
1.1338516473770142,-0.015074729919433594,-0.08674347400665283,0
1.3021385669708252,-0.3042325973510742,-0.26935023069381714,0
1.459980845451355,-0.7555389404296875,-0.4712647795677185,0
1.5788648128509521,-0.8475131988525391,-0.6331523656845093,0
1.5678764581680298,-0.984736442565918,-0.7212909460067749,0
1.5161014795303345,-1.0262336730957031,-0.758914589881897,0
1.486293077468872,-0.9865894317626953,-0.8293501734733582,0
1.267293930053711,-1.2077350616455078,-0.8846189975738525,0
1.2802356481552124,-1.3617877960205078,-0.8359686136245728,0
1.211583137512207,-1.4296464920043945,-0.7939905524253845,0
1.1066718101501465,-1.368300437927246,-0.8069717288017273,0
1.0345003604888916,-1.3141088485717773,-0.741462767124176,0
0.9444397687911987,-1.2119979858398438,-0.6361658573150635,0
0.8576630353927612,-0.9352521896362305,-0.40752336382865906,0
0.6950867176055908,-0.6729602813720703,-0.18744271993637085,0
0.549956202507019,-0.5231304168701172,-0.004837691783905029,0
0.4270915985107422,-0.4138975143432617,0.10168534517288208,0
0.32403814792633057,-0.3643455505371094,0.1965455412864685,0
0.2194662094116211,-0.44618701934814453,0.2726755440235138,0
0.17563891410827637,-0.5612649917602539,0.33023393154144287,0
0.13497698307037354,-0.5947771072387695,0.3553152084350586,0
0.15005767345428467,-0.6735782623291016,0.4345256984233856,0
0.15625786781311035,-0.7187261581420898,0.5205207467079163,0
0.1656116247177124,-0.8067970275878906,0.6664018034934998,0
0.15664935111999512,-0.8157997131347656,0.7985896468162537,0
0.13634395599365234,-0.8629627227783203,0.8287658095359802,0
0.11418163776397705,-0.7425756454467773,0.7043606042861938,0
0.14549052715301514,-0.662898063659668,0.6840363144874573,0
0.13214731216430664,-0.6310338973999023,0.7223091125488281,0
0.17222380638122559,-0.6229896545410156,0.7040242552757263,0
0.24667978286743164,-0.6483030319213867,0.7270782589912415,0
0.2885584831237793,-0.6256237030029297,0.7577906250953674,0
0.3409256935119629,-0.6076078414916992,0.6954429745674133,0
0.31035447120666504,-0.5846624374389648,0.6379944086074829,0
0.3069865107536316,-0.5089712142944336,0.585392415523529,0
0.3308614492416382,-0.31604671478271484,0.5445036888122559,0
0.252618670463562,-0.15666675567626953,0.46469300985336304,0
0.24430549144744873,0.05051708221435547,0.45335960388183594,0
0.19557732343673706,0.37239837646484375,0.5101647973060608,0
0.2736791968345642,0.7801427841186523,0.6899701356887817,0
0.33714425563812256,1.2473373413085938,0.8610057830810547,0
0.5341365933418274,1.6232566833496094,1.056687831878662,0
0.809480607509613,1.8147287368774414,1.2600809335708618,0
1.0842633247375488,1.7908668518066406,1.358661413192749,0
1.2482962608337402,1.6140985488891602,1.3788132667541504,0
1.3684371709823608,1.4567813873291016,1.371035099029541,0
1.5596882104873657,1.3595218658447266,1.2613884210586548,0
1.5565264225006104,1.377232551574707,1.1194703578948975,0
1.6078784465789795,1.624558448791504,1.0652731657028198,0
1.6109601259231567,1.9577617645263672,1.0680363178253174,0
1.6498138904571533,2.2858524322509766,1.0655255317687988,0
1.6841164827346802,2.4892568588256836,1.146243929862976,0
1.7095502614974976,2.618316650390625,1.1522116661071777,0
1.905894160270691,2.6515331268310547,1.1068741083145142,0
1.9455771446228027,2.550731658935547,1.1558125019073486,0
1.9746252298355103,2.3519229888916016,1.248430609703064,0
1.9544200897216797,2.165217399597168,1.3772832155227661,0
1.9349873065948486,1.9451732635498047,1.5637803077697754,0
1.9066133499145508,1.7970190048217773,1.7932584285736084,0
1.909365177154541,1.7804203033447266,1.888321876525879,0
1.9233932495117188,1.8975753784179688,1.980207920074463,0
2.079694986343384,1.9881134033203125,2.1574134826660156,0
2.2773749828338623,2.1094541549682617,2.2596778869628906,0
2.4995405673980713,2.122860908508301,2.3325095176696777,0
2.74111270904541,2.1169090270996094,2.193922519683838,0
2.9250094890594482,2.1824169158935547,1.8434596061706543,0
3.010413885116577,2.1973133087158203,1.6157269477844238,0
2.930265426635742,2.168855667114258,1.4676878452301025,0
2.9022600650787354,2.214292526245117,1.3540031909942627,0
2.9000418186187744,2.3024539947509766,1.1214914321899414,0
3.0099563598632812,2.4261369705200195,0.8300500512123108,0
3.102557420730591,2.3557538986206055,0.40287312865257263,0
3.2063775062561035,2.2182931900024414,-0.033567726612091064,0
3.3455557823181152,2.092775344848633,-0.441342830657959,0
3.2615628242492676,1.981602668762207,-0.842786967754364,0
3.1818883419036865,1.870509147644043,-1.1063544750213623,0
2.980084180831909,1.6233110427856445,-1.3899476528167725,0
2.6228089332580566,1.3096494674682617,-1.6431329250335693,0
2.2228617668151855,1.0373430252075195,-1.8321354389190674,0
1.608320951461792,0.6558341979980469,-1.9352067708969116,0
0.9208155870437622,0.28734588623046875,-1.9423291683197021,0
0.34268873929977417,-0.024987220764160156,-1.9157744646072388,0
-0.18231387436389923,-0.36722469329833984,-1.8918498754501343,0
-0.4731818437576294,-0.5814228057861328,-1.9787366390228271,0
-0.8298667669296265,-0.7656660079956055,-2.1361005306243896,0
-1.3519046306610107,-0.7213878631591797,-2.050443410873413,0
-1.846954345703125,-0.6806955337524414,-1.713808536529541,0
-2.3501884937286377,-0.6722211837768555,-1.2731046676635742,0
-2.8565590381622314,-0.62896728515625,-0.8271450996398926,0
-3.349714994430542,-0.6586618423461914,-0.3951694965362549,0
-3.71128511428833,-0.6537685394287109,-0.008514344692230225,0
-3.8285369873046875,-0.6145038604736328,0.17896819114685059,0
-3.747000217437744,-0.5315446853637695,0.278589129447937,0
-3.495424747467041,-0.3166770935058594,0.3364766836166382,0
-2.991520881652832,-0.13276958465576172,0.368893027305603,0
-2.4129042625427246,0.08246326446533203,0.3477764129638672,0
-1.9271278381347656,0.26218414306640625,0.33349084854125977,0
-1.4951269626617432,0.45930957794189453,0.3238699436187744,0
-1.2929677963256836,0.6789646148681641,0.36446666717529297,0
-1.4277853965759277,0.8496494293212891,0.5593286752700806,0
-1.5513592958450317,1.0241527557373047,0.7359391450881958,0
-1.5899369716644287,1.1666288375854492,0.9018073081970215,0
-1.6994529962539673,1.332122802734375,0.8683805465698242,0
-1.7135790586471558,1.5205841064453125,0.6914057731628418,0
-1.6556856632232666,1.808527946472168,0.33786940574645996,0
-1.293026328086853,2.018819808959961,-0.1507267951965332,0
-0.8777764439582825,1.965010643005371,-0.6182428598403931,0
-0.831346869468689,1.941267967224121,-1.0107122659683228,0
-0.5680426955223083,1.9544143676757812,-1.4274405241012573,0
-0.2304142862558365,1.8559999465942383,-1.7628252506256104,0
0.06569909304380417,1.851944923400879,-2.1946303844451904,0
0.1981157809495926,1.5264158248901367,-2.422694683074951,0
0.3011258840560913,1.0423860549926758,-2.2798237800598145,0
0.06803127378225327,0.29921627044677734,-1.8202627897262573,0
-0.06591558456420898,-0.4331483840942383,-1.2078633308410645,0
-0.26151803135871887,-1.2700729370117188,-0.6279559135437012,0
-0.3174310624599457,-2.090188503265381,-0.0956885814666748,0
-0.5942028760910034,-2.606945037841797,-0.08393502235412598,0
-0.8110126256942749,-2.981228828430176,-0.2617619037628174,0
-0.9667493104934692,-3.3400516510009766,-0.6123881340026855,0
-0.9809252619743347,-3.721700668334961,-1.0212104320526123,0
-0.8521756529808044,-4.123657703399658,-1.4791953563690186,0
-0.6304623484611511,-4.497953414916992,-1.8912265300750732,0
-0.4352865517139435,-5.071707725524902,-2.0664873123168945,0
-0.34351447224617004,-5.476011276245117,-2.2120676040649414,0
-0.2910614609718323,-5.553112506866455,-2.1108851432800293,0
-0.2924455404281616,-5.380011081695557,-1.9664251804351807,0
-0.2562674880027771,-5.191662788391113,-1.7303473949432373,0
-0.388564795255661,-4.701371669769287,-1.5530486106872559,0
-0.47407910227775574,-4.000611782073975,-1.3121311664581299,0
-0.46262645721435547,-3.3434882164001465,-1.1289279460906982,0
-0.4980012774467468,-2.866474151611328,-1.0077741146087646,0
-0.5925754904747009,-2.6817269325256348,-1.0156428813934326,0
-0.6630381345748901,-2.645495891571045,-1.0494673252105713,0
-0.7283605337142944,-2.7862839698791504,-1.169060468673706,0
-0.8723907470703125,-3.082301616668701,-1.2309901714324951,0
-0.9041587114334106,-3.3947510719299316,-1.2303943634033203,0
-0.9149116277694702,-3.7882471084594727,-1.2389318943023682,0
-0.8692988157272339,-4.202947616577148,-1.2349729537963867,0
-0.8417925834655762,-4.612502098083496,-1.2209279537200928,0
-0.782477855682373,-5.040794372558594,-1.220726490020752,0
-0.7491746544837952,-5.315670013427734,-1.13376784324646,0
-0.6991515755653381,-5.4301323890686035,-0.9385559558868408,0
-0.6540200710296631,-5.458550453186035,-0.7019236087799072,0
-0.7188887596130371,-5.403367042541504,-0.48601269721984863,0
-0.7261912226676941,-5.255049228668213,-0.2357172966003418,0
-0.7978777885437012,-5.011100769042969,0.024779319763183594,0
-0.9385485649108887,-4.726365566253662,0.30233073234558105,0
-0.930065929889679,-4.383821487426758,0.6514441967010498,0
-1.004016637802124,-3.918539524078369,0.9899909496307373,0
-1.1840099096298218,-3.3468003273010254,1.261777400970459,0
-1.352576494216919,-2.610624313354492,1.560925006866455,0
-1.5239479541778564,-1.8671941757202148,1.851879358291626,0
-1.525172472000122,-1.0150423049926758,2.0816214084625244,0
-1.0875210762023926,0.08308982849121094,2.318732976913452,0
-0.31605756282806396,1.2894258499145508,2.571380615234375,0
0.5567585825920105,2.9018173217773438,2.5885634422302246,0
1.591941237449646,4.964130401611328,2.7297537326812744,0
2.404791831970215,7.031789779663086,3.222008466720581,0
2.5534474849700928,8.463839530944824,4.091711044311523,0
1.881108045578003,8.815113067626953,5.720263957977295,0
1.6087818145751953,8.106937408447266,7.102790832519531,0
1.46867036819458,7.315030097961426,7.841863632202148,0
1.1180939674377441,6.280585289001465,7.98463249206543,0
0.7571792602539062,4.6965227127075195,8.175874710083008,0
0.5788657665252686,3.2099075317382812,8.378192901611328,0
0.25478774309158325,1.7364234924316406,7.652287483215332,0
-0.0848517119884491,0.5823516845703125,6.275646686553955,0
-0.6348766684532166,0.4080219268798828,4.431327819824219,0
-0.7541855573654175,2.157528877258301,2.5941286087036133,0
-0.658015787601471,4.743621826171875,1.305586814880371,0
-0.5371790528297424,7.794892311096191,-0.0039958953857421875,0
-0.46063658595085144,10.597691535949707,-2.0978572368621826,0
-0.42490819096565247,13.713927268981934,-3.436220169067383,0
-1.0490152835845947,15.171072959899902,-3.81545352935791,0
-2.023834705352783,14.131272315979004,-4.161461353302002,0
-2.427502393722534,10.946876525878906,-3.9683103561401367,0
-2.444525957107544,7.008489608764648,-2.5290579795837402,0
-3.118401527404785,3.623075485229492,-1.2743818759918213,0
-4.898777961730957,0.13941001892089844,-1.6204755306243896,0
-6.529922962188721,-2.876384735107422,-2.534268856048584,0
-5.902297019958496,-4.201660633087158,-1.9099912643432617,0
-3.782102584838867,-2.4979491233825684,-0.4337456226348877,0
-2.3469667434692383,-1.424778938293457,-2.0854790210723877,0
-2.3988113403320312,-1.0361461639404297,-4.227698802947998,0
-2.5712907314300537,-0.9894528388977051,-5.597924709320068,0
-2.376979112625122,-0.743525505065918,-5.653707027435303,0
-1.930933952331543,-0.28798770904541016,-4.87788200378418,0
-1.482682466506958,0.4051513671875,-4.234106063842773,0
-0.7495051622390747,1.5674524307250977,-4.108648300170898,0
0.2513817548751831,2.9891233444213867,-4.251523494720459,0
1.2027515172958374,4.1085309982299805,-3.9910261631011963,0
2.1177659034729004,4.615455627441406,-3.4947071075439453,0
2.574618101119995,4.420743942260742,-3.19659161567688,0
2.4204416275024414,3.594667434692383,-3.8060457706451416,0
1.7774431705474854,2.397003173828125,-4.423980236053467,0
0.9026731252670288,1.147059440612793,-4.807908058166504,0
0.1872836947441101,0.11384391784667969,-4.728555679321289,0
-0.11153841018676758,-0.5529203414916992,-4.805317401885986,0
-0.15552818775177002,-0.7155046463012695,-4.847193241119385,0
-0.3597922921180725,-0.4976472854614258,-4.5829949378967285,0
-0.6727068424224854,-0.1530895233154297,-3.832216739654541,0
-0.7852476239204407,0.2337055206298828,-2.8378052711486816,0
-0.7279602885246277,0.4372091293334961,-1.9878464937210083,0
-0.6957346796989441,0.47623634338378906,-1.4048840999603271,0
-0.7226142883300781,0.2718343734741211,-1.0184383392333984,0
-0.7156872749328613,-0.10632038116455078,-0.7541241645812988,0
-0.6180351972579956,-0.5478315353393555,-0.6075036525726318,0
-0.45896413922309875,-0.9949922561645508,-0.4595601558685303,0
-0.22021466493606567,-1.249009132385254,-0.45711636543273926,0
-0.12021440267562866,-1.4008188247680664,-0.3446614742279053,0
-0.2505471706390381,-1.498255729675293,-0.35460329055786133,0
-0.06271994113922119,-1.5464344024658203,-0.2662391662597656,0
0.19561541080474854,-1.4931845664978027,-0.34194374084472656,0
0.2834275960922241,-1.4177255630493164,-0.703034520149231,0
0.1887165904045105,-1.3224754333496094,-1.124371886253357,0
0.09858369827270508,-1.2983474731445312,-1.4792301654815674,0
-0.07520145177841187,-1.3739948272705078,-1.7533257007598877,0
-0.284956693649292,-1.4656858444213867,-1.8339977264404297,0
-0.30099737644195557,-1.6214313507080078,-1.8426225185394287,0
-0.19921529293060303,-1.8484678268432617,-1.8890132904052734,0
-0.24216735363006592,-1.9746513366699219,-1.9155213832855225,0
-0.19006550312042236,-2.0001230239868164,-1.941440463066101,0
-0.13354218006134033,-1.884300708770752,-2.0102851390838623,0
-0.19199460744857788,-1.5675592422485352,-2.028987407684326,0
-0.18837213516235352,-1.3658103942871094,-1.9137722253799438,0
-0.1971731185913086,-1.0971336364746094,-1.7462633848190308,0
-0.13015663623809814,-1.0079011917114258,-1.5335662364959717,0
-0.042814016342163086,-0.9256820678710938,-1.3857673406600952,0
0.009736061096191406,-0.9317474365234375,-1.1809405088424683,0
0.17572283744812012,-1.1406993865966797,-1.0845088958740234,0
0.5010523796081543,-1.2580833435058594,-1.0090446472167969,0
0.6967277526855469,-1.508707046508789,-0.809755802154541,0
0.5998321771621704,-1.8470492362976074,-0.41690731048583984,0
0.531050443649292,-2.0220446586608887,-0.21747362613677979,0
0.519008994102478,-2.1942272186279297,-0.2773626446723938,0
0.5036734342575073,-2.1843109130859375,-0.440385639667511,0
0.6259320974349976,-2.0571165084838867,-0.6079397797584534,0
0.6701160669326782,-1.9538545608520508,-0.6602389812469482,0
0.7650445103645325,-1.809908390045166,-0.6163480281829834,0
0.8194321393966675,-1.7376842498779297,-0.5264256596565247,0
0.8378050923347473,-1.5625228881835938,-0.41897469758987427,0
0.9182263612747192,-1.377828598022461,-0.20992761850357056,0
0.9123640060424805,-1.159698486328125,-0.1383114457130432,0
0.9925952553749084,-0.9583654403686523,-0.11562496423721313,0
1.01301908493042,-0.8717985153198242,-0.1540941596031189,0
0.9665635228157043,-0.806553840637207,-0.2804306447505951,0
0.868106484413147,-0.8128414154052734,-0.3296624720096588,0
0.8927945494651794,-0.7830133438110352,-0.33295488357543945,0
0.8661454916000366,-0.8032026290893555,-0.2305273711681366,0
0.7979488372802734,-0.8733444213867188,-0.1254522204399109,0
0.8439871668815613,-0.8905448913574219,-0.06384524703025818,0
0.8462610244750977,-0.921778678894043,-0.025323688983917236,0
0.8478944897651672,-0.8044357299804688,0.013407528400421143,0
0.8776019811630249,-0.6654624938964844,0.040543511509895325,0
0.7847738862037659,-0.5479564666748047,0.11877046525478363,0
0.6701934933662415,-0.45431041717529297,0.17411011457443237,0
0.5890939235687256,-0.3056049346923828,0.25910982489585876,0
0.42420464754104614,-0.113861083984375,0.3783756196498871,0
0.3164626359939575,0.08023452758789062,0.5222577452659607,0
0.2632240653038025,0.252777099609375,0.7435869574546814,0
0.17073535919189453,0.39426612854003906,1.0092835426330566,0
0.1677396297454834,0.6075830459594727,1.1639798879623413,0
0.1724960207939148,0.7754878997802734,1.15980064868927,0
0.27555006742477417,0.8765163421630859,1.1281213760375977,0
0.3135112524032593,0.8629484176635742,1.1478215456008911,0
0.353289932012558,0.7994623184204102,1.1972070932388306,0
0.3521094024181366,0.688481330871582,1.2498829364776611,0
0.41282176971435547,0.7213230133056641,1.3152177333831787,0
0.43944403529167175,0.7997474670410156,1.2829036712646484,0
0.5417795777320862,0.823237419128418,1.2483932971954346,0
0.7341668605804443,0.8707246780395508,1.2545979022979736,0
0.820006251335144,0.949315071105957,0.9543774127960205,0
1.162959098815918,0.9394054412841797,0.8578901290893555,0
1.4904683828353882,0.8770027160644531,0.95395827293396,0
1.6830143928527832,0.735905647277832,1.0375709533691406,0
1.903210163116455,0.5210056304931641,1.0373125076293945,0
2.091507911682129,0.4260587692260742,0.9914593696594238,0
2.3318939208984375,0.3911170959472656,1.0098284482955933,0
2.444972515106201,0.5786724090576172,1.0896070003509521,0
2.5911169052124023,0.7588710784912109,1.3165473937988281,0
2.7269515991210938,0.96038818359375,1.5324010848999023,0
2.9673383235931396,1.2716255187988281,1.5622247457504272,0
3.2453837394714355,1.4389686584472656,1.6452441215515137,0
3.381497621536255,1.496058464050293,1.7526979446411133,0
3.4520528316497803,1.6079912185668945,1.769643783569336,0
3.624631881713867,1.6574974060058594,1.7413113117218018,0
3.645350217819214,1.7115507125854492,1.6409775018692017,0
3.6192398071289062,1.7509737014770508,1.566493034362793,0
3.5772087574005127,1.8092212677001953,1.3669085502624512,0
3.5499207973480225,1.8479633331298828,1.027710199356079,0
3.357250213623047,2.005838394165039,0.5413882732391357,0
3.1489529609680176,2.210909843444824,0.005958616733551025,0
2.7855873107910156,2.537236213684082,-0.312924325466156,0
2.4777722358703613,2.972728729248047,-0.4440818428993225,0
2.1993768215179443,3.433584213256836,-0.5361087322235107,0
2.087184429168701,3.5348291397094727,-0.5630593299865723,0
1.9380333423614502,3.4012622833251953,-0.6045598983764648,0
1.955768346786499,3.0140867233276367,-0.5894366502761841,0
2.002601146697998,2.6343135833740234,-0.5138126611709595,0
2.009026050567627,2.2452335357666016,-0.4958811402320862,0
2.0537538528442383,1.9330368041992188,-0.4285947382450104,0
2.005629539489746,1.927332878112793,-0.33373844623565674,0
1.9105899333953857,2.132288932800293,-0.3115648031234741,0
1.6662213802337646,2.4235191345214844,-0.3638543486595154,0
1.3519498109817505,2.55722713470459,-0.5667107105255127,0
0.953716516494751,2.6557607650756836,-0.8435996770858765,0
0.5940752625465393,2.525700569152832,-1.1513220071792603,0
0.21167698502540588,2.150820732116699,-1.4414458274841309,0
-0.2380634844303131,1.6607303619384766,-1.5574438571929932,0
-0.8070032596588135,1.1441192626953125,-1.3104546070098877,0
-1.2668843269348145,0.5770206451416016,-1.0225815773010254,0
-1.782474160194397,0.11466121673583984,-0.8315519094467163,0
-2.2415244579315186,-0.052138328552246094,-0.7347646355628967,0
-2.577725410461426,-0.10817432403564453,-0.8290625810623169,0
-2.804103374481201,-0.03951072692871094,-0.8794705271720886,0
-2.9337708950042725,0.012353897094726562,-0.8402543067932129,0
-2.866952896118164,0.09039592742919922,-0.7030942440032959,0
-2.7951245307922363,0.2115335464477539,-0.48084789514541626,0
-2.4745349884033203,0.3856782913208008,-0.06737387180328369,0
-2.138066053390503,0.5916261672973633,0.46256446838378906,0
-1.625929832458496,0.9038352966308594,1.0661027431488037,0
-1.227100133895874,1.1957941055297852,1.5384844541549683,0
-1.131962776184082,1.537078857421875,1.850981593132019,0
-1.196020245552063,1.800889015197754,1.9762561321258545,0
-1.2414199113845825,2.027867317199707,1.762947916984558,0
-1.313726544380188,2.1126956939697266,1.2893935441970825,0
-1.2189995050430298,2.148588180541992,0.6266770362854004,0
-1.0146143436431885,2.0014753341674805,-0.1927347183227539,0
-0.8563254475593567,1.733597755432129,-1.1201789379119873,0
-0.8192486763000488,1.4812650680541992,-2.0451130867004395,0
-0.8319519758224487,1.119943618774414,-2.8092195987701416,0
-0.6834777593612671,0.8123064041137695,-3.4963908195495605,0
-0.4835757315158844,0.47237300872802734,-3.9305834770202637,0
-0.32569578289985657,0.2177734375,-4.1352081298828125,0
-0.4305436611175537,0.007978439331054688,-3.9773049354553223,0
-0.6286466121673584,-0.24564361572265625,-3.5859687328338623,0
-0.8244351744651794,-0.6511354446411133,-2.998056173324585,0
-1.0206776857376099,-1.0966606140136719,-2.4627342224121094,0
-1.2040610313415527,-1.5827860832214355,-2.0621113777160645,0
-1.147868037223816,-1.8849210739135742,-1.8005789518356323,0
-1.1228829622268677,-2.096435546875,-1.8460549116134644,0
-1.0093744993209839,-2.382361888885498,-1.8519500494003296,0
-0.984828531742096,-2.616112232208252,-1.7342908382415771,0
-0.9462029933929443,-2.881753921508789,-1.5476787090301514,0
-0.7157163619995117,-3.28238582611084,-1.4542467594146729,0
-0.7549861073493958,-3.6457552909851074,-1.4802796840667725,0
-0.7744125127792358,-3.7732796669006348,-1.6239020824432373,0
-0.6682084798812866,-3.9593300819396973,-1.6724226474761963,0
-0.6945266127586365,-4.091588497161865,-1.6592903137207031,0
-0.7928791046142578,-4.273012638092041,-1.641960859298706,0
-0.8473823666572571,-4.517870903015137,-1.6541025638580322,0
-1.0654659271240234,-4.675253391265869,-1.7918856143951416,0
-1.236586093902588,-4.570694446563721,-1.8066585063934326,0
-1.3510907888412476,-4.482025146484375,-1.7151131629943848,0
-1.4213513135910034,-4.340092182159424,-1.5959312915802002,0
-1.4138271808624268,-4.04703426361084,-1.4466159343719482,0
-1.4484446048736572,-3.770571231842041,-1.3267309665679932,0
-1.4491229057312012,-3.5945229530334473,-1.290982723236084,0
-1.4857069253921509,-3.4279847145080566,-1.2530667781829834,0
-1.4033786058425903,-3.464597702026367,-1.1843886375427246,0
-1.4011709690093994,-3.5222697257995605,-1.1498241424560547,0
-1.3739473819732666,-3.7873997688293457,-1.101675033569336,0
-1.3674113750457764,-4.039823055267334,-1.0373859405517578,0
-1.331648588180542,-4.318020820617676,-1.0162787437438965,0
-1.3577170372009277,-4.576710224151611,-0.9613306522369385,0
-1.500658392906189,-4.761075019836426,-1.020400047302246,0
-1.4875811338424683,-4.890353202819824,-1.0975301265716553,0
-1.4714183807373047,-4.98130989074707,-1.0922036170959473,0
-1.4807147979736328,-5.050473213195801,-1.1148929595947266,0
-1.3310989141464233,-5.064241409301758,-1.0102791786193848,0
-1.3072330951690674,-4.943650245666504,-0.8503108024597168,0
-1.32275390625,-4.71271276473999,-0.5990872383117676,0
-1.3127855062484741,-4.428889751434326,-0.17290925979614258,0
-1.181063175201416,-4.075567722320557,0.5240917205810547,0
-0.8697060346603394,-3.729158878326416,1.2068901062011719,0
-0.4956577718257904,-3.283801555633545,1.7044310569763184,0
0.05142378807067871,-2.7241554260253906,1.9090664386749268,0
0.7962483167648315,-1.9625229835510254,1.6657943725585938,0
1.6971849203109741,-0.8248214721679688,0.8898518085479736,0
2.4898524284362793,0.7841396331787109,-0.021557092666625977,0
3.0481128692626953,2.7414913177490234,-0.5801184177398682,0
3.483494997024536,5.244210243225098,0.007931947708129883,0
3.231527328491211,8.10984992980957,2.2724921703338623,0
2.3094730377197266,10.769368171691895,6.481166839599609,0
1.3046605587005615,11.969576835632324,10.388483047485352,0
0.7759981155395508,12.287931442260742,12.722029685974121,0
0.48964568972587585,12.705900192260742,12.846586227416992,0
0.5912263989448547,11.734773635864258,11.116482734680176,0
1.070256233215332,9.148674964904785,9.322778701782227,0
1.4386059045791626,4.76133918762207,7.896392822265625,0
2.3536107540130615,-0.8542919158935547,6.476473808288574,0
2.946704149246216,-6.358418941497803,4.5928192138671875,0
1.733505129814148,-8.658427238464355,2.425734281539917,0
0.02116832137107849,-7.55723237991333,-0.29450559616088867,0
-1.0756535530090332,-3.8639068603515625,-2.193086624145508,0
-0.7831944823265076,0.07451915740966797,-3.242525100708008,0
-0.17448705434799194,3.6324501037597656,-4.449560165405273,0
-0.42382681369781494,6.671131134033203,-5.57124137878418,0
-2.10701322555542,9.225682258605957,-6.859748363494873,0
-4.221737861633301,11.429119110107422,-7.278860092163086,0
-7.029923439025879,13.344168663024902,-7.0682373046875,0
-9.52924919128418,14.424392700195312,-6.304300308227539,0
-9.962736129760742,14.3889799118042,-4.702672004699707,0
-7.612103462219238,12.022297859191895,-0.996096134185791,0
-5.045939922332764,8.398456573486328,1.9406540393829346,0
-4.012112140655518,6.404904365539551,2.1629326343536377,0
-4.06037712097168,5.15388298034668,0.9282045364379883,0
-3.740037679672241,3.5869617462158203,1.0512254238128662,0
-2.729978561401367,1.8128719329833984,1.5825142860412598,0
-2.3548426628112793,-0.018889427185058594,0.5172743797302246,0
-2.2975668907165527,-1.6730284690856934,-1.4343090057373047,0
-2.129310131072998,-3.0377936363220215,-2.9610438346862793,0
-1.7818670272827148,-3.6795969009399414,-4.014540195465088,0
-1.7387019395828247,-3.546128273010254,-4.490046977996826,0
-1.5516239404678345,-3.029116153717041,-4.532607555389404,0
-0.7845388650894165,-2.3418712615966797,-4.455942153930664,0
0.10796171426773071,-1.5185761451721191,-4.328218936920166,0
0.967891275882721,-0.6128597259521484,-4.056305408477783,0
2.051640510559082,-0.05175209045410156,-3.658383846282959,0
2.8065760135650635,0.1829967498779297,-3.3770999908447266,0
3.0427393913269043,-0.08829879760742188,-3.4512598514556885,0
2.9015908241271973,-0.7289056777954102,-3.72856068611145,0
2.487114906311035,-1.5633296966552734,-4.072940349578857,0
1.8505256175994873,-2.2264604568481445,-4.530359745025635,0
1.3033018112182617,-2.501582622528076,-4.866156101226807,0
0.823151707649231,-2.3543152809143066,-5.068330764770508,0
0.3579063415527344,-1.7365636825561523,-4.929944038391113,0
0.009003758430480957,-0.9072837829589844,-4.3729567527771,0
-0.3656008243560791,-0.056397438049316406,-3.4293203353881836,0
-0.7587379813194275,0.5619220733642578,-2.469933032989502,0
-0.9238557815551758,0.8471622467041016,-1.6531544923782349,0
-0.6731438040733337,0.8619098663330078,-1.1242666244506836,0
-0.1674501895904541,0.6138553619384766,-0.7757012844085693,0
0.2607571482658386,0.2280254364013672,-0.54868483543396,0
0.633394181728363,-0.2973976135253906,-0.49487316608428955,0
0.8577287197113037,-0.8471555709838867,-0.4051700830459595,0
1.0903798341751099,-1.318319320678711,-0.3189448118209839,0
1.0951642990112305,-1.7492475509643555,-0.3540222644805908,0
1.054360032081604,-2.0133509635925293,-0.45547735691070557,0
0.879668116569519,-2.020258903503418,-0.6081427335739136,0
0.5661814212799072,-1.9809722900390625,-0.9687762260437012,0
0.25768089294433594,-1.9436216354370117,-1.4334646463394165,0
-0.06233513355255127,-1.9417157173156738,-1.9233286380767822,0
-0.28122663497924805,-1.8174738883972168,-2.2015743255615234,0
-0.5043006539344788,-1.7887330055236816,-2.3542745113372803,0
-0.7607091069221497,-1.855431079864502,-2.3811347484588623,0
-0.9410653114318848,-1.6445574760437012,-2.441511869430542,0
-0.7218214273452759,-1.7303900718688965,-2.1601812839508057,0
-0.6488978266716003,-1.7943544387817383,-2.0335023403167725,0
-0.5957914590835571,-1.9010310173034668,-1.5494544506072998,0
-0.5367520451545715,-1.92366361618042,-1.0020959377288818,0
-0.6258425712585449,-1.682973861694336,-0.814355731010437,0
-0.4138702154159546,-1.4782028198242188,-0.6911321878433228,0
-0.09729039669036865,-1.2161016464233398,-0.5052385330200195,0
0.22820889949798584,-0.9541254043579102,-0.33090245723724365,0
0.541235089302063,-0.7424545288085938,-0.1564936637878418,0
0.7986760139465332,-0.5690078735351562,-0.06608641147613525,0
1.0653400421142578,-0.37393856048583984,-0.043207764625549316,0
1.2767693996429443,-0.3725166320800781,-0.08757925033569336,0
1.3830369710922241,-0.4856719970703125,-0.15325427055358887,0
1.4038982391357422,-0.5794143676757812,-0.2688550353050232,0
1.3063442707061768,-0.7040205001831055,-0.38406383991241455,0
1.212552547454834,-0.7948951721191406,-0.4199817478656769,0
1.0938173532485962,-0.8401288986206055,-0.36224329471588135,0
0.9428486824035645,-0.8923664093017578,-0.24194973707199097,0
0.716545820236206,-0.9826507568359375,-0.05691009759902954,0
0.5463845729827881,-1.0176477432250977,0.11609089374542236,0
0.3699420690536499,-1.0404300689697266,0.30555087327957153,0
0.13670337200164795,-1.0342216491699219,0.3700428009033203,0
-0.05059218406677246,-0.9153518676757812,0.486558198928833,0
-0.14176982641220093,-0.8824443817138672,0.6528618335723877,0
-0.2014833688735962,-0.825413703918457,0.7900887727737427,0
-0.35670340061187744,-0.5577516555786133,0.7472991347312927,0
-0.3630727529525757,-0.3380012512207031,0.7375243902206421,0
-0.28486156463623047,-0.1518115997314453,0.8278349041938782,0
-0.15771830081939697,-0.07330036163330078,0.8340516686439514,0
0.025867104530334473,-0.07127952575683594,0.7895923256874084,0
0.18932557106018066,-0.12412643432617188,0.6870431303977966,0
0.3396950364112854,-0.2580595016479492,0.5143266916275024,0
0.498390793800354,-0.3223304748535156,0.3816158175468445,0
0.5839000344276428,-0.3457069396972656,0.23154842853546143,0
0.734940230846405,-0.24454784393310547,0.1381908506155014,0
0.7597832083702087,-0.06441497802734375,0.12989844381809235,0
0.8542135953903198,0.16591548919677734,0.14174383878707886,0
0.936612069606781,0.46312427520751953,0.26683932542800903,0
0.9899351000785828,0.8701686859130859,0.4596312642097473,0
1.1554691791534424,1.2984094619750977,0.5479030609130859,0
1.2321560382843018,1.5421724319458008,0.648988664150238,0
1.1553068161010742,1.6088600158691406,0.6791462898254395,0
1.2673611640930176,1.577545166015625,0.5973197221755981,0
1.3126654624938965,1.5224313735961914,0.616482138633728,0
1.2507020235061646,1.3072509765625,0.6985552906990051,0
1.2371333837509155,1.0541467666625977,0.8390247821807861,0
1.236291527748108,0.8540191650390625,1.0500775575637817,0
1.3221778869628906,0.8335371017456055,1.2598680257797241,0
1.501703143119812,0.8585805892944336,1.4422608613967896,0
1.7148008346557617,0.9864931106567383,1.5926427841186523,0
1.947050929069519,1.111948013305664,1.637192964553833,0
2.1934709548950195,1.1775732040405273,1.5809433460235596,0
2.4252684116363525,1.2958192825317383,1.4956507682800293,0
2.615805149078369,1.234694480895996,1.4961689710617065,0
2.791445732116699,1.1522245407104492,1.486656904220581,0
2.868561267852783,1.0531940460205078,1.4452855587005615,0
2.9787964820861816,0.9567165374755859,1.4171342849731445,0
3.0048139095306396,0.7551794052124023,1.4785830974578857,0
2.987070083618164,0.7021656036376953,1.5458085536956787,0
3.064472198486328,0.7209625244140625,1.6858282089233398,0
3.0601978302001953,0.8186330795288086,1.824295997619629,0
3.151524066925049,0.9830837249755859,2.0301570892333984,0
3.1542141437530518,1.087468147277832,2.125951051712036,0
3.130341053009033,1.112675666809082,2.0943799018859863,0
3.182607889175415,1.144801139831543,1.7622772455215454,0
3.219465732574463,1.3104772567749023,1.2101221084594727,0
3.1490981578826904,1.5616769790649414,0.600208580493927,0
2.9034366607666016,2.063290596008301,0.05949968099594116,0
2.508277654647827,2.7122507095336914,-0.22238576412200928,0
2.1549131870269775,3.5562572479248047,-0.4075644612312317,0
1.9319988489151,4.133620262145996,-0.5628121495246887,0
1.7514028549194336,4.34663200378418,-0.8345292210578918,0
1.6828457117080688,4.21966552734375,-1.1370878219604492,0
1.43451726436615,3.554689407348633,-1.4666279554367065,0
1.1665176153182983,2.9478073120117188,-1.8045917749404907,0
1.0155068635940552,2.329686164855957,-2.1178698539733887,0
0.7949706315994263,1.824789047241211,-2.3349051475524902,0
0.507742166519165,1.3637676239013672,-2.436635732650757,0
0.1878361701965332,0.9156360626220703,-2.4468576908111572,0
-0.15944954752922058,0.5187892913818359,-2.4399335384368896,0
-0.4518078565597534,0.2952737808227539,-2.3321940898895264,0
-0.7243987321853638,0.08244895935058594,-2.175734519958496,0
-1.0458605289459229,-0.138671875,-1.8552112579345703,0
-1.3556102514266968,-0.1957864761352539,-1.5660099983215332,0
-1.7656199932098389,-0.2803182601928711,-1.1318336725234985,0
-2.076861619949341,-0.4783048629760742,-0.7759459018707275,0
-2.4659485816955566,-0.5792379379272461,-0.47055262327194214,0
-2.8323814868927,-0.4637565612792969,-0.19787806272506714,0
-3.0808591842651367,-0.20158863067626953,0.04795944690704346,0
-3.229116201400757,0.0993204116821289,0.24905133247375488,0
-3.194843292236328,0.4434843063354492,0.40439558029174805,0
-3.0130534172058105,0.8162517547607422,0.5701888799667358,0
-2.6414945125579834,1.1337060928344727,0.6056296825408936,0
-2.382411003112793,1.4031057357788086,0.5358750820159912,0
-2.132976770401001,1.6343011856079102,0.48290038108825684,0
-1.835604190826416,1.8516159057617188,0.4270350933074951,0
-1.5281445980072021,2.1200361251831055,0.3992084264755249,0
-1.3819572925567627,2.341752052307129,0.4267650842666626,0
-1.3074665069580078,2.548067092895508,0.4710913896560669,0
-1.2557700872421265,2.7606239318847656,0.4390418529510498,0
-1.2663499116897583,3.0224246978759766,0.21671557426452637,0
-1.130048394203186,3.2233543395996094,-0.18765151500701904,0
-0.8322474360466003,3.0406599044799805,-0.6919950246810913,0
-0.7490081191062927,2.7852792739868164,-1.2414684295654297,0
-0.6389954090118408,2.315798759460449,-1.944124698638916,0
-0.5193186402320862,1.7160396575927734,-2.646360158920288,0
-0.47635775804519653,1.2278318405151367,-3.3944287300109863,0
-0.3742036819458008,0.6840028762817383,-3.7544379234313965,0
-0.28030824661254883,0.03714942932128906,-3.7423653602600098,0
-0.09437037259340286,-0.5810203552246094,-3.2582452297210693,0
-0.26722246408462524,-1.2233600616455078,-2.612562894821167,0
-0.390905499458313,-1.8449382781982422,-1.8300094604492188,0
-0.626891016960144,-2.135807991027832,-1.0660133361816406,0
-0.5738010406494141,-2.2834300994873047,-0.5680034160614014,0
-0.454641729593277,-2.4314088821411133,-0.4223206043243408,0
-0.23862673342227936,-2.4624900817871094,-0.3422374725341797,0
-0.06672663986682892,-2.5203747749328613,-0.3947012424468994,0
0.04727150872349739,-2.6147923469543457,-0.5410492420196533,0
0.08518324047327042,-2.604990005493164,-0.7637677192687988,0
0.06253576278686523,-2.627507209777832,-1.0819027423858643,0
0.051928501576185226,-2.8091673851013184,-1.1414072513580322,0
0.09378328174352646,-3.1379213333129883,-1.093254804611206,0
0.2501772940158844,-3.3481664657592773,-1.1171681880950928,0
0.2842366397380829,-3.5906624794006348,-1.134432315826416,0
0.4044339954853058,-4.013753890991211,-1.054060935974121,0
0.2712657153606415,-4.392680644989014,-0.9140832424163818,0
0.16782768070697784,-4.703551769256592,-1.0471818447113037,0
-0.04632624238729477,-4.90812873840332,-1.2141964435577393,0
-0.2772197425365448,-4.977914810180664,-1.2405235767364502,0
-0.5273749232292175,-4.922815799713135,-1.1858327388763428,0
-0.6988279223442078,-4.716846942901611,-1.2747325897216797,0
-0.8276931643486023,-4.4176836013793945,-1.3777754306793213,0
-0.8883010745048523,-4.1689300537109375,-1.4208273887634277,0
-0.9985839128494263,-4.097291469573975,-1.5163044929504395,0
-1.0421398878097534,-4.016091823577881,-1.5612261295318604,0
-1.0171178579330444,-4.131028175354004,-1.6559851169586182,0
-1.0194636583328247,-4.334216117858887,-1.7288470268249512,0
-1.0948485136032104,-4.589755535125732,-1.7174625396728516,0
-1.1429537534713745,-4.856997489929199,-1.6719410419464111,0
-1.1545453071594238,-5.116852760314941,-1.608846664428711,0
-1.1777257919311523,-5.309544086456299,-1.5113518238067627,0
-1.169740915298462,-5.427842140197754,-1.3748669624328613,0
-1.1332370042800903,-5.466874599456787,-1.2283592224121094,0
-1.0729882717132568,-5.407340049743652,-1.031599998474121,0
-1.0823723077774048,-5.272980213165283,-0.7946739196777344,0
-0.993736743927002,-5.00852108001709,-0.5493612289428711,0
-0.9789448380470276,-4.532560348510742,-0.1956784725189209,0
-1.0543204545974731,-3.928760051727295,0.22507762908935547,0
-1.1788673400878906,-3.2806687355041504,0.669208288192749,0
-1.1441092491149902,-2.5951900482177734,1.05230712890625,0
-0.9304705262184143,-1.8503761291503906,1.3278591632843018,0
-0.8267353177070618,-1.021636962890625,1.2739646434783936,0
-0.5374146699905396,-0.2298288345336914,0.9569072723388672,0
-0.12609310448169708,0.6031436920166016,0.35314369201660156,0
0.1649729311466217,1.7036876678466797,-0.23402190208435059,0
0.20289260149002075,3.206836700439453,-0.25000643730163574,0
-0.0638088583946228,5.2206525802612305,0.7030439376831055,0
-0.6400072574615479,7.545783042907715,2.9740500450134277,0
-0.6812851428985596,8.922436714172363,6.681726455688477,0
0.03246395289897919,8.587224006652832,9.656708717346191,0
0.18038569390773773,8.017942428588867,11.418468475341797,0
0.09594248235225677,7.533144950866699,11.7880220413208,0
0.11757035553455353,6.992677688598633,10.878031730651855,0
0.5296335220336914,5.561914443969727,8.989082336425781,0
1.3554911613464355,2.969911575317383,7.227690696716309,0
2.0808238983154297,-0.5464658737182617,5.793828010559082,0
2.252938985824585,-4.425057888031006,4.214615821838379,0
1.6370627880096436,-6.954558372497559,1.7534992694854736,0
1.0965650081634521,-6.254732131958008,-1.4568486213684082,0
0.24468636512756348,-2.396127223968506,-3.110598564147949,0
0.0408092737197876,2.215865135192871,-2.3587465286254883,0
-0.27887463569641113,6.582808494567871,-2.766350746154785,0
-0.35366636514663696,10.416848182678223,-4.516005516052246,0
-0.9339439272880554,13.515698432922363,-6.185559272766113,0
-1.4345667362213135,14.968687057495117,-5.929727554321289,0
-2.490616798400879,14.344088554382324,-4.762850284576416,0
-3.2673346996307373,11.45930004119873,-3.6551332473754883,0
-3.4861457347869873,7.158186912536621,-1.7494385242462158,0
-3.6847994327545166,4.070262908935547,0.010978460311889648,0
-3.8269712924957275,2.9538955688476562,0.6794495582580566,0
-3.9354324340820312,2.8944196701049805,1.276930570602417,0
-3.8552703857421875,3.1358299255371094,1.8313384056091309,0
-3.2569832801818848,3.119278907775879,2.4598548412323,0
-2.149031162261963,2.372119903564453,3.12971830368042,0
-1.6852494478225708,1.0984716415405273,2.1935906410217285,0
-1.9561259746551514,-0.049576759338378906,0.1314690113067627,0
-2.5259783267974854,-1.3496623039245605,-1.8109822273254395,0
-3.066096544265747,-2.2625107765197754,-2.7491955757141113,0
-2.2417242527008057,-2.498105525970459,-3.7448501586914062,0
-2.1540143489837646,-1.938601016998291,-4.073099613189697,0
-2.0286455154418945,-1.0339536666870117,-3.794612407684326,0
-1.4236177206039429,-0.26820945739746094,-3.5746614933013916,0
-0.7984017133712769,0.2732524871826172,-3.2758405208587646,0
0.11551529169082642,0.7164878845214844,-2.783404588699341,0
1.1017903089523315,1.138692855834961,-2.2577247619628906,0
1.6605443954467773,1.3016643524169922,-2.144176483154297,0
1.8668696880340576,1.008707046508789,-2.3532638549804688,0
1.9169152975082397,0.4176206588745117,-2.6363208293914795,0
1.835734248161316,-0.3302755355834961,-3.0690081119537354,0
1.446448802947998,-0.9212713241577148,-3.6253130435943604,0
0.9560250043869019,-1.1134328842163086,-4.220744609832764,0
0.5756210684776306,-0.9089651107788086,-4.692419528961182,0
0.3022316098213196,-0.5087709426879883,-4.767056941986084,0
0.22959649562835693,-0.013398170471191406,-4.361967086791992,0
0.014386892318725586,0.32121753692626953,-3.647385597229004,0
-0.009814143180847168,0.3254680633544922,-2.7308130264282227,0
0.17539411783218384,0.10258007049560547,-1.8800636529922485,0
0.2633656859397888,-0.33975791931152344,-1.2893366813659668,0
0.20365315675735474,-0.8669147491455078,-0.8856621980667114,0
0.15385502576828003,-1.2296342849731445,-0.744675874710083,0
0.19021493196487427,-1.6095519065856934,-0.680843710899353,0
0.21232134103775024,-2.0542941093444824,-0.6425361633300781,0
0.1801133155822754,-2.4203758239746094,-0.7090134620666504,0
0.12291944026947021,-2.7631025314331055,-0.7938157320022583,0
-0.07359063625335693,-3.037425994873047,-0.8481065034866333,0
-0.27257150411605835,-3.2700467109680176,-0.9594433307647705,0
-0.5625675916671753,-3.2340097427368164,-1.108133316040039,0
-0.8435089588165283,-2.975104331970215,-1.2820297479629517,0
-0.9675909876823425,-2.472177505493164,-1.2845239639282227,0
-0.913618803024292,-2.0460314750671387,-1.3401811122894287,0
-0.9954653978347778,-1.4957218170166016,-1.3387699127197266,0
-1.0052471160888672,-1.0724163055419922,-1.4072593450546265,0
-1.0027939081192017,-0.5511388778686523,-1.4120378494262695,0
-0.9951815009117126,-0.23090171813964844,-1.4083614349365234,0
-0.9992253184318542,-0.001583099365234375,-1.2712346315383911,0
-0.9218050241470337,0.08661746978759766,-1.3324944972991943,0
-0.8254229426383972,0.07932376861572266,-1.426840901374817,0
-0.48941686749458313,-0.19541549682617188,-1.45011568069458,0
-0.24826651811599731,-0.6535673141479492,-1.23561429977417,0
-0.05627584457397461,-0.9410409927368164,-0.8316137194633484,0
0.08430284261703491,-1.2278594970703125,-0.5395905375480652,0
0.30499422550201416,-1.435133934020996,-0.3618074655532837,0
0.5055549144744873,-1.4817438125610352,-0.26206517219543457,0
0.7433500289916992,-1.4611778259277344,-0.1803014874458313,0
0.9749649167060852,-1.2730951309204102,-0.1258786916732788,0
1.0972940921783447,-1.1089811325073242,-0.20152175426483154,0
1.2033377885818481,-0.9520912170410156,-0.20807939767837524,0
1.2353544235229492,-0.8287696838378906,-0.13997578620910645,0
1.2628321647644043,-0.8442287445068359,-0.11395937204360962,0
1.2861485481262207,-0.9026851654052734,-0.12507325410842896,0
1.2769831418991089,-1.0112600326538086,-0.18304651975631714,0
1.137263536453247,-1.0383358001708984,-0.2666046917438507,0
1.1542510986328125,-1.115504264831543,-0.3114732801914215,0
1.0935983657836914,-1.1112022399902344,-0.2770746350288391,0
1.0797183513641357,-1.0781326293945312,-0.1514168381690979,0
0.9809598922729492,-1.064138412475586,-0.0780579149723053,0
0.8547751903533936,-1.1432981491088867,0.038564860820770264,0
0.8496871590614319,-1.1098527908325195,0.17169871926307678,0
0.7263944745063782,-1.061960220336914,0.2875886857509613,0
0.5352739691734314,-0.9302968978881836,0.319271057844162,0
0.3960382342338562,-0.772364616394043,0.49188923835754395,0
0.3063419461250305,-0.5738563537597656,0.6737639904022217,0
0.19448590278625488,-0.39459800720214844,0.7405531406402588,0
0.13703292608261108,-0.2560853958129883,0.8456194996833801,0
0.1987592577934265,-0.1630563735961914,0.8574714064598083,0
0.2935407757759094,-0.2110891342163086,0.881401538848877,0
0.2754495143890381,-0.22782230377197266,0.5893403887748718,0
0.3358733057975769,-0.17023658752441406,0.26108235120773315,0
0.4627009630203247,-0.18187618255615234,0.04259943962097168,0
0.538741409778595,-0.20765113830566406,-0.1524067521095276,0
0.6165367364883423,-0.04906463623046875,-0.2978423833847046,0
0.7314985394477844,0.1884765625,-0.30291101336479187,0
0.7302136421203613,0.4809894561767578,-0.11028753221035004,0
0.7007552981376648,0.7327861785888672,0.131531223654747,0
0.8748710751533508,0.9654426574707031,0.41291898488998413,0
1.0343705415725708,1.0379066467285156,0.6571364402770996,0
1.2242494821548462,0.9671010971069336,0.8375072479248047,0
1.4127501249313354,0.7771015167236328,0.9586094617843628,0
1.6856474876403809,0.5230216979980469,1.0394996404647827,0
1.8513468503952026,0.3794565200805664,1.077820897102356,0
2.036646842956543,0.3462495803833008,1.045217752456665,0
2.138735294342041,0.4208698272705078,1.0739071369171143,0
2.2631418704986572,0.5123281478881836,1.1859561204910278,0
2.3907668590545654,0.6469020843505859,1.226078748703003,0
2.4834721088409424,0.8484277725219727,1.2612093687057495,0
2.572692394256592,1.0378971099853516,1.4084724187850952,0
2.627516746520996,1.2774543762207031,1.4688082933425903,0
2.6744322776794434,1.430689811706543,1.465661883354187,0
2.7278873920440674,1.5550613403320312,1.5278878211975098,0
2.6492316722869873,1.6290454864501953,1.600123643875122,0
2.6108548641204834,1.609644889831543,1.6655402183532715,0
2.600874423980713,1.5734548568725586,1.759756326675415,0
