AccX,AccY,AccZ,SampleRate
1.377523422241211,-1.4827485084533691,0.9420566558837891,0
1.387660026550293,-1.4812216758728027,1.001672625541687,0.01
1.2256150245666504,-0.6120843887329102,1.0498512983322144,0.02
0.8850517272949219,-0.11810779571533203,1.3412609100341797,0.03
0.6827468872070312,0.05130290985107422,1.4961743354797363,0.04
0.4908714294433594,0.18928813934326172,1.2412543296813965,0.05
0.5419807434082031,0.2406482696533203,0.9136903285980225,0.060000000000000005
0.7527260780334473,0.1935110092163086,1.0043364763259888,0.07
1.0048370361328125,0.4718809127807617,1.4045889377593994,0.08
1.3733224868774414,1.0711383819580078,1.3701528310775757,0.09
1.8616948127746582,1.5236940383911133,1.3107850551605225,0.09999999999999999
2.576528549194336,1.6329059600830078,1.4892933368682861,0.10999999999999999
3.124790668487549,1.3855600357055664,1.9344650506973267,0.11999999999999998
3.2812442779541016,1.4002561569213867,1.9455946683883667,0.12999999999999998
3.9867000579833984,1.8562498092651367,1.118131399154663,0.13999999999999999
5.097088813781738,2.2496395111083984,0.9065401554107666,0.15
6.192012310028076,2.2494678497314453,1.2681446075439453,0.16
7.49373197555542,1.9240951538085938,1.2385627031326294,0.17
7.849730968475342,1.670241355895996,1.091984748840332,0.18000000000000002
7.701966762542725,1.2456283569335938,1.4584499597549438,0.19000000000000003
7.1176934242248535,0.6383543014526367,1.6797112226486206,0.20000000000000004
5.0352630615234375,0.18671798706054688,1.607100248336792,0.21000000000000005
3.388737678527832,-0.035655975341796875,1.2050559520721436,0.22000000000000006
1.4827332496643066,0.2447061538696289,0.3947736620903015,0.23000000000000007
-0.01648998260498047,0.4922933578491211,-0.5710357427597046,0.24000000000000007
-0.9685912132263184,0.7701635360717773,-0.8554132580757141,0.25000000000000006
-1.4513225555419922,1.0318870544433594,-0.5374617576599121,0.26000000000000006
-2.137301445007324,1.2063865661621094,-0.6385060548782349,0.2700000000000001
-2.8817286491394043,1.0700092315673828,-1.3835124969482422,0.2800000000000001
-3.899686336517334,1.2597942352294922,-2.924610137939453,0.2900000000000001
-4.348762035369873,1.8547849655151367,-3.697996139526367,0.3000000000000001
-3.598473072052002,2.197695732116699,-2.4922218322753906,0.3100000000000001
-2.1067965030670166,2.306558609008789,-0.721011757850647,0.3200000000000001
-0.5158901214599609,2.989316940307617,1.1079087257385254,0.3300000000000001
1.5138845443725586,3.2404041290283203,1.6448311805725098,0.34000000000000014
2.0919666290283203,3.763319969177246,3.0004396438598633,0.35000000000000014
2.4185714721679688,3.1451025009155273,2.292254686355591,0.36000000000000015
1.8397197723388672,2.098435401916504,0.286088228225708,0.37000000000000016
1.3651838302612305,1.1006364822387695,-2.227900981903076,0.38000000000000017
0.21546268463134766,0.005733966827392578,-4.464796543121338,0.3900000000000002
-0.37230539321899414,-0.5152497291564941,-5.020870685577393,0.4000000000000002
-0.3895397186279297,-0.42677879333496094,-5.210202217102051,0.4100000000000002
-0.8126463890075684,-2.10507869720459,-4.134133815765381,0.4200000000000002
-1.2257678508758545,-2.723583698272705,-3.5762839317321777,0.4300000000000002
-1.8420097827911377,-2.928473472595215,-3.493330955505371,0.4400000000000002
-2.973020315170288,-3.092515468597412,-3.543713092803955,0.45000000000000023
-3.711019992828369,-3.104344367980957,-3.8336122035980225,0.46000000000000024
-4.434810638427734,-3.172947883605957,-4.150111198425293,0.47000000000000025
-5.058371067047119,-3.285205841064453,-4.467406272888184,0.48000000000000026
-5.2172980308532715,-3.6905860900878906,-4.3229594230651855,0.49000000000000027
-5.102110862731934,-4.261595726013184,-3.6663577556610107,0.5000000000000002
-4.8092498779296875,-5.059385299682617,-2.4230403900146484,0.5100000000000002
-4.737170696258545,-5.508321762084961,-1.0065944194793701,0.5200000000000002
-4.6925249099731445,-5.791236877441406,0.6476130485534668,0.5300000000000002
-4.500796794891357,-5.828322410583496,2.292649269104004,0.5400000000000003
-3.782860279083252,-5.608334541320801,3.4406075477600098,0.5500000000000003
-2.487501621246338,-5.203540325164795,4.374322414398193,0.5600000000000003
-0.6433749198913574,-4.208374977111816,4.12313985824585,0.5700000000000003
0.8900156021118164,-2.6900134086608887,3.512718439102173,0.5800000000000003
2.880204677581787,-0.0050487518310546875,2.873150587081909,0.5900000000000003
5.0215253829956055,3.5148658752441406,2.6838457584381104,0.6000000000000003
6.9317121505737305,7.078361511230469,2.9499385356903076,0.6100000000000003
9.495641708374023,9.602163314819336,2.857564687728882,0.6200000000000003
10.695436477661133,9.371794700622559,2.289201498031616,0.6300000000000003
7.243422985076904,6.892602920532227,3.0937860012054443,0.6400000000000003
1.5740046501159668,4.686091423034668,4.034043312072754,0.6500000000000004
-2.633028507232666,3.5184807777404785,4.242509365081787,0.6600000000000004
-4.866077423095703,2.4990968704223633,4.0550713539123535,0.6700000000000004
-5.651871204376221,1.8630943298339844,3.5706188678741455,0.6800000000000004
-4.207354545593262,0.6958217620849609,1.8707573413848877,0.6900000000000004
-3.6604905128479004,-0.11451053619384766,-1.2831019163131714,0.7000000000000004
-2.278785228729248,1.2995619773864746,-8.312989234924316,0.7100000000000004
-1.0680031776428223,3.825112819671631,-14.951972961425781,0.7200000000000004
-1.9819598197937012,7.15947961807251,-18.107749938964844,0.7300000000000004
-4.1171417236328125,9.598136901855469,-14.866044998168945,0.7400000000000004
-5.849525451660156,10.61238956451416,-2.8011984825134277,0.7500000000000004
-3.2571494579315186,7.051840782165527,6.634361743927002,0.7600000000000005
0.23866844177246094,0.58697509765625,6.678197860717773,0.7700000000000005
1.9871492385864258,-4.125407695770264,1.9177968502044678,0.7800000000000005
2.726290225982666,-7.477944374084473,-3.9421591758728027,0.7900000000000005
1.6643166542053223,-7.993091106414795,-8.758964538574219,0.8000000000000005
-2.592787027359009,-5.285181999206543,-11.644715309143066,0.8100000000000005
-4.725205421447754,-3.658395767211914,-11.58788776397705,0.8200000000000005
-5.213613033294678,-3.286709785461426,-9.667102813720703,0.8300000000000005
-3.8504371643066406,-2.610063076019287,-7.961851596832275,0.8400000000000005
-1.2750751972198486,-0.34614086151123047,-2.406409502029419,0.8500000000000005
0.5266604423522949,1.7277946472167969,4.285598278045654,0.8600000000000005
2.1377992630004883,2.9727182388305664,3.9457643032073975,0.8700000000000006
3.1269521713256836,2.8079986572265625,2.1008973121643066,0.8800000000000006
4.607661724090576,0.8011512756347656,0.5612326264381409,0.8900000000000006
5.40478515625,-1.1904182434082031,-0.05989539623260498,0.9000000000000006
3.149117946624756,-1.7096338272094727,1.4846047163009644,0.9100000000000006
1.2832436561584473,-1.6341619491577148,2.7746541500091553,0.9200000000000006
0.3451204299926758,-1.8919296264648438,3.2416398525238037,0.9300000000000006
-0.014271259307861328,-2.1774654388427734,2.8846237659454346,0.9400000000000006
0.11245441436767578,-2.24996280670166,1.5843915939331055,0.9500000000000006
0.8314008712768555,-2.1867146492004395,-0.477201372385025,0.9600000000000006
1.023270606994629,-1.7552576065063477,-1.4301128387451172,0.9700000000000006
1.116976261138916,-1.4418601989746094,-0.9711388945579529,0.9800000000000006
1.280179500579834,-1.494966983795166,0.0777333676815033,0.9900000000000007
1.3625211715698242,-1.8843393325805664,0.7014609575271606,1.0000000000000007
1.3087563514709473,-2.2067856788635254,1.0425094366073608,1.0100000000000007
1.0847225189208984,-2.374276638031006,0.674787163734436,1.0200000000000007
0.8630948066711426,-2.1571502685546875,0.5799565315246582,1.0300000000000007
0.7468533515930176,-1.8608994483947754,0.7001234292984009,1.0400000000000007
0.3323788642883301,-0.8474297523498535,0.7435764074325562,1.0500000000000007
0.011771202087402344,-0.08065319061279297,0.9345959424972534,1.0600000000000007
-0.007487773895263672,0.6279544830322266,1.2084604501724243,1.0700000000000007
0.1952500343322754,1.1201353073120117,1.313241958618164,1.0800000000000007
0.6814184188842773,1.4382362365722656,1.226238489151001,1.0900000000000007
1.3566875457763672,1.773427963256836,1.6382718086242676,1.1000000000000008
2.504420280456543,1.905064582824707,2.5685312747955322,1.1100000000000008
3.4538521766662598,1.7475614547729492,2.937466621398926,1.1200000000000008
4.5097198486328125,0.6695480346679688,2.6159181594848633,1.1300000000000008
4.887113571166992,-0.3348855972290039,2.3246359825134277,1.1400000000000008
4.699999809265137,-0.6764039993286133,2.350848436355591,1.1500000000000008
4.687746047973633,-0.2881441116333008,2.2230069637298584,1.1600000000000008
5.1794939041137695,0.6300792694091797,1.9007513523101807,1.1700000000000008
5.726508140563965,1.2376384735107422,1.8727004528045654,1.1800000000000008
6.298638820648193,1.0947504043579102,1.6491198539733887,1.1900000000000008
6.663957595825195,-0.05588245391845703,0.9828587174415588,1.2000000000000008
5.855510711669922,-0.9149303436279297,0.3395726680755615,1.2100000000000009
4.463537693023682,-0.9469928741455078,0.626670241355896,1.2200000000000009
3.053813934326172,-0.24506473541259766,0.43521004915237427,1.2300000000000009
2.0037732124328613,0.5845537185668945,-0.3834075927734375,1.2400000000000009
1.0393075942993164,1.9520998001098633,-0.29232358932495117,1.2500000000000009
0.6301736831665039,3.0599212646484375,0.3439488410949707,1.260000000000001
0.7197580337524414,3.1579790115356445,0.30076515674591064,1.270000000000001
1.040679931640625,2.925954818725586,-0.6851420402526855,1.280000000000001
0.8909401893615723,3.0920372009277344,-2.705573558807373,1.290000000000001
0.06956672668457031,3.897439956665039,-4.1100873947143555,1.300000000000001
-1.3125104904174805,5.0891265869140625,-4.3661298751831055,1.310000000000001
-2.382772922515869,6.083252906799316,-4.1802778244018555,1.320000000000001
-2.2082440853118896,5.8978424072265625,-3.5528926849365234,1.330000000000001
-1.2229936122894287,5.154793739318848,-2.284453868865967,1.340000000000001
-0.3149895668029785,4.359857559204102,1.3346750736236572,1.350000000000001
0.5830140113830566,2.7310094833374023,4.4432902336120605,1.360000000000001
1.0812921524047852,0.9841442108154297,5.262376308441162,1.370000000000001
0.37169408798217773,-0.46868419647216797,2.011465549468994,1.380000000000001
-0.11667442321777344,-1.6754016876220703,-2.1538186073303223,1.390000000000001
-0.49803829193115234,-2.2898173332214355,-5.030197620391846,1.400000000000001
-0.8492751121520996,-2.7475481033325195,-6.768758773803711,1.410000000000001
-1.412487506866455,-2.7884597778320312,-6.918369293212891,1.420000000000001
-1.5247023105621338,-3.0870041847229004,-6.367537498474121,1.430000000000001
-1.1063156127929688,-3.226327419281006,-5.647464275360107,1.440000000000001
-1.2645211219787598,-3.54886531829834,-5.449095249176025,1.450000000000001
-1.7923614978790283,-3.2143397331237793,-5.313685417175293,1.460000000000001
-2.7394487857818604,-3.1959657669067383,-4.810959815979004,1.470000000000001
-3.8615636825561523,-3.1632819175720215,-4.518298149108887,1.480000000000001
-5.014225006103516,-3.2112889289855957,-4.140710830688477,1.490000000000001
-5.999457836151123,-3.393887996673584,-3.8941755294799805,1.500000000000001
-6.73043966293335,-3.675224542617798,-3.5204343795776367,1.5100000000000011
-7.391409873962402,-4.0883989334106445,-2.791830539703369,1.5200000000000011
-7.636788368225098,-4.541199684143066,-1.9449145793914795,1.5300000000000011
-7.331215858459473,-4.789093017578125,-1.1132245063781738,1.5400000000000011
-6.53780460357666,-4.733403205871582,0.10881805419921875,1.5500000000000012
-4.420779705047607,-4.438936233520508,1.8868799209594727,1.5600000000000012
-2.2049484252929688,-4.144310474395752,3.8921895027160645,1.5700000000000012
0.297637939453125,-3.1692371368408203,5.229766845703125,1.5800000000000012
3.2238502502441406,-0.5385322570800781,5.074766159057617,1.5900000000000012
5.852563381195068,3.032510280609131,4.082485198974609,1.6000000000000012
8.396673202514648,7.972954273223877,4.863955497741699,1.6100000000000012
10.168407440185547,11.742923736572266,5.566198348999023,1.6200000000000012
11.192888259887695,12.399861335754395,4.139522075653076,1.6300000000000012
7.248855113983154,8.02515983581543,2.4291093349456787,1.6400000000000012
1.1250457763671875,4.089949607849121,1.2415580749511719,1.6500000000000012
-2.1714322566986084,2.7031702995300293,0.9597890377044678,1.6600000000000013
-4.409205436706543,1.9245433807373047,0.9763603210449219,1.6700000000000013
-4.918566703796387,1.2398724555969238,1.505310297012329,1.6800000000000013
-3.5843851566314697,1.0308566093444824,1.4230990409851074,1.6900000000000013
-2.6243069171905518,0.8094220161437988,-0.2786993980407715,1.7000000000000013
-1.6129546165466309,1.341379165649414,-5.199126720428467,1.7100000000000013
-0.3125729560852051,3.426828384399414,-10.759077072143555,1.7200000000000013
-0.10214805603027344,6.215402126312256,-15.366195678710938,1.7300000000000013
-2.337153911590576,8.930689811706543,-13.78657341003418,1.7400000000000013
-5.151595115661621,10.299168586730957,-3.9947667121887207,1.7500000000000013
-4.011407375335693,6.88980770111084,5.335351943969727,1.7600000000000013
-3.927077293395996,6.835694313049316,5.364255905151367,1.7700000000000014
2.1817126274108887,-4.1272406578063965,1.2179231643676758,1.7800000000000014
3.029041290283203,-6.570796012878418,-3.19299578666687,1.7900000000000014
2.076936721801758,-7.307553291320801,-6.8730926513671875,1.8000000000000014
-0.7359232902526855,-6.090506553649902,-9.518400192260742,1.8100000000000014
-3.292790651321411,-4.201151371002197,-10.496938705444336,1.8200000000000014
-4.862436294555664,-2.4626708030700684,-9.805652618408203,1.8300000000000014
-4.729933261871338,-1.5875091552734375,-8.053725242614746,1.8400000000000014
-3.238274097442627,-0.2861356735229492,-4.140061855316162,1.8500000000000014
-1.2505688667297363,1.8950519561767578,2.0152785778045654,1.8600000000000014
0.47472190856933594,2.548931121826172,4.588865280151367,1.8700000000000014
2.598984718322754,1.7610673904418945,3.379969596862793,1.8800000000000014
4.145081520080566,-0.33313751220703125,0.5017669200897217,1.8900000000000015
4.773516654968262,-2.255983352661133,-1.062782883644104,1.9000000000000015
3.892177104949951,-3.4765496253967285,0.09155526757240295,1.9100000000000015
2.168522357940674,-2.7033095359802246,1.9488704204559326,1.9200000000000015
0.8660807609558105,-1.4552946090698242,3.0230484008789062,1.9300000000000015
-0.2635679244995117,-0.867072582244873,2.9683117866516113,1.9400000000000015
-0.46068334579467773,-1.4206032752990723,1.715166687965393,1.9500000000000015
-0.5947613716125488,-1.5895910263061523,0.7411139011383057,1.9600000000000015
-0.8373467922210693,-1.4345946311950684,0.054460346698760986,1.9700000000000015
-1.0118510723114014,-0.8786377906799316,-0.22341424226760864,1.9800000000000015
-0.32382965087890625,-0.4500265121459961,-0.02780735492706299,1.9900000000000015
0.11304140090942383,-0.708653450012207,0.7386721968650818,2.0000000000000013
0.9611740112304688,-1.5888261795043945,1.5419297218322754,2.010000000000001
1.1497058868408203,-1.9060559272766113,1.4315845966339111,2.020000000000001
1.1674418449401855,-1.8951644897460938,0.780267596244812,2.0300000000000007
1.1986417770385742,-1.7604875564575195,0.5657339096069336,2.0400000000000005
0.9355025291442871,-1.337888240814209,0.6306543350219727,2.0500000000000003
0.6552734375,-0.6706790924072266,0.8948062658309937,2.06
0.8067140579223633,0.2966127395629883,1.1803255081176758,2.07
1.394885540008545,0.9654054641723633,1.5747171640396118,2.0799999999999996
2.0657267570495605,1.466665267944336,2.1204121112823486,2.0899999999999994
2.30264949798584,1.6274871826171875,2.7775063514709473,2.099999999999999
2.4496779441833496,1.5185565948486328,2.8359413146972656,2.109999999999999
2.697418451309204,1.0846023559570312,2.2447304725646973,2.1199999999999988
2.969134569168091,0.3068685531616211,1.9139621257781982,2.1299999999999986
3.172905206680298,0.024534225463867188,1.973244071006775,2.1399999999999983
3.6234710216522217,0.2445964813232422,1.8685405254364014,2.149999999999998
4.071551322937012,1.163416862487793,1.6928067207336426,2.159999999999998
4.671189785003662,1.9512662887573242,1.4149236679077148,2.1699999999999977
5.626778602600098,2.1227245330810547,0.9775405526161194,2.1799999999999975
6.037939071655273,1.160811424255371,0.7472131252288818,2.1899999999999973
6.333611011505127,-0.044182777404785156,0.404620885848999,2.199999999999997
5.830798625946045,-0.5349912643432617,-0.04152476787567139,2.209999999999997
4.554049015045166,-0.42568206787109375,0.5030872821807861,2.2199999999999966
3.4616613388061523,0.20810508728027344,0.9737008810043335,2.2299999999999964
2.0432052612304688,1.2024164199829102,0.4059227705001831,2.239999999999996
0.7261495590209961,2.6128454208374023,0.10948055982589722,2.249999999999996
0.7269959449768066,3.1460351943969727,0.2110125571489334,2.259999999999996
0.9039225578308105,3.0986948013305664,-0.08195143938064575,2.2699999999999956
0.6399431228637695,3.2830028533935547,-1.0832412242889404,2.2799999999999954
-0.26658010482788086,3.642899513244629,-2.7665610313415527,2.289999999999995
-1.4760832786560059,4.333536148071289,-3.994859457015991,2.299999999999995
-2.562579870223999,4.698919296264648,-3.9410436153411865,2.3099999999999947
-3.0712642669677734,4.7333526611328125,-3.4949517250061035,2.3199999999999945
-3.0759494304656982,4.578482627868652,-2.761000156402588,2.3299999999999943
-1.486835241317749,3.840373992919922,-0.4979977607727051,2.339999999999994
-0.16414117813110352,3.0053205490112305,3.227499008178711,2.349999999999994
0.7671408653259277,1.55230712890625,5.565869331359863,2.3599999999999937
1.0328865051269531,0.07473278045654297,3.9319634437561035,2.3699999999999934
0.767695426940918,-1.0178604125976562,0.5989279747009277,2.3799999999999932
0.3053421974182129,-1.7726025581359863,-3.155736207962036,2.389999999999993
-0.03639650344848633,-2.127695083618164,-6.498979568481445,2.399999999999993
-0.49304914474487305,-2.1119375228881836,-7.16738748550415,2.4099999999999926
-0.7565689086914062,-2.0314412117004395,-6.688755989074707,2.4199999999999924
-0.6190991401672363,-2.573709011077881,-5.223156929016113,2.429999999999992
-0.5382504463195801,-2.897733688354492,-4.606250762939453,2.439999999999992
-1.018453598022461,-3.034766674041748,-4.352048873901367,2.4499999999999917
-1.9194090366363525,-3.3277058601379395,-4.685637950897217,2.4599999999999915
-3.494119644165039,-3.536128520965576,-4.7795538902282715,2.4699999999999913
-5.011336803436279,-3.7126290798187256,-4.301576614379883,2.479999999999991
-6.209316730499268,-3.932079553604126,-4.040102958679199,2.489999999999991
-6.90013313293457,-4.051103591918945,-3.7883338928222656,2.4999999999999907
-7.187307357788086,-4.453531742095947,-3.2258694171905518,2.5099999999999905
-7.105908393859863,-4.989684104919434,-2.376511573791504,2.5199999999999902
-6.807600975036621,-5.455239772796631,-1.3266026973724365,2.52999999999999
-6.234719276428223,-5.601160049438477,0.028532028198242188,2.53999999999999
-5.000428676605225,-5.141171932220459,1.87514066696167,2.5499999999999896
-3.6807518005371094,-4.56650447845459,3.8789119720458984,2.5599999999999894
-1.8916244506835938,-3.651479721069336,5.901344299316406,2.569999999999989
1.3764500617980957,-1.7155709266662598,6.451114654541016,2.579999999999989
5.488552093505859,1.6146998405456543,4.796935081481934,2.5899999999999888
9.38188362121582,6.028385162353516,3.314976930618286,2.5999999999999885
11.964241981506348,9.956127166748047,4.410542964935303,2.6099999999999883
12.58742904663086,10.58485221862793,4.348381996154785,2.619999999999988
8.213659286499023,9.625595092773438,2.9991936683654785,2.629999999999988
2.2294201850891113,7.472028732299805,1.8901934623718262,2.6399999999999877
-0.7718095779418945,6.331437587738037,1.484618902206421,2.6499999999999875
-2.048837661743164,5.996584415435791,0.8273880481719971,2.6599999999999873
-2.280932903289795,6.26492166519165,-0.20303559303283691,2.669999999999987
-2.0807366371154785,6.600777626037598,-1.6938782930374146,2.679999999999987
-1.9374325275421143,6.549026012420654,-4.295618057250977,2.6899999999999866
-2.492868423461914,6.673897743225098,-8.124899864196777,2.6999999999999864
-4.431209564208984,6.625127792358398,-11.482671737670898,2.709999999999986
-7.153769493103027,5.620258331298828,-10.501091003417969,2.719999999999986
-7.327206134796143,1.4158515930175781,-3.7436304092407227,2.7299999999999858
-4.675946235656738,-2.310169219970703,0.6617734432220459,2.7399999999999856
-2.489734411239624,-5.2236433029174805,2.4496631622314453,2.7499999999999853
-1.6564421653747559,-7.021917343139648,1.0486984252929688,2.759999999999985
-1.7151029109954834,-8.041128158569336,-1.653948426246643,2.769999999999985
-1.7973930835723877,-8.106596946716309,-5.154728889465332,2.7799999999999847
-1.0877151489257812,-6.561479091644287,-8.538020133972168,2.7899999999999845
-0.6329989433288574,-4.485196113586426,-9.733588218688965,2.7999999999999843
-0.7608740329742432,-2.031909465789795,-9.256189346313477,2.809999999999984
-1.5795304775238037,0.22342205047607422,-7.166503429412842,2.819999999999984
-1.5536997318267822,2.106660842895508,-4.146329879760742,2.8299999999999836
-0.4624173641204834,3.442629814147949,-0.060725271701812744,2.8399999999999834
3.1213111877441406,3.141171455383301,3.4370341300964355,2.849999999999983
5.212031364440918,1.6328811645507812,2.86110782623291,2.859999999999983
6.590644836425781,-0.880730152130127,0.6219323873519897,2.869999999999983
6.6575493812561035,-3.011765956878662,-1.104016900062561,2.8799999999999826
5.582455158233643,-4.171194076538086,-0.8154205679893494,2.8899999999999824
1.4790778160095215,-3.112497329711914,1.402190923690796,2.899999999999982
1.4894661903381348,-3.1145057678222656,1.4894659519195557,2.909999999999982
-2.1019234657287598,-0.602513313293457,3.80495548248291,2.9199999999999817
-2.241056442260742,-0.2955455780029297,2.887781858444214,2.9299999999999815
-1.7158691883087158,-0.41915225982666016,1.276859998703003,2.9399999999999813
-0.7729213237762451,-0.3892803192138672,0.23082607984542847,2.949999999999981
-0.2826809883117676,-0.1879110336303711,-4.2426586151123047E-4,2.959999999999981
0.050705909729003906,-0.4574928283691406,-0.06640106439590454,2.9699999999999807
0.4151883125305176,-0.8221645355224609,-0.32941508293151855,2.9799999999999804
0.630669116973877,-1.144089698791504,-0.4761822819709778,2.9899999999999802
0.7656335830688477,-1.2006664276123047,-0.35028892755508423,2.99999999999998
0.8761005401611328,-1.1346588134765625,0.20914477109909058,3.00999999999998
1.1065521240234375,-1.1352438926696777,0.6931151747703552,3.0199999999999796
0.7749752998352051,-0.7975635528564453,1.2226816415786743,3.0299999999999794
0.7802853584289551,-0.5803842544555664,1.4038194417953491,3.039999999999979
1.300203800201416,-0.37713623046875,1.3579292297363281,3.049999999999979
2.060164213180542,0.06447315216064453,1.3480846881866455,3.0599999999999787
2.8855650424957275,0.5217084884643555,2.1193289756774902,3.0699999999999785
3.415951728820801,1.0522489547729492,3.053581714630127,3.0799999999999783
3.2556660175323486,1.354043960571289,2.806674003601074,3.089999999999978
3.151968479156494,0.7993183135986328,1.9960027933120728,3.099999999999978
2.9050724506378174,0.08230304718017578,1.5557126998901367,3.1099999999999777
2.9265432357788086,-0.40146827697753906,1.9124186038970947,3.1199999999999775
3.3446922302246094,-0.2272806167602539,2.2165520191192627,3.1299999999999772
4.158761501312256,0.5962314605712891,1.8848071098327637,3.139999999999977
5.730376243591309,1.3939323425292969,1.157050609588623,3.149999999999977
7.0498738288879395,1.16046142578125,0.7156167030334473,3.1599999999999766
7.925388336181641,0.06305122375488281,0.923038125038147,3.1699999999999764
8.136430740356445,-1.0750517845153809,0.6324687600135803,3.179999999999976
6.632113456726074,-0.7288713455200195,0.28864383697509766,3.189999999999976
6.503102779388428,-0.7006435394287109,0.09190261363983154,3.1999999999999758
3.4434266090393066,1.5254220962524414,0.5653252601623535,3.2099999999999755
2.480410575866699,2.8467788696289062,-0.14584022760391235,3.2199999999999753
2.05403470993042,3.9013986587524414,-0.3448733687400818,3.229999999999975
1.7058544158935547,4.424468040466309,-0.38991814851760864,3.239999999999975
1.5346570014953613,4.456491470336914,-1.0736972093582153,3.2499999999999747
1.2139935493469238,4.670879364013672,-2.3178625106811523,3.2599999999999745
0.03211641311645508,4.900354385375977,-3.7772738933563232,3.2699999999999743
-1.250126600265503,5.036263465881348,-4.354379177093506,3.279999999999974
-2.7823832035064697,5.317010879516602,-4.110041618347168,3.289999999999974
-3.772735834121704,5.356284141540527,-2.8538458347320557,3.2999999999999736
-4.538246154785156,4.758441925048828,-1.9469630718231201,3.3099999999999734
-4.009702205657959,3.9533891677856445,-0.3355715274810791,3.319999999999973
-2.1812891960144043,2.328627586364746,2.9127302169799805,3.329999999999973
-1.2066197395324707,1.1197385787963867,4.70241641998291,3.3399999999999728
-0.47304677963256836,-0.11292648315429688,4.147735595703125,3.3499999999999726
-0.7708339691162109,-0.9599566459655762,1.108452320098877,3.3599999999999723
-1.296748399734497,-1.7705206871032715,-3.5025415420532227,3.369999999999972
-1.6581027507781982,-2.335970878601074,-8.036541938781738,3.379999999999972
-1.1009950637817383,-2.7230381965637207,-8.899712562561035,3.3899999999999717
-0.5985169410705566,-2.981639862060547,-7.717246055603027,3.3999999999999715
-0.06561040878295898,-3.404110908508301,-6.245790004730225,3.4099999999999713
-0.20166587829589844,-3.806851863861084,-5.440692901611328,3.419999999999971
-0.9946002960205078,-3.899721384048462,-5.19252347946167,3.429999999999971
-2.211681365966797,-3.7900683879852295,-4.755985736846924,3.4399999999999706
-3.6701083183288574,-3.861962080001831,-4.098005294799805,3.4499999999999704
-4.537843704223633,-3.7319252490997314,-3.9407191276550293,3.45999999999997
-5.40552282333374,-3.7405810356140137,-3.768381357192993,3.46999999999997
-6.069782257080078,-3.7224814891815186,-3.288494110107422,3.47999999999997
-6.508831977844238,-3.86430287361145,-2.4773168563842773,3.4899999999999696
-6.797995567321777,-4.210619926452637,-1.7115123271942139,3.4999999999999694
-6.623373031616211,-4.61381196975708,-0.9480175971984863,3.509999999999969
-6.3247833251953125,-4.742489814758301,-0.3874058723449707,3.519999999999969
-5.596378326416016,-4.816891670227051,0.7369751930236816,3.5299999999999687
-4.516908645629883,-4.769192695617676,2.512056350708008,3.5399999999999685
-2.5451443195343018,-4.488901138305664,4.359419345855713,3.5499999999999683
-0.060355186462402344,-3.2711400985717773,5.102599143981934,3.559999999999968
4.3677659034729,0.5265016555786133,3.5069379806518555,3.569999999999968
8.349123001098633,5.886953830718994,2.09055757522583,3.5799999999999677
12.173930168151855,11.430154800415039,5.349165439605713,3.5899999999999674
15.547220230102539,13.582971572875977,6.275478363037109,3.5999999999999672
14.814120292663574,12.096784591674805,6.105643272399902,3.609999999999967
7.319336414337158,8.256277084350586,5.601032257080078,3.619999999999967
-0.4358243942260742,4.576758861541748,3.2436931133270264,3.6299999999999666
-4.412531852722168,2.6210455894470215,1.3745534420013428,3.6399999999999664
-7.144455909729004,0.6888775825500488,0.6907503604888916,3.649999999999966
-8.248807907104492,-0.33222150802612305,0.35880398750305176,3.659999999999966
-6.95944881439209,-0.7531132698059082,-0.7248151302337646,3.6699999999999657
-5.934581279754639,-0.9107036590576172,-2.5498297214508057,3.6799999999999655
-3.8566477298736572,1.99992036819458,-8.25566291809082,3.6899999999999653
-1.9662928581237793,4.35343599319458,-12.495361328125,3.699999999999965
-1.0111615657806396,7.446494102478027,-15.432998657226562,3.709999999999965
-2.6236088275909424,9.584504127502441,-14.136637687683105,3.7199999999999647
-4.942781925201416,10.138476371765137,-7.147810459136963,3.7299999999999645
-2.6241159439086914,7.5196075439453125,3.098766326904297,3.7399999999999642
0.4162898063659668,2.24503231048584,5.088107109069824,3.749999999999964
1.9148902893066406,-1.6273021697998047,2.5763490200042725,3.759999999999964
3.06919527053833,-5.357951641082764,-1.7109391689300537,3.7699999999999636
2.918713092803955,-7.399151802062988,-6.426923751831055,3.7799999999999634
0.7656927108764648,-6.51824951171875,-10.01423168182373,3.789999999999963
-2.479020118713379,-4.773845195770264,-10.864110946655273,3.799999999999963
-3.8005824089050293,-3.580643653869629,-9.407456398010254,3.8099999999999627
-3.910508394241333,-2.955935478210449,-7.8115434646606445,3.8199999999999625
-2.052424669265747,-1.2554411888122559,-4.183346748352051,3.8299999999999623
-0.03403282165527344,1.3835830688476562,2.6803195476531982,3.839999999999962
1.586923599243164,2.192549705505371,4.486477851867676,3.849999999999962
3.108055591583252,1.4102287292480469,1.4244133234024048,3.8599999999999617
4.443516731262207,-0.46230220794677734,-1.8911622762680054,3.8699999999999615
4.7118024826049805,-1.749361515045166,-1.9206252098083496,3.8799999999999613
2.742227554321289,-1.9959511756896973,0.5749237537384033,3.889999999999961
0.9354190826416016,-1.0897836685180664,2.950397491455078,3.899999999999961
0.9039573669433594,-1.072524070739746,2.943619966506958,3.9099999999999606
-1.1164803504943848,-1.2498879432678223,2.8923845291137695,3.9199999999999604
-1.7555408477783203,-1.4015240669250488,1.485494613647461,3.92999999999996
-1.6443665027618408,-1.42527437210083,0.42431899905204773,3.93999999999996
-1.0042433738708496,-1.3907828330993652,-0.3001062870025635,3.9499999999999598
0.04869651794433594,-1.078354835510254,-0.8472883701324463,3.9599999999999596
0.8018455505371094,-1.2390975952148438,-1.09291672706604,3.9699999999999593
1.211130142211914,-1.837747573852539,-0.5526528358459473,3.979999999999959
1.4953041076660156,-2.6014480590820312,0.6981217861175537,3.989999999999959
1.7575135231018066,-2.9347147941589355,0.5144284963607788,3.9999999999999587
1.4176154136657715,-2.734452724456787,0.2139066457748413,4.009999999999959
1.171523094177246,-2.387024402618408,0.23425579071044922,4.019999999999959
1.1864800453186035,-1.52769136428833,0.6994225978851318,4.0299999999999585
1.2729086875915527,-0.6281528472900391,1.4484858512878418,4.039999999999958
1.3204002380371094,-0.07813358306884766,1.9844591617584229,4.049999999999958
1.2712278366088867,0.01655101776123047,2.011502742767334,4.059999999999958
1.294238567352295,0.1855173110961914,1.7733380794525146,4.069999999999958
1.5302109718322754,0.7190122604370117,1.531946063041687,4.079999999999957
2.026700019836426,1.4177427291870117,1.998513102531433,4.089999999999957
2.570185661315918,1.7975826263427734,2.823960304260254,4.099999999999957
3.044388771057129,1.333603858947754,2.634636640548706,4.109999999999957
3.0290656089782715,0.8513021469116211,1.8288087844848633,4.119999999999957
3.0733652114868164,0.5900497436523438,1.113400936126709,4.129999999999956
3.3571252822875977,1.1029052734375,1.000827431678772,4.139999999999956
4.136208534240723,1.8071537017822266,1.487473726272583,4.149999999999956
5.353259086608887,2.1465492248535156,1.805307149887085,4.159999999999956
6.640601634979248,1.761418342590332,0.9049238562583923,4.1699999999999555
7.040762901306152,1.160719871520996,0.04882490634918213,4.179999999999955
7.675678253173828,0.35433387756347656,-0.4266955852508545,4.189999999999955
8.706499099731445,-0.2568979263305664,-0.747760534286499,4.199999999999955
8.240894317626953,-0.20252323150634766,0.05477309226989746,4.209999999999955
5.977422714233398,0.3928251266479492,1.1661224365234375,4.2199999999999545
3.105531692504883,1.2639093399047852,0.13566839694976807,4.229999999999954
1.3415851593017578,2.023294448852539,-0.9889988899230957,4.239999999999954
0.37790822982788086,2.8162755966186523,-0.8731595277786255,4.249999999999954
-0.2380528450012207,3.114731788635254,-0.8633806705474854,4.259999999999954
-0.7802584171295166,3.198479652404785,-1.5758228302001953,4.269999999999953
-1.5699281692504883,3.396564483642578,-2.7658021450042725,4.279999999999953
-2.842444896697998,3.965534210205078,-3.8967137336730957,4.289999999999953
-3.4248902797698975,4.410845756530762,-3.918505907058716,4.299999999999953
-4.325953960418701,4.475064277648926,-2.958341121673584,4.3099999999999525
-4.4614691734313965,3.8906631469726562,-1.9815233945846558,4.319999999999952
-3.2743184566497803,3.493128776550293,-0.7141011953353882,4.329999999999952
-1.3154737949371338,2.7247486114501953,2.155686140060425,4.339999999999952
0.271209716796875,2.0790224075317383,4.689953804016113,4.349999999999952
0.9261035919189453,1.4341859817504883,4.467595100402832,4.3599999999999515
0.7869982719421387,0.6075563430786133,1.7465946674346924,4.369999999999951
0.7295236587524414,-0.02994060516357422,-1.9110820293426514,4.379999999999951
0.6372528076171875,-0.6067314147949219,-4.886962890625,4.389999999999951
0.6893601417541504,-1.186159610748291,-6.650593280792236,4.399999999999951
0.5058131217956543,-1.9316587448120117,-7.903804779052734,4.40999999999995
-0.04058027267456055,-2.422330379486084,-7.581679344177246,4.41999999999995
-0.21996593475341797,-3.5347914695739746,-6.319711208343506,4.42999999999995
-0.9709479808807373,-4.45228910446167,-5.948367118835449,4.43999999999995
-1.6154298782348633,-5.144889831542969,-5.589323043823242,4.4499999999999496
-2.5664851665496826,-5.247836589813232,-4.892559051513672,4.459999999999949
-4.339232921600342,-4.764429569244385,-4.773725509643555,4.469999999999949
-5.942246437072754,-4.230128288269043,-4.791106224060059,4.479999999999949
-7.227052688598633,-3.8921422958374023,-4.794070243835449,4.489999999999949
-7.564628601074219,-3.8894808292388916,-4.319090366363525,4.4999999999999485
-7.583772659301758,-4.22252082824707,-3.142176866531372,4.509999999999948
-7.300415992736816,-4.7145915031433105,-1.9307336807250977,4.519999999999948
-6.7194061279296875,-4.943952560424805,-0.4573192596435547,4.529999999999948
-5.8202714920043945,-4.922894477844238,0.7912497520446777,4.539999999999948
-4.555192470550537,-4.751094818115234,2.8978915214538574,4.549999999999947
-3.47454571723938,-4.286501407623291,4.960247039794922,4.559999999999947
-1.006385326385498,-3.030683994293213,6.008356094360352,4.569999999999947
2.3402538299560547,-0.492429256439209,4.748223304748535,4.579999999999947
7.502540111541748,5.573526859283447,3.2172412872314453,4.589999999999947
10.881440162658691,10.74352741241455,5.569457530975342,4.599999999999946
14.254293441772461,13.878626823425293,6.941135883331299,4.609999999999946
14.18966293334961,13.908402442932129,6.965850830078125,4.619999999999946
8.372169494628906,7.519193172454834,4.304925918579102,4.629999999999946
1.937610149383545,3.7488903999328613,3.2707483768463135,4.6399999999999455
-3.4815592765808105,1.3962745666503906,1.1914055347442627,4.649999999999945
-5.871648788452148,0.20368623733520508,0.7564237117767334,4.659999999999945
-6.917548179626465,-0.19424057006835938,1.0314221382141113,4.669999999999945
-5.3551483154296875,-0.5717835426330566,1.2395727634429932,4.679999999999945
-3.9674072265625,-0.7081103324890137,-1.4429047107696533,4.689999999999944
-2.416868209838867,0.9946365356445312,-6.675586700439453,4.699999999999944
-0.7462658882141113,3.8833508491516113,-13.060443878173828,4.709999999999944
-0.8747038841247559,6.334135055541992,-15.875040054321289,4.719999999999944
-3.1333885192871094,8.072418212890625,-13.963762283325195,4.729999999999944
-5.748478889465332,8.445368766784668,-7.561681747436523,4.739999999999943
-3.8206136226654053,7.01608943939209,4.139006614685059,4.749999999999943
-1.2869997024536133,2.805500030517578,7.847342491149902,4.759999999999943
0.47357177734375,-1.5830111503601074,4.884393215179443,4.769999999999943
1.5888862609863281,-4.357786178588867,0.6934653520584106,4.7799999999999425
3.19783353805542,-5.933243751525879,-5.068954944610596,4.789999999999942
2.343776226043701,-4.699573040008545,-8.556913375854492,4.799999999999942
-0.8377106189727783,-2.472428798675537,-9.597177505493164,4.809999999999942
-3.6066155433654785,-0.7705063819885254,-9.72016716003418,4.819999999999942
-4.506218910217285,-0.6905527114868164,-8.514535903930664,4.8299999999999415
-4.051301956176758,-0.8623371124267578,-7.480844974517822,4.839999999999941
-2.2926111221313477,-0.7295632362365723,-4.5445966720581055,4.849999999999941
-0.12529897689819336,-0.2698640823364258,1.628232479095459,4.859999999999941
0.866093635559082,-0.2127695083618164,2.0601916313171387,4.869999999999941
2.056467056274414,-0.5544052124023438,0.18986594676971436,4.87999999999994
3.514004707336426,-1.6891398429870605,-1.2524559497833252,4.88999999999994
4.407365322113037,-2.5627760887145996,-0.7917405366897583,4.89999999999994
4.0783562660217285,-2.728980541229248,1.021386981010437,4.90999999999994
1.4242830276489258,-1.7370824813842773,2.9426424503326416,4.9199999999999395
-0.422884464263916,-1.1018776893615723,3.3097057342529297,4.929999999999939
-0.8976495265960693,-1.0862078666687012,2.8779995441436768,4.939999999999939
-0.8413524627685547,-1.0113844871520996,1.7333842515945435,4.949999999999939
-0.8208966255187988,-1.02122163772583,1.75811767578125,4.959999999999939
-0.4044327735900879,-0.8522634506225586,-0.42806270718574524,4.9699999999999385
-0.31662464141845703,-0.8939485549926758,-0.41906827688217163,4.979999999999938
0.3688993453979492,-0.8758091926574707,0.035489022731781006,4.989999999999938
0.47472381591796875,-1.348538875579834,0.7047247886657715,4.999999999999938
0.3374500274658203,-1.9086356163024902,1.378856897354126,5.009999999999938
0.49010801315307617,-1.8043103218078613,1.2251940965652466,5.019999999999937
0.929232120513916,-1.5578689575195312,1.1544935703277588,5.029999999999937
1.4322919845581055,-1.2767891883850098,1.5205260515213013,5.039999999999937
2.070002555847168,-1.4314045906066895,1.85001540184021,5.049999999999937
2.6670308113098145,-1.7468442916870117,1.6606241464614868,5.0599999999999365
3.0365800857543945,-1.7439918518066406,1.0975955724716187,5.069999999999936
3.133787155151367,-1.2197608947753906,1.0724594593048096,5.079999999999936
2.926370620727539,-0.37743568420410156,1.4366050958633423,5.089999999999936
2.3316891193389893,0.5221586227416992,1.5656577348709106,5.099999999999936
1.9080452919006348,1.1617908477783203,1.4635694026947021,5.1099999999999355
1.6935203075408936,1.3084173202514648,1.6623363494873047,5.119999999999935
1.656116247177124,1.1748590469360352,2.114807605743408,5.129999999999935
1.8242664337158203,1.1517515182495117,2.0355451107025146,5.139999999999935
2.6480226516723633,1.4099864959716797,1.6636919975280762,5.149999999999935
3.6185524463653564,1.920048713684082,1.9545632600784302,5.159999999999934
5.027677059173584,2.0498695373535156,1.9707404375076294,5.169999999999934
6.367900848388672,1.7912712097167969,1.4331300258636475,5.179999999999934
7.6723737716674805,1.0214405059814453,0.7688111066818237,5.189999999999934
7.589065074920654,1.047226905822754,0.7104817628860474,5.199999999999934
8.58580207824707,-1.1790919303894043,0.56911301612854,5.209999999999933
6.568948745727539,-0.41306304931640625,0.7495671510696411,5.219999999999933
4.164190292358398,0.24587249755859375,0.8630226850509644,5.229999999999933
2.4528684616088867,0.5889387130737305,0.35066652297973633,5.239999999999933
0.6530694961547852,1.8185405731201172,-0.5339593291282654,5.2499999999999325
-0.1987590789794922,2.8893375396728516,-0.7369676828384399,5.259999999999932
-0.7089114189147949,4.144001007080078,-0.43431955575942993,5.269999999999932
-0.5001025199890137,4.255923271179199,-0.6486927270889282,5.279999999999932
-0.43499183654785156,4.305779457092285,-1.7128512859344482,5.289999999999932
-1.1480648517608643,4.514774322509766,-3.3439879417419434,5.299999999999931
-2.333796262741089,5.126604080200195,-4.498991966247559,5.309999999999931
-2.746764659881592,5.594669342041016,-4.168035984039307,5.319999999999931
-3.3883981704711914,5.6989545822143555,-3.0648293495178223,5.329999999999931
-3.7885570526123047,5.217111587524414,-2.191287040710449,5.339999999999931
-3.424112558364868,5.078980445861816,-1.1339974403381348,5.34999999999993
-1.6566526889801025,3.505901336669922,1.8048076629638672,5.35999999999993
0.328826904296875,2.0474634170532227,6.001250267028809,5.36999999999993
0.9082036018371582,0.5977449417114258,6.0992326736450195,5.37999999999993
0.7953829765319824,-0.46810007095336914,2.010126829147339,5.3899999999999295
0.839482307434082,-1.5944275856018066,-2.9664306640625,5.399999999999929
0.6693258285522461,-2.830301284790039,-7.0565996170043945,5.409999999999929
0.9317998886108398,-3.4288830757141113,-9.564679145812988,5.419999999999929
1.1285433769226074,-3.795957088470459,-8.833392143249512,5.429999999999929
0.6782341003417969,-4.137310981750488,-7.600549697875977,5.4399999999999284
-0.20574331283569336,-4.130075454711914,-5.366555690765381,5.449999999999928
-1.5715968608856201,-3.79720139503479,-3.9055495262145996,5.459999999999928
-3.1783647537231445,-3.272067070007324,-3.2324728965759277,5.469999999999928
-4.56844425201416,-2.881654739379883,-3.269068717956543,5.479999999999928
-5.7441253662109375,-2.614779472351074,-3.5743932723999023,5.489999999999927
-6.499758720397949,-2.6518115997314453,-3.715702533721924,5.499999999999927
-6.981308937072754,-3.0894908905029297,-3.7243711948394775,5.509999999999927
-7.23987340927124,-3.7832887172698975,-3.493359088897705,5.519999999999927
-6.868639945983887,-4.647121429443359,-2.704120635986328,5.5299999999999265
-6.308828353881836,-5.3419880867004395,-1.6088573932647705,5.539999999999926
-5.76577615737915,-5.752053260803223,-0.9056756496429443,5.549999999999926
-5.410225868225098,-5.691611289978027,-0.6255738735198975,5.559999999999926
-4.657389163970947,-5.240087509155273,0.12547969818115234,5.569999999999926
-3.573864459991455,-4.549793243408203,1.2380561828613281,5.5799999999999255
-2.366147994995117,-3.198916435241699,2.143247127532959,5.589999999999925
0.45696449279785156,-0.4832453727722168,2.8928985595703125,5.599999999999925
4.654898166656494,5.036189556121826,3.096559762954712,5.609999999999925
8.94511604309082,11.527233123779297,3.3183958530426025,5.619999999999925
10.599699020385742,16.425642013549805,5.483704566955566,5.629999999999924
17.5164794921875,15.261725425720215,8.05381965637207,5.639999999999924
16.8528995513916,7.391904830932617,10.498844146728516,5.649999999999924
6.922835826873779,2.588730812072754,9.313423156738281,5.659999999999924
-1.5298709869384766,-0.49622106552124023,5.134430885314941,5.6699999999999235
-6.104447841644287,-2.5221662521362305,1.4688591957092285,5.679999999999923
-8.54718017578125,-4.1944684982299805,-1.1331143379211426,5.689999999999923
-9.581684112548828,-4.518189430236816,-2.2744460105895996,5.699999999999923
-9.379642486572266,-4.015942573547363,-1.9795310497283936,5.709999999999923
-6.9710283279418945,-2.609915256500244,-2.0228195190429688,5.7199999999999225
-3.6412529945373535,0.5896615982055664,-6.1386919021606445,5.729999999999922
-1.076143741607666,3.4311628341674805,-10.306638717651367,5.739999999999922
1.1148781776428223,7.415589332580566,-15.010693550109863,5.749999999999922
0.47228574752807617,11.434087753295898,-16.45706558227539,5.759999999999922
-1.9777791500091553,14.137045860290527,-12.561258316040039,5.769999999999921
-2.0477545261383057,15.40893840789795,0.5076789855957031,5.779999999999921
1.710278034210205,9.570390701293945,10.455389022827148,5.789999999999921
2.4991230964660645,2.8718690872192383,8.633537292480469,5.799999999999921
2.9557504653930664,-3.1987195014953613,6.103816509246826,5.809999999999921
3.8978381156921387,-7.587777614593506,1.1905969381332397,5.81999999999992
2.5065135955810547,-8.92526912689209,-4.891297817230225,5.82999999999992
-1.0270888805389404,-6.7225751876831055,-9.294754981994629,5.83999999999992
-3.5095973014831543,-4.409199237823486,-12.091208457946777,5.84999999999992
-4.935664653778076,-3.329376220703125,-11.404144287109375,5.8599999999999195
-5.803047180175781,-3.1117868423461914,-9.150242805480957,5.869999999999919
-5.726054668426514,-2.4861178398132324,-6.940676212310791,5.879999999999919
-3.595811367034912,-0.052910804748535156,-3.7340004444122314,5.889999999999919
-0.6244304180145264,2.338179588317871,3.813269853591919,5.899999999999919
0.8999972343444824,2.5766162872314453,3.389866590499878,5.909999999999918
2.8063926696777344,1.3932666778564453,1.2346311807632446,5.919999999999918
4.581487655639648,-0.4945697784423828,-1.504072666168213,5.929999999999918
5.743393898010254,-2.009730815887451,-1.383709192276001,5.939999999999918
5.3913960456848145,-3.208939552307129,0.671378493309021,5.949999999999918
3.321669101715088,-3.126756191253662,3.404677391052246,5.959999999999917
0.32894372940063477,-2.084259510040283,4.3675994873046875,5.969999999999917
-0.8731625080108643,-1.7947421073913574,3.625460624694824,5.979999999999917
-0.8372411727905273,-1.7189726829528809,1.891913652420044,5.989999999999917
-0.8081517219543457,-1.5550312995910645,0.2023085057735443,5.9999999999999165
-0.8985235691070557,-1.2076449394226074,-0.7432287335395813,6.009999999999916
-0.8688504695892334,-1.2221646308898926,-0.7164371609687805,6.019999999999916
-0.6979095935821533,-0.7794537544250488,-0.5019252896308899,6.029999999999916
-0.39843225479125977,-0.9377827644348145,0.05322808027267456,6.039999999999916
-0.020996570587158203,-1.4281291961669922,0.6425431966781616,6.0499999999999154
0.24524354934692383,-1.9484992027282715,1.080003261566162,6.059999999999915
0.1489429473876953,-2.1841235160827637,1.0411301851272583,6.069999999999915
-0.23811674118041992,-2.166083335876465,0.5275784134864807,6.079999999999915
-0.7454767227172852,-1.9320878982543945,-0.15374743938446045,6.089999999999915
-0.7071278095245361,-1.5078363418579102,-0.22053897380828857,6.099999999999914
-0.1817617416381836,-0.7393941879272461,0.2025684118270874,6.109999999999914
0.7052092552185059,-0.14401912689208984,0.879109263420105,6.119999999999914
1.249138355255127,-0.09359359741210938,0.9506733417510986,6.129999999999914
1.3087902069091797,-0.4086790084838867,0.9861235618591309,6.1399999999999135
1.1070129871368408,-0.573211669921875,1.2548669576644897,6.149999999999913
1.3864736557006836,-0.17423629760742188,1.2577636241912842,6.159999999999913
2.223996639251709,0.529353141784668,1.1838072538375854,6.169999999999913
3.258478879928589,0.7893161773681641,1.9112988710403442,6.179999999999913
3.7810142040252686,0.5504770278930664,2.8007750511169434,6.1899999999999125
3.8899142742156982,-0.20585918426513672,2.3270883560180664,6.199999999999912
3.7208707332611084,-0.3898153305053711,0.9724388122558594,6.209999999999912
3.885239839553833,0.21848392486572266,0.6486107110977173,6.219999999999912
4.685429096221924,1.5075855255126953,1.0056899785995483,6.229999999999912
6.323285102844238,2.6192378997802734,1.7536739110946655,6.239999999999911
7.89232873916626,3.087094306945801,1.7819445133209229,6.249999999999911
8.7239990234375,2.8768396377563477,1.125016450881958,6.259999999999911
8.598761558532715,1.9141874313354492,0.5694749355316162,6.269999999999911
6.798691749572754,1.68707275390625,0.6641621589660645,6.2799999999999105
4.377405166625977,2.0754013061523438,0.6970016956329346,6.28999999999991
2.6945295333862305,2.460749626159668,0.6462876200675964,6.29999999999991
1.9108614921569824,2.829461097717285,0.7372393012046814,6.30999999999991
1.1365547180175781,3.5319900512695312,0.38202613592147827,6.31999999999991
0.012699127197265625,4.542278289794922,0.2654140591621399,6.3299999999999095
-0.7783048152923584,5.246372222900391,0.24462458491325378,6.339999999999909
-1.17488694190979,5.129218101501465,-0.12096843123435974,6.349999999999909
-1.262664556503296,4.649147987365723,-1.377973198890686,6.359999999999909
-1.5484235286712646,4.133176803588867,-2.660121440887451,6.369999999999909
-2.335524797439575,3.355013847351074,-3.519953727722168,6.379999999999908
-3.4305334091186523,1.8437795639038086,-3.648545742034912,6.389999999999908
-3.583573341369629,1.1570367813110352,-3.4779250621795654,6.399999999999908
-3.1512105464935303,0.30655384063720703,-3.3013758659362793,6.409999999999908
-2.4960930347442627,-0.08538150787353516,-3.265350341796875,6.419999999999908
-1.4942529201507568,-0.5284423828125,-2.661419630050659,6.429999999999907
-0.37346315383911133,-0.8770451545715332,-1.0459020137786865,6.439999999999907
1.148930549621582,-1.8019161224365234,1.835389494895935,6.449999999999907
1.7018189430236816,-2.3172407150268555,3.6057627201080322,6.459999999999907
1.2855534553527832,-2.074221134185791,3.4342634677886963,6.4699999999999065
0.3704519271850586,-1.14967679977417,1.3272953033447266,6.479999999999906
-0.5209450721740723,-0.08772754669189453,-1.327088713645935,6.489999999999906
-1.4219088554382324,0.9873547554016113,-3.8019766807556152,6.499999999999906
-1.9312121868133545,1.670651912689209,-5.341129302978516,6.509999999999906
-2.221951961517334,1.9631314277648926,-6.3806047439575195,6.519999999999905
-2.6901378631591797,1.6693873405456543,-7.327522277832031,6.529999999999905
-3.152665615081787,1.1074447631835938,-6.862753868103027,6.539999999999905
-3.350719451904297,0.011196136474609375,-4.996591091156006,6.549999999999905
-3.4764580726623535,-1.1168079376220703,-2.706660270690918,6.559999999999905
-3.2780637741088867,-2.005044460296631,-0.8628103733062744,6.569999999999904
-3.0867161750793457,-2.263526439666748,-0.4171781539916992,6.579999999999904
-2.8810110092163086,-2.3529129028320312,-0.7381043434143066,6.589999999999904
-2.6302194595336914,-2.462131977081299,-1.513930082321167,6.599999999999904
-2.5079145431518555,-2.639873504638672,-2.2489566802978516,6.6099999999999035
-2.4839398860931396,-2.947761058807373,-2.4103593826293945,6.619999999999903
-2.48203706741333,-3.200545310974121,-2.0252413749694824,6.629999999999903
-2.6246469020843506,-3.399972677230835,-1.3665142059326172,6.639999999999903
-2.826265811920166,-3.630751132965088,-0.5662853717803955,6.649999999999903
-2.9373536109924316,-3.8013670444488525,-0.0319666862487793,6.659999999999902
-2.9029150009155273,-3.9883997440338135,0.21184873580932617,6.669999999999902
-2.6784064769744873,-4.057037353515625,0.3708930015563965,6.679999999999902
-2.3609519004821777,-4.0599822998046875,0.5057187080383301,6.689999999999902
-2.060192823410034,-3.9992001056671143,0.7298064231872559,6.699999999999902
-1.6362297534942627,-3.7042593955993652,1.2206411361694336,6.709999999999901
-1.1091947555541992,-3.0624442100524902,1.8871049880981445,6.719999999999901
-0.27197980880737305,-1.87349271774292,2.385014295578003,6.729999999999901
0.9864120483398438,0.1265420913696289,2.3840949535369873,6.739999999999901
2.530223846435547,3.155478000640869,2.1641299724578857,6.7499999999999005
4.139729022979736,5.8255934715271,2.715210199356079,6.7599999999999
5.852555274963379,8.21236515045166,3.3787548542022705,6.7699999999999
7.466048240661621,7.9975056648254395,4.2796173095703125,6.7799999999999
7.931301593780518,6.352636814117432,4.762264251708984,6.7899999999999
4.305566787719727,4.8042426109313965,5.478278160095215,6.7999999999998995
-2.4316999912261963,3.1160459518432617,5.292651176452637,6.809999999999899
-6.404121398925781,1.2179551124572754,3.9406423568725586,6.819999999999899
-8.284046173095703,-1.2260122299194336,2.557263135910034,6.829999999999899
-8.024859428405762,-2.93743896484375,0.34725046157836914,6.839999999999899
-7.18982458114624,-3.285761833190918,-2.202197790145874,6.849999999999898
-6.576645374298096,-1.9557437896728516,-4.083749771118164,6.859999999999898
-5.209275245666504,0.3961319923400879,-4.692437171936035,6.869999999999898
-3.16570782661438,2.3527894020080566,-5.842189788818359,6.879999999999898
-0.6050877571105957,5.273576736450195,-7.809114456176758,6.8899999999998975
2.023655414581299,9.796761512756348,-9.832358360290527,6.899999999999897
3.9345827102661133,15.530216217041016,-12.216774940490723,6.909999999999897
5.008608341217041,18.688547134399414,-8.578003883361816,6.919999999999897
6.780508995056152,14.133101463317871,1.5095677375793457,6.929999999999897
7.1969733238220215,5.789639472961426,5.498210906982422,6.9399999999998965
6.185582637786865,-0.1364269256591797,5.3872270584106445,6.949999999999896
4.639280319213867,-3.7467775344848633,3.672837734222412,6.959999999999896
3.3704423904418945,-6.302114486694336,1.1389389038085938,6.969999999999896
0.7772669792175293,-8.514484405517578,-1.6486828327178955,6.979999999999896
-2.1401660442352295,-8.812155723571777,-6.57243013381958,6.989999999999895
-3.4025964736938477,-7.830617427825928,-10.313051223754883,6.999999999999895
-4.269528388977051,-6.024775505065918,-12.556197166442871,7.009999999999895
-4.245650768280029,-4.240539073944092,-11.838024139404297,7.019999999999895
-3.4094924926757812,-2.9345250129699707,-9.982919692993164,7.0299999999998946
-2.182547092437744,-1.6116108894348145,-7.908024311065674,7.039999999999894
-1.0979797840118408,0.18041324615478516,-6.239931106567383,7.049999999999894
-1.0361669063568115,1.5400991439819336,-5.355615139007568,7.059999999999894
-0.7671151161193848,2.587601661682129,-4.20358943939209,7.069999999999894
1.4742636680603027,3.6970930099487305,5.280025959014893,7.0799999999998935
2.8266682624816895,3.9132766723632812,7.3460259437561035,7.089999999999893
2.855879783630371,3.0320730209350586,3.785841941833496,7.099999999999893
2.898606300354004,1.6120414733886719,0.6407053470611572,7.109999999999893
2.507293701171875,0.9757366180419922,-0.200894296169281,7.119999999999893
0.8354687690734863,1.0043678283691406,0.591204822063446,7.129999999999892
-0.7135043144226074,1.1666879653930664,1.2217822074890137,7.139999999999892
-1.5811562538146973,1.0563716888427734,0.7080044150352478,7.149999999999892
-1.9089775085449219,0.6713809967041016,-0.6889986991882324,7.159999999999892
-2.1283254623413086,0.22627544403076172,-2.552794933319092,7.169999999999892
-2.1184189319610596,-0.095947265625,-3.4447638988494873,7.179999999999891
-1.7209384441375732,-0.3263740539550781,-3.6491265296936035,7.189999999999891
-1.0879499912261963,-0.48075342178344727,-3.71810245513916,7.199999999999891
-0.29170846939086914,-0.5840797424316406,-2.9072189331054688,7.209999999999891
0.8350992202758789,-0.708338737487793,-1.3845834732055664,7.2199999999998905
1.8981890678405762,-0.9841995239257812,0.25487983226776123,7.22999999999989
2.557011127471924,-1.5045547485351562,1.1769251823425293,7.23999999999989
2.907301902770996,-2.0869932174682617,1.3181123733520508,7.24999999999989
2.5376272201538086,-2.3895492553710938,0.6602848172187805,7.25999999999989
1.6083760261535645,-2.1480231285095215,-0.13234078884124756,7.269999999999889
0.7151970863342285,-1.3634099960327148,-0.8377609252929688,7.279999999999889
0.057190895080566406,-0.2339649200439453,-1.224198579788208,7.289999999999889
-0.36465883255004883,0.6253671646118164,-1.3719013929367065,7.299999999999889
-0.8545689582824707,1.583876609802246,-1.2785522937774658,7.309999999999889
-1.3023529052734375,2.3549604415893555,-0.9777721166610718,7.319999999999888
-1.6946511268615723,2.6407594680786133,-0.5991891622543335,7.329999999999888
-1.7029199600219727,2.64450740814209,-0.5768183469772339,7.339999999999888
-1.9579274654388428,1.2785892486572266,0.12249988317489624,7.349999999999888
-1.725292444229126,0.4552459716796875,0.30997660756111145,7.3599999999998875
-1.3375961780548096,-0.24370193481445312,0.2778806984424591,7.369999999999887
-0.8281335830688477,-0.6987752914428711,0.1280767321586609,7.379999999999887
-0.14771270751953125,-0.9726996421813965,-0.0975046157836914,7.389999999999887
0.7647323608398438,-1.1771149635314941,-0.4366510212421417,7.399999999999887
1.6586661338806152,-1.0811653137207031,-1.327675700187683,7.4099999999998865
2.156930923461914,-0.775388240814209,-2.174182176589966,7.419999999999886
2.5288000106811523,-0.4805488586425781,-2.733916759490967,7.429999999999886
2.550963878631592,-0.21150588989257812,-2.4818122386932373,7.439999999999886
1.9805293083190918,-0.21675491333007812,-2.465693712234497,7.449999999999886
0.6799731254577637,-0.3127307891845703,-2.6467201709747314,7.459999999999885
0.14064455032348633,-0.17825031280517578,-0.6740841865539551,7.469999999999885
0.27163076400756836,-0.0019426345825195312,2.3750052452087402,7.479999999999885
-0.6448826789855957,0.47240447998046875,2.758525848388672,7.489999999999885
-1.317291498184204,0.06851959228515625,2.483510971069336,7.4999999999998845
-1.6407837867736816,-0.05577564239501953,1.1431999206542969,7.509999999999884
-1.6501054763793945,-0.23722362518310547,0.12563355267047882,7.519999999999884
-1.7678277492523193,0.0898599624633789,-0.17614209651947021,7.529999999999884
-1.4068257808685303,0.057342529296875,-0.22171363234519958,7.539999999999884
-0.6608352661132812,-0.30901145935058594,-0.22555260360240936,7.5499999999998835
0.08053445816040039,-0.3797025680541992,-0.1511887013912201,7.559999999999883
0.4103527069091797,0.020048141479492188,-0.04872392117977142,7.569999999999883
0.6072802543640137,0.25292301177978516,0.11868198961019516,7.579999999999883
0.5919747352600098,0.3492431640625,0.1042376458644867,7.589999999999883
0.40262460708618164,0.3329620361328125,-0.07087378948926926,7.599999999999882
0.12948846817016602,0.2630300521850586,-0.23709896206855774,7.609999999999882
-0.0714421272277832,0.16792964935302734,-0.1610240936279297,7.619999999999882
-0.15671110153198242,0.06181907653808594,-0.06755495071411133,7.629999999999882
-0.1095724105834961,0.03806018829345703,0.05603673309087753,7.6399999999998816
-0.08362913131713867,0.05851173400878906,0.19040603935718536,7.649999999999881
-0.033452510833740234,0.09679126739501953,0.2544211149215698,7.659999999999881
-0.009067058563232422,0.11214160919189453,0.2525315284729004,7.669999999999881
-0.18998003005981445,0.13324832916259766,0.19431787729263306,7.679999999999881
-0.45024919509887695,0.14500045776367188,0.13908305764198303,7.6899999999998805
-0.7125625610351562,0.16378021240234375,0.12766535580158234,7.69999999999988
-0.8854501247406006,0.14380645751953125,0.13287323713302612,7.70999999999988
-0.915395975112915,0.12534332275390625,0.07828626036643982,7.71999999999988
-0.9116272926330566,0.1963968276977539,-0.023653043434023857,7.72999999999988
-0.9067373275756836,0.19368839263916016,-0.01625533401966095,7.739999999999879
-0.5733847618103027,0.37377166748046875,-0.021199585869908333,7.749999999999879
-0.35720205307006836,0.41252803802490234,0.005290361121296883,7.759999999999879
-0.17726659774780273,0.34612464904785156,-0.06247150897979736,7.769999999999879
-0.12014579772949219,0.23227882385253906,-0.152021586894989,7.779999999999879
-0.15492868423461914,0.12854862213134766,-0.2880975604057312,7.789999999999878
-0.21711397171020508,0.05891895294189453,-0.20602211356163025,7.799999999999878
-0.23981952667236328,-0.029152870178222656,-0.027270212769508362,7.809999999999878
-0.2399582862854004,-0.15717792510986328,0.1078551784157753,7.819999999999878
-0.114105224609375,-0.2559690475463867,0.21433520317077637,7.8299999999998775
-0.03871965408325195,-0.2732095718383789,0.22020891308784485,7.839999999999877
0.08063697814941406,-0.21912574768066406,0.12551899254322052,7.849999999999877
0.1847214698791504,-0.16580486297607422,0.03075307607650757,7.859999999999877
0.25911569595336914,-0.1348438262939453,-0.04014080762863159,7.869999999999877
0.23392915725708008,-0.14266204833984375,-0.09838350117206573,7.879999999999876
0.1683640480041504,-0.2727394104003906,-0.028630182147026062,7.889999999999876
0.1867222785949707,-0.3357877731323242,-0.02907252311706543,7.899999999999876
0.16016054153442383,-0.2697639465332031,-0.07516689598560333,7.909999999999876
0.23483657836914062,-0.22318553924560547,-0.016519397497177124,7.919999999999876
0.3475666046142578,-0.16923236846923828,0.1621370166540146,7.929999999999875
0.38555145263671875,-0.08380603790283203,0.30844846367836,7.939999999999875
0.47878408432006836,-0.039051055908203125,0.30555495619773865,7.949999999999875
0.40431880950927734,-0.03246498107910156,0.23431524634361267,7.959999999999875
0.12043428421020508,0.07404708862304688,0.5914777517318726,7.9699999999998745
0.45933055877685547,-0.10077953338623047,0.43079760670661926,7.979999999999874
0.3159332275390625,-0.02601337432861328,0.195503368973732,7.989999999999874
