AccX,AccY,AccZ,SampleRate
1.951061487197876,-1.2593917846679688,1.4738638401031494,0
2.31243634223938,-1.6509861946105957,1.4085114002227783,0.01
2.3962764739990234,-1.7998323440551758,1.1950480937957764,0.02
2.289747953414917,-1.7913966178894043,0.8769030570983887,0.03
1.7232232093811035,-1.6941685676574707,0.8045082092285156,0.04
0.7971136569976807,-1.4228477478027344,0.8543574213981628,0.05
0.2669398784637451,-1.0413188934326172,0.8361906409263611,0.060000000000000005
0.03162026405334473,-0.6962966918945312,0.8456273078918457,0.07
-0.08602547645568848,-0.30558300018310547,0.9398640394210815,0.08
-0.1718912124633789,0.19782352447509766,0.9978536367416382,0.09
-0.26094865798950195,0.3277854919433594,1.143506646156311,0.09999999999999999
-0.337587833404541,0.4365081787109375,1.0971912145614624,0.10999999999999999
-0.22144412994384766,0.5600547790527344,0.9716118574142456,0.11999999999999998
-0.0012443065643310547,0.9500312805175781,0.7277837991714478,0.12999999999999998
0.2981555461883545,1.4603967666625977,0.6659311056137085,0.13999999999999999
0.9096071720123291,1.968001365661621,1.0377881526947021,0.15
1.4740869998931885,2.000821113586426,1.4793623685836792,0.16
2.106111764907837,1.5567169189453125,1.562201738357544,0.17
2.681485891342163,1.1530342102050781,1.1399993896484375,0.18000000000000002
3.0409438610076904,1.2850532531738281,0.6171998977661133,0.19000000000000003
3.5397868156433105,1.8833093643188477,0.3879741430282593,0.20000000000000004
4.364788055419922,2.9204893112182617,0.6846917867660522,0.21000000000000005
4.895832061767578,3.3261966705322266,1.073143482208252,0.22000000000000006
5.471719741821289,3.2214488983154297,1.2777577638626099,0.23000000000000007
5.791905403137207,2.8756046295166016,1.3619887828826904,0.24000000000000007
5.889319896697998,2.4042654037475586,1.2184069156646729,0.25000000000000006
5.527606010437012,1.9783916473388672,0.9023752212524414,0.26000000000000006
4.8695573806762695,1.6062088012695312,0.6790276765823364,0.2700000000000001
4.1209917068481445,1.3493003845214844,0.7976632118225098,0.2800000000000001
3.1607840061187744,0.94482421875,1.2761549949645996,0.2900000000000001
1.9218244552612305,0.7583160400390625,1.7087037563323975,0.3000000000000001
0.4845561981201172,0.8191184997558594,1.2299739122390747,0.3100000000000001
-0.9391177892684937,1.0858707427978516,0.6666280031204224,0.3200000000000001
-1.4084383249282837,1.5597257614135742,0.6522121429443359,0.3300000000000001
-0.65936279296875,1.5338315963745117,0.17813627421855927,0.34000000000000014
-0.19426298141479492,1.3406944274902344,-1.0415247678756714,0.35000000000000014
-0.7151591777801514,1.1793212890625,-2.476543426513672,0.36000000000000015
-1.7318652868270874,1.2420120239257812,-3.447927474975586,0.37000000000000016
-1.9465843439102173,1.4378080368041992,-3.394097328186035,0.38000000000000017
-1.4286723136901855,1.557516098022461,-2.2403512001037598,0.3900000000000002
-1.0542402267456055,1.654520034790039,-1.4655566215515137,0.4000000000000002
-0.3364851474761963,1.4451160430908203,-0.9060790538787842,0.4100000000000002
0.19125723838806152,1.3391590118408203,-0.7792310118675232,0.4200000000000002
0.48148226737976074,1.7710399627685547,-0.24966740608215332,0.4300000000000002
0.8700511455535889,1.1956329345703125,1.2552378177642822,0.4400000000000002
1.0489799976348877,0.21421432495117188,2.4846203327178955,0.45000000000000023
0.3874495029449463,-0.23415279388427734,2.2307991981506348,0.46000000000000024
-0.7323455810546875,-0.3041496276855469,0.6224246025085449,0.47000000000000025
-1.4988842010498047,-0.19569110870361328,-2.00651216506958,0.48000000000000026
-1.6721028089523315,-0.36298179626464844,-4.1249775886535645,0.49000000000000027
-1.8018256425857544,-0.5389719009399414,-5.992964744567871,0.5000000000000002
-2.099905014038086,-0.8205270767211914,-6.919703006744385,0.5100000000000002
-2.0737361907958984,-1.0917911529541016,-6.663514614105225,0.5200000000000002
-1.9713830947875977,-1.7502098083496094,-5.744591236114502,0.5300000000000002
-2.1953749656677246,-2.363483428955078,-4.605606555938721,0.5400000000000003
-2.8691513538360596,-2.8532142639160156,-3.088869094848633,0.5500000000000003
-3.504269599914551,-3.1604413986206055,-2.049717903137207,0.5600000000000003
-4.040987968444824,-3.2429685592651367,-1.5630429983139038,0.5700000000000003
-4.194821357727051,-3.4666800498962402,-1.4440028667449951,0.5800000000000003
-4.2988739013671875,-3.689502239227295,-1.13960862159729,0.5900000000000003
-4.064640522003174,-3.9767022132873535,-0.8949105739593506,0.6000000000000003
-3.7078561782836914,-4.359387397766113,-0.5642549991607666,0.6100000000000003
-3.2814605236053467,-4.715751647949219,-0.17123079299926758,0.6200000000000003
-2.7814128398895264,-4.999235153198242,0.49301934242248535,0.6300000000000003
-2.3223185539245605,-4.959365367889404,1.3370444774627686,0.6400000000000003
-1.713477611541748,-4.4964280128479,2.422133684158325,0.6500000000000004
-0.7991025447845459,-3.757877826690674,3.616786241531372,0.6600000000000004
0.4124906063079834,-2.755201816558838,4.203968048095703,0.6700000000000004
2.2748899459838867,-1.0160789489746094,3.391230821609497,0.6800000000000004
4.284577369689941,2.1758852005004883,2.111508846282959,0.6900000000000004
5.526875019073486,4.530508995056152,1.723249912261963,0.7000000000000004
5.519839763641357,4.487574577331543,1.874605655670166,0.7100000000000004
6.964838027954102,6.525733947753906,1.3059265613555908,0.7200000000000004
5.253568649291992,4.851079940795898,1.5697855949401855,0.7300000000000004
3.019751787185669,3.196958541870117,2.445058822631836,0.7400000000000004
0.4764828681945801,1.8678569793701172,3.2408559322357178,0.7500000000000004
-1.481917381286621,1.1618223190307617,4.034677028656006,0.7600000000000005
-3.4327614307403564,0.9085826873779297,4.439489364624023,0.7700000000000005
-4.352506637573242,1.3599987030029297,4.187328338623047,0.7800000000000005
-3.911391496658325,1.9812850952148438,3.36186146736145,0.7900000000000005
-2.4930310249328613,2.589468002319336,2.0062317848205566,0.8000000000000005
-1.5022506713867188,4.211644172668457,-0.6783407926559448,0.8100000000000005
-1.0650992393493652,5.948887825012207,-4.2732954025268555,0.8200000000000005
-0.6671454906463623,8.222603797912598,-8.509721755981445,0.8300000000000005
-1.5832898616790771,9.583379745483398,-11.086217880249023,0.8400000000000005
-3.8329696655273438,9.644160270690918,-8.418381690979004,0.8500000000000005
-4.177213668823242,5.149106979370117,-1.8439449071884155,0.8600000000000005
-1.8004043102264404,-3.182173252105713,2.2196788787841797,0.8700000000000006
-0.9121718406677246,-6.510969161987305,2.434091806411743,0.8800000000000006
-0.8596365451812744,-8.172752380371094,-0.49774444103240967,0.8900000000000006
-2.459378719329834,-7.962250709533691,-4.108746528625488,0.9000000000000006
-3.7229795455932617,-7.101372241973877,-6.9085493087768555,0.9100000000000006
-3.9692201614379883,-5.572962284088135,-9.221076965332031,0.9200000000000006
-3.474283456802368,-3.7884058952331543,-10.072457313537598,0.9300000000000006
-2.999084949493408,-1.7737879753112793,-9.4365873336792,0.9400000000000006
-2.2859995365142822,0.045986175537109375,-7.434274196624756,0.9500000000000006
-1.5062520503997803,1.852142333984375,-4.74470329284668,0.9600000000000006
-0.0873103141784668,3.6577606201171875,1.302027702331543,0.9700000000000006
2.006901741027832,4.713864326477051,7.554862022399902,0.9800000000000006
2.6175544261932373,3.9048452377319336,6.37915563583374,0.9900000000000007
2.8989479541778564,2.6725282669067383,3.325310230255127,1.0000000000000007
3.40954327583313,0.6123189926147461,0.5606784820556641,1.0100000000000007
3.569669723510742,-1.71528959274292,-1.1403183937072754,1.0200000000000007
2.0862789154052734,-2.8117222785949707,-2.2871742248535156,1.0300000000000007
0.32399654388427734,-2.6484880447387695,-0.8475251793861389,1.0400000000000007
0.4551277160644531,-2.265885829925537,1.074498176574707,1.0500000000000007
1.067479133605957,-1.7166991233825684,1.906904697418213,1.0600000000000007
1.0630152225494385,-0.8056392669677734,1.849247932434082,1.0700000000000007
1.0264053344726562,-0.40592002868652344,0.8509714007377625,1.0800000000000007
0.9763884544372559,-0.3649110794067383,-0.13160836696624756,1.0900000000000007
0.7145266532897949,-0.6569614410400391,-0.27221035957336426,1.1000000000000008
0.5153815746307373,-1.2704429626464844,0.49537384510040283,1.1100000000000008
0.5813789367675781,-1.654554843902588,1.1075513362884521,1.1200000000000008
0.9197993278503418,-1.878526210784912,0.9209854006767273,1.1300000000000008
1.142380714416504,-1.774977684020996,0.11267656087875366,1.1400000000000008
1.1594974994659424,-1.4985318183898926,-0.5155866146087646,1.1500000000000008
1.4413447380065918,-1.8130369186401367,-0.7767796516418457,1.1600000000000008
0.7924642562866211,-1.7486553192138672,-0.444141149520874,1.1700000000000008
0.09380030632019043,-1.3014545440673828,-0.13494062423706055,1.1800000000000008
-0.18192577362060547,-1.0722894668579102,0.2918519973754883,1.1900000000000008
-0.5118496417999268,-0.3198518753051758,0.9443566799163818,1.2000000000000008
-0.5701091289520264,0.5029335021972656,1.575313925743103,1.2100000000000009
-0.4618566036224365,1.0232648849487305,2.030459403991699,1.2200000000000009
0.24022603034973145,1.1149768829345703,2.1437320709228516,1.2300000000000009
1.1117455959320068,1.1403694152832031,2.0229098796844482,1.2400000000000009
2.296686887741089,1.1375303268432617,1.831134557723999,1.2500000000000009
3.4730820655822754,1.0127182006835938,2.074897289276123,1.260000000000001
4.268405914306641,0.6388006210327148,2.5904839038848877,1.270000000000001
4.529000282287598,0.0822601318359375,2.8453452587127686,1.280000000000001
4.330191135406494,-0.2029867172241211,2.313143491744995,1.290000000000001
4.1356048583984375,0.1009378433227539,1.7717334032058716,1.300000000000001
4.153040885925293,1.1886024475097656,1.4588119983673096,1.310000000000001
4.779658317565918,2.712890625,1.2754424810409546,1.320000000000001
5.5843892097473145,3.654787063598633,1.4922605752944946,1.330000000000001
6.5271897315979,3.6427698135375977,1.5658100843429565,1.340000000000001
7.349029541015625,2.818720817565918,0.5333219766616821,1.350000000000001
7.606768608093262,1.875025749206543,-0.6010420322418213,1.360000000000001
7.7365922927856445,1.0411901473999023,-1.390891432762146,1.370000000000001
6.195592880249023,1.1204032897949219,-0.9247167110443115,1.380000000000001
3.253716230392456,1.936288833618164,0.5440444350242615,1.390000000000001
0.9572370052337646,2.648369789123535,1.1445163488388062,1.400000000000001
-0.49417638778686523,3.6365222930908203,0.09415137767791748,1.410000000000001
-1.1320617198944092,4.440715789794922,-0.7999464869499207,1.420000000000001
-1.3197622299194336,4.589146614074707,-1.2605328559875488,1.430000000000001
-1.6677725315093994,4.201597213745117,-1.586459755897522,1.440000000000001
-2.418377637863159,3.745791435241699,-1.8703336715698242,1.450000000000001
-3.2036337852478027,3.055323600769043,-2.1791598796844482,1.460000000000001
-4.447717666625977,2.3573131561279297,-2.309563636779785,1.470000000000001
-5.0603766441345215,1.9306440353393555,-1.9464423656463623,1.480000000000001
-5.1211957931518555,1.938309669494629,-1.081193208694458,1.490000000000001
-4.119328498840332,1.7789363861083984,-0.5594516396522522,1.500000000000001
-2.2803750038146973,1.05767822265625,-0.7565032839775085,1.5100000000000011
-0.9089019298553467,0.9165763854980469,-0.3796536922454834,1.5200000000000011
0.40450024604797363,0.4455404281616211,1.2019176483154297,1.5300000000000011
0.9904894828796387,-0.04750347137451172,1.9987893104553223,1.5400000000000011
1.4315106868743896,-0.6292123794555664,1.5399789810180664,1.5500000000000012
0.9583010673522949,-0.8627424240112305,-0.23383402824401855,1.5600000000000012
0.054056406021118164,-1.0684990882873535,-2.4646739959716797,1.5700000000000012
-0.7687790393829346,-0.975644588470459,-4.361373424530029,1.5800000000000012
-0.911879301071167,-0.5692124366760254,-6.315385341644287,1.5900000000000012
-1.3940715789794922,-0.8414645195007324,-7.602034568786621,1.6000000000000012
-2.104475259780884,-1.3846197128295898,-8.447542190551758,1.6100000000000012
-2.774758815765381,-1.967905044555664,-7.186550617218018,1.6200000000000012
-3.571946144104004,-2.5159411430358887,-5.620780944824219,1.6300000000000012
-4.479823112487793,-2.9820079803466797,-3.950875759124756,1.6400000000000012
-5.391985893249512,-3.419407844543457,-2.423896074295044,1.6500000000000012
-5.256685733795166,-3.7502551078796387,-2.168689250946045,1.6600000000000013
-5.356420516967773,-4.063892841339111,-1.9716870784759521,1.6700000000000013
-5.108486175537109,-4.397454261779785,-1.390512228012085,1.6800000000000013
-4.4016618728637695,-4.705113410949707,-1.173802137374878,1.6900000000000013
-3.824312925338745,-5.070425033569336,-0.5998721122741699,1.7000000000000013
-3.3040688037872314,-5.321079254150391,0.11512422561645508,1.7100000000000013
-2.960508346557617,-5.498054504394531,0.660062313079834,1.7200000000000013
-2.3764514923095703,-5.6071038246154785,1.4061625003814697,1.7300000000000013
-1.6551508903503418,-5.323025703430176,2.45365047454834,1.7400000000000013
-0.8956799507141113,-4.663200855255127,3.8500709533691406,1.7500000000000013
0.1982860565185547,-3.4926705360412598,4.615769386291504,1.7600000000000013
2.351780652999878,-0.9237451553344727,3.6905288696289062,1.7700000000000014
4.28895378112793,2.2108516693115234,2.631722927093506,1.7800000000000014
6.030520915985107,6.572556495666504,2.211850166320801,1.7900000000000014
7.75368595123291,10.034748077392578,2.2821969985961914,1.8000000000000014
9.144835472106934,10.539351463317871,2.1303822994232178,1.8100000000000014
8.486974716186523,7.535706520080566,2.4847307205200195,1.8200000000000014
4.397878646850586,4.11036491394043,2.7600831985473633,1.8300000000000014
0.8522639274597168,2.518014907836914,3.3666393756866455,1.8400000000000014
-2.3078150749206543,1.6975774765014648,4.616865158081055,1.8500000000000014
-4.5967302322387695,1.3336191177368164,5.297053337097168,1.8600000000000014
-5.9744062423706055,1.675034523010254,5.135650157928467,1.8700000000000014
-5.846226692199707,2.8211793899536133,3.6789348125457764,1.8800000000000014
-4.357820987701416,4.0639495849609375,0.49559450149536133,1.8900000000000015
-2.7566168308258057,5.602499961853027,-3.235586643218994,1.9000000000000015
-2.0188398361206055,8.436799049377441,-9.278980255126953,1.9100000000000015
-3.785644769668579,10.105191230773926,-13.404977798461914,1.9200000000000015
-7.120689868927002,10.17115306854248,-11.680023193359375,1.9300000000000015
-7.384995460510254,5.651968955993652,-4.548584461212158,1.9400000000000015
-2.966966152191162,-1.635025978088379,1.6165980100631714,1.9500000000000015
-0.6773993968963623,-4.891530513763428,1.9866505861282349,1.9600000000000015
0.42694783210754395,-7.054588317871094,0.20787692070007324,1.9700000000000015
-0.058502912521362305,-8.1309814453125,-2.5433385372161865,1.9800000000000015
-1.8638498783111572,-7.828315258026123,-5.431427001953125,1.9900000000000015
-2.5800580978393555,-6.232481956481934,-7.920543193817139,2.0000000000000013
-2.672863483428955,-3.7226362228393555,-9.462804794311523,2.010000000000001
-2.5882983207702637,-1.6408967971801758,-9.478511810302734,2.020000000000001
-2.5207090377807617,-1.6811180114746094,-9.326881408691406,2.0300000000000007
-1.6234387159347534,1.2098665237426758,-6.175022602081299,2.0400000000000005
-0.6353156566619873,2.3310070037841797,-2.2417454719543457,2.0500000000000003
1.3760015964508057,3.579092025756836,5.250699043273926,2.06
2.868448495864868,3.2648448944091797,6.568182945251465,2.07
3.2065937519073486,1.901998519897461,3.6068615913391113,2.0799999999999996
3.305445432662964,0.4167795181274414,0.43931394815444946,2.0899999999999994
3.6031460762023926,-1.5027923583984375,-0.8679218888282776,2.099999999999999
3.8435182571411133,-3.0993080139160156,-1.3213469982147217,2.109999999999999
1.905430793762207,-2.8651952743530273,-0.26751089096069336,2.1199999999999988
0.22220063209533691,-2.1121554374694824,1.3807125091552734,2.1299999999999986
0.04672670364379883,-1.5634593963623047,2.1032490730285645,2.1399999999999983
0.5195937156677246,-0.9882421493530273,2.2535598278045654,2.149999999999998
1.1260573863983154,-0.48139095306396484,2.0585784912109375,2.159999999999998
1.3301060199737549,-0.310882568359375,1.0943171977996826,2.1699999999999977
1.073615312576294,-0.6410903930664062,0.3056803345680237,2.1799999999999975
1.0233449935913086,-1.22869873046875,0.5305608510971069,2.1899999999999973
1.2489869594573975,-1.6996989250183105,0.7986443042755127,2.199999999999997
1.2651143074035645,-1.7003083229064941,0.8510051965713501,2.209999999999997
1.2968578338623047,-2.4333748817443848,1.032739281654358,2.2199999999999966
1.1966280937194824,-2.3559021949768066,0.9588976502418518,2.2299999999999964
1.2522683143615723,-2.0824060440063477,0.5656424760818481,2.239999999999996
1.2631983757019043,-1.6764397621154785,-0.0283663272857666,2.249999999999996
1.1205482482910156,-1.4564576148986816,-0.12877166271209717,2.259999999999996
0.8181259632110596,-0.9851217269897461,0.20031046867370605,2.2699999999999956
0.6415414810180664,-0.3661355972290039,0.7191295027732849,2.2799999999999954
0.4319021701812744,-0.06631946563720703,1.3621742725372314,2.289999999999995
0.21596550941467285,-0.04475593566894531,1.7168594598770142,2.299999999999995
0.3326544761657715,0.015026092529296875,1.4969911575317383,2.3099999999999947
0.705141544342041,0.4770536422729492,1.3764444589614868,2.3199999999999945
1.420616865158081,1.4154129028320312,1.6889843940734863,2.3299999999999943
2.183276414871216,1.936753273010254,2.332355260848999,2.339999999999994
2.753396987915039,1.6556053161621094,2.640974283218384,2.349999999999994
2.733598232269287,0.8925762176513672,2.238541603088379,2.3599999999999937
2.6083600521087646,0.31328487396240234,1.2655882835388184,2.3699999999999934
2.689035654067993,0.5036916732788086,0.9118634462356567,2.3799999999999932
3.2217087745666504,1.389805793762207,1.0941323041915894,2.389999999999993
4.220312595367432,2.5054197311401367,1.7608872652053833,2.399999999999993
5.439499855041504,2.9663124084472656,1.9505915641784668,2.4099999999999926
6.727253437042236,2.4748334884643555,1.1689112186431885,2.4199999999999924
7.448790073394775,0.7807598114013672,0.04767477512359619,2.429999999999992
7.20194149017334,0.12592792510986328,-0.404805064201355,2.439999999999992
6.056406497955322,0.2535057067871094,-0.33666980266571045,2.4499999999999917
4.321645259857178,1.0198583602905273,0.5746122002601624,2.4599999999999915
2.4859225749969482,1.7154817581176758,1.5348979234695435,2.4699999999999913
0.7917563915252686,2.738286018371582,1.265636682510376,2.479999999999991
-0.26599860191345215,3.7099952697753906,0.43132415413856506,2.489999999999991
-0.7201850414276123,4.367840766906738,0.4799274206161499,2.4999999999999907
-0.8091683387756348,4.39436149597168,0.11094328761100769,2.5099999999999905
-0.24112844467163086,4.76527214050293,-0.28756773471832275,2.5199999999999902
-0.894219160079956,5.135061264038086,-1.742409110069275,2.52999999999999
-1.8678113222122192,5.117557525634766,-3.1497139930725098,2.53999999999999
-2.933227777481079,4.759325981140137,-3.5518155097961426,2.5499999999999896
-3.600963592529297,4.109847068786621,-2.9798812866210938,2.5599999999999894
-3.643292188644409,3.2611160278320312,-1.7802979946136475,2.569999999999989
-2.8985493183135986,2.57778263092041,-0.8828037977218628,2.579999999999989
-1.3420660495758057,1.7196903228759766,-0.09095752239227295,2.5899999999999888
0.293118953704834,0.9017353057861328,1.561079978942871,2.5999999999999885
1.2605926990509033,0.09206485748291016,3.2980666160583496,2.6099999999999883
1.5611536502838135,-0.819939136505127,3.342393159866333,2.619999999999988
1.2349472045898438,-1.6286158561706543,1.6877727508544922,2.629999999999988
0.4219973087310791,-2.0651588439941406,-0.8278529644012451,2.6399999999999877
-0.6461734771728516,-2.40000057220459,-3.297567129135132,2.6499999999999875
-1.2217211723327637,-2.3292860984802246,-5.288989543914795,2.6599999999999873
-1.6397395133972168,-1.991729736328125,-6.8586015701293945,2.669999999999987
-2.2630324363708496,-1.880871295928955,-7.983666896820068,2.679999999999987
-2.5127716064453125,-2.093428611755371,-7.217401027679443,2.6899999999999866
-2.6921842098236084,-2.489393711090088,-5.870933532714844,2.6999999999999864
-3.177483558654785,-2.6744751930236816,-4.697514533996582,2.709999999999986
-4.0558271408081055,-2.730795383453369,-4.06358003616333,2.719999999999986
-4.993259429931641,-2.864025115966797,-3.7984256744384766,2.7299999999999858
-5.465945243835449,-3.2708187103271484,-4.328196048736572,2.7399999999999856
-5.396740913391113,-3.276386260986328,-4.3841938972473145,2.7499999999999853
-6.235307693481445,-4.046103000640869,-4.469305992126465,2.759999999999985
-6.411458492279053,-4.17561149597168,-3.89638090133667,2.769999999999985
-6.123713970184326,-4.307436943054199,-2.7611513137817383,2.7799999999999847
-5.543100357055664,-4.492300033569336,-0.9322738647460938,2.7899999999999845
-5.10298490524292,-4.4582061767578125,0.16387653350830078,2.7999999999999843
-5.071381092071533,-4.489148139953613,0.20019888877868652,2.809999999999984
-3.118849992752075,-3.565311908721924,3.591444969177246,2.819999999999984
-1.093709945678711,-2.893946647644043,6.149906158447266,2.8299999999999836
1.4671859741210938,-1.7053828239440918,6.875408172607422,2.8399999999999834
4.2454681396484375,1.1022415161132812,4.489031791687012,2.849999999999983
6.465689182281494,4.407258987426758,2.9042065143585205,2.859999999999983
9.372871398925781,7.1318817138671875,4.330380916595459,2.869999999999983
11.716315269470215,7.670736312866211,5.530542373657227,2.8799999999999826
12.098926544189453,6.232282638549805,5.548344135284424,2.8899999999999824
7.759591102600098,3.2332372665405273,4.3148956298828125,2.899999999999982
2.6686320304870605,1.0664644241333008,2.452204704284668,2.909999999999982
-0.4899170398712158,0.7403726577758789,1.2969152927398682,2.9199999999999817
-3.7064523696899414,1.3611459732055664,0.41571903228759766,2.9299999999999815
-5.6707329750061035,2.1234350204467773,1.5743107795715332,2.9399999999999813
-6.545577526092529,2.427973747253418,2.779921770095825,2.949999999999981
-6.402899742126465,2.687528610229492,2.5905704498291016,2.959999999999981
-5.011466979980469,3.544461250305176,-0.17627787590026855,2.9699999999999807
-3.382448434829712,5.249081611633301,-4.113505840301514,2.9799999999999804
-2.2705090045928955,8.006272315979004,-8.967850685119629,2.9899999999999802
-2.79367995262146,10.189275741577148,-11.572309494018555,2.99999999999998
-4.407688617706299,10.872649192810059,-9.717748641967773,3.00999999999998
-4.0503621101379395,7.734894752502441,-3.003540515899658,3.0199999999999796
-0.7804000377655029,0.2668571472167969,2.255906105041504,3.0299999999999794
0.5542850494384766,-3.585853099822998,2.660877227783203,3.039999999999979
0.9763474464416504,-6.430209159851074,0.7824631929397583,3.049999999999979
0.10778069496154785,-7.884970664978027,-2.081721782684326,3.0599999999999787
-2.4501967430114746,-7.049904823303223,-5.306669235229492,3.0699999999999785
-3.8062031269073486,-5.171862602233887,-8.050538063049316,3.0799999999999783
-3.942765474319458,-3.1664962768554688,-9.764360427856445,3.089999999999978
-4.058291435241699,-1.8376059532165527,-9.737737655639648,3.099999999999978
-3.7808265686035156,-0.5211458206176758,-8.617130279541016,3.1099999999999777
-2.5853769779205322,0.1392803192138672,-6.51332950592041,3.1199999999999775
-1.5402029752731323,1.1308517456054688,-4.598259925842285,3.1299999999999772
0.37033653259277344,2.031290054321289,1.8296713829040527,3.139999999999977
2.9898300170898438,2.5192413330078125,7.482316493988037,3.149999999999977
3.74769926071167,2.0485172271728516,5.863139629364014,3.1599999999999766
4.1861982345581055,1.231980323791504,2.7983312606811523,3.1699999999999764
4.707746505737305,-0.4101390838623047,0.5579858422279358,3.179999999999976
4.738846778869629,-2.3434810638427734,-0.8795584440231323,3.189999999999976
2.6608266830444336,-2.9279537200927734,-0.7569510340690613,3.1999999999999758
0.31992506980895996,-2.250157356262207,0.5246976613998413,3.2099999999999755
0.30917835235595703,-2.2455081939697266,0.5360239744186401,3.2199999999999753
-0.43799877166748047,-1.0417966842651367,2.7515902519226074,3.229999999999975
0.3798701763153076,-0.6849164962768555,2.9117438793182373,3.239999999999975
0.5026519298553467,-0.4773683547973633,1.3915475606918335,3.2499999999999747
0.2983372211456299,-0.6285829544067383,-0.1751815676689148,3.2599999999999745
0.4689960479736328,-0.6481246948242188,-0.7727885842323303,3.2699999999999743
0.9577229022979736,-1.2641654014587402,0.22846102714538574,3.279999999999974
1.3526358604431152,-1.8330121040344238,1.482848882675171,3.289999999999974
1.394355058670044,-2.412565231323242,1.957275152206421,3.2999999999999736
1.5526854991912842,-2.753835678100586,1.0528855323791504,3.3099999999999734
1.632974624633789,-2.6654467582702637,-0.28139013051986694,3.319999999999973
1.649855136871338,-2.3253703117370605,-0.9330950975418091,3.329999999999973
1.3717310428619385,-1.8298354148864746,-0.7068132162094116,3.3399999999999728
0.9715456962585449,-0.8325405120849609,0.05870378017425537,3.3499999999999726
0.9486973285675049,-0.01589488983154297,1.0269829034805298,3.3599999999999723
1.0133056640625,0.31990814208984375,1.4229505062103271,3.369999999999972
0.6309471130371094,0.3235187530517578,1.30057954788208,3.379999999999972
0.1965470314025879,0.18555450439453125,1.0543420314788818,3.3899999999999717
0.20986032485961914,0.4351978302001953,1.0074461698532104,3.3999999999999715
0.6627511978149414,1.2517318725585938,1.188594937324524,3.4099999999999713
1.2513012886047363,1.7438898086547852,1.6569387912750244,3.419999999999971
1.845890998840332,1.4275636672973633,2.131314992904663,3.429999999999971
2.253730535507202,0.7986364364624023,1.9333815574645996,3.4399999999999706
2.792372465133667,0.3502998352050781,1.3467803001403809,3.4499999999999704
3.309136390686035,0.593195915222168,1.1551330089569092,3.45999999999997
4.133502960205078,1.6176080703735352,1.3136307001113892,3.46999999999997
5.235921859741211,2.5261754989624023,1.8075934648513794,3.47999999999997
6.512308120727539,2.725095748901367,2.002310276031494,3.4899999999999696
7.3894548416137695,2.245211601257324,1.6609163284301758,3.4999999999999694
7.544544219970703,1.3249444961547852,1.235349416732788,3.509999999999969
6.490424156188965,0.9478321075439453,1.181767463684082,3.519999999999969
4.308616638183594,0.8996868133544922,1.108583927154541,3.5299999999999687
3.6083149909973145,0.8329591751098633,0.6893793344497681,3.5399999999999685
3.2846479415893555,0.9550161361694336,0.4893568754196167,3.5499999999999683
2.4959371089935303,1.1582012176513672,1.007578730583191,3.559999999999968
1.188302755355835,1.839498519897461,1.2902969121932983,3.569999999999968
0.3252551555633545,2.432431221008301,0.653093159198761,3.5799999999999677
-0.4935123920440674,3.1439523696899414,0.27569276094436646,3.5899999999999674
-0.8232667446136475,3.7842893600463867,0.6260161399841309,3.5999999999999672
-0.6217973232269287,3.5972490310668945,0.4529794156551361,3.609999999999967
-0.7695603370666504,3.768442153930664,-0.7721542119979858,3.619999999999967
-1.6524630784988403,4.198138236999512,-2.6300673484802246,3.6299999999999666
-2.4367716312408447,4.101470947265625,-3.457422971725464,3.6399999999999664
-3.1136460304260254,3.8271703720092773,-3.626375675201416,3.649999999999966
-3.2520241737365723,3.0306129455566406,-2.8914737701416016,3.659999999999966
-2.7531564235687256,2.6457958221435547,-2.0602526664733887,3.6699999999999657
-1.526390552520752,1.9884614944458008,-1.5828031301498413,3.6799999999999655
-1.604663610458374,2.074300765991211,-1.8469082117080688,3.6899999999999653
0.763099193572998,1.1027212142944336,1.3775382041931152,3.699999999999965
1.5642759799957275,0.6960983276367188,3.336082935333252,3.709999999999965
1.7538270950317383,0.33350563049316406,3.415722131729126,3.7199999999999647
1.0193254947662354,0.11162662506103516,1.0201058387756348,3.7299999999999645
0.6841094493865967,-0.32214832305908203,-2.288665771484375,3.7399999999999642
0.19927692413330078,-1.114804744720459,-5.331630229949951,3.749999999999964
-0.03050708770751953,-1.5288901329040527,-7.197595596313477,3.759999999999964
-0.37297701835632324,-2.1490607261657715,-8.533087730407715,3.7699999999999636
-1.251899242401123,-2.705782413482666,-8.831083297729492,3.7799999999999634
-1.6706197261810303,-3.4095654487609863,-7.468377113342285,3.789999999999963
-2.71720552444458,-3.676262855529785,-5.930890083312988,3.799999999999963
-3.9348304271698,-3.4135069847106934,-3.0908379554748535,3.8099999999999627
-4.764165878295898,-3.1439480781555176,-1.277299404144287,3.8199999999999625
-5.683530330657959,-2.907562732696533,-0.16940736770629883,3.8299999999999623
-6.505956172943115,-2.9265575408935547,-0.44399189949035645,3.839999999999962
-6.9823431968688965,-3.3725991249084473,-0.9578158855438232,3.849999999999962
-6.9164838790893555,-4.1049089431762695,-1.2990171909332275,3.8599999999999617
-6.320105075836182,-5.130955696105957,-1.1644201278686523,3.8699999999999615
-5.675787925720215,-5.848831653594971,-0.844933032989502,3.8799999999999613
-5.216830730438232,-6.231949806213379,-0.3885917663574219,3.889999999999961
-4.845704555511475,-6.2249932289123535,0.020473957061767578,3.899999999999961
-4.418028831481934,-5.8775248527526855,0.2734057903289795,3.9099999999999606
-3.4957573413848877,-5.264778137207031,0.8745224475860596,3.9199999999999604
-1.7959730625152588,-4.089838981628418,1.9380137920379639,3.92999999999996
0.1002798080444336,-2.244823932647705,2.7324130535125732,3.93999999999996
2.768110990524292,1.556260108947754,2.9570493698120117,3.9499999999999598
6.508216381072998,7.893692970275879,2.451037645339966,3.9599999999999596
10.185015678405762,14.379785537719727,2.771756887435913,3.9699999999999593
14.657600402832031,16.45069122314453,3.7567007541656494,3.979999999999959
16.370445251464844,9.010725975036621,5.863402366638184,3.989999999999959
11.342157363891602,3.3754539489746094,5.08505916595459,3.9999999999999587
3.5223236083984375,0.019968032836914062,3.791508197784424,4.009999999999959
-1.9644498825073242,-2.005584239959717,3.5964746475219727,4.019999999999959
-5.642827033996582,-3.4638123512268066,3.854447603225708,4.0299999999999585
-7.790228843688965,-3.729825973510742,4.6586809158325195,4.039999999999958
-8.44693374633789,-3.37469482421875,4.913905143737793,4.049999999999958
-7.845702171325684,-3.145421028137207,3.6037538051605225,4.059999999999958
-6.187793731689453,-0.8398818969726562,-0.4559779167175293,4.069999999999958
-4.177822589874268,2.382279396057129,-6.51146125793457,4.079999999999957
-2.8879294395446777,5.900613784790039,-13.069719314575195,4.089999999999957
-3.634884834289551,9.583337783813477,-17.184572219848633,4.099999999999957
-6.203157424926758,12.343491554260254,-15.440065383911133,4.109999999999957
-6.798854827880859,11.740251541137695,-8.822641372680664,4.119999999999957
-2.1676392555236816,7.652242660522461,4.015287399291992,4.129999999999956
1.6424312591552734,2.270310401916504,9.1904296875,4.139999999999956
2.671678304672241,-2.0188827514648438,6.879829406738281,4.149999999999956
2.809034585952759,-5.336814880371094,1.6268222332000732,4.159999999999956
1.7888689041137695,-6.634156703948975,-4.635213851928711,4.1699999999999555
-0.9144620895385742,-4.67739725112915,-8.301657676696777,4.179999999999955
-2.8712286949157715,-2.5110907554626465,-10.968953132629395,4.189999999999955
-4.053779125213623,-1.4483017921447754,-10.39795970916748,4.199999999999955
-4.499670505523682,-1.6162605285644531,-8.55024528503418,4.209999999999955
-4.111165523529053,-1.70927095413208,-6.61175012588501,4.2199999999999545
-3.350132465362549,-0.7389078140258789,-4.370718479156494,4.229999999999954
-0.6747643947601318,0.7039585113525391,0.9579774141311646,4.239999999999954
1.3975646495819092,1.3661489486694336,5.33036994934082,4.249999999999954
2.5377113819122314,1.004556655883789,4.4144062995910645,4.259999999999954
3.295041561126709,0.581385612487793,2.5355114936828613,4.269999999999953
3.8806159496307373,-0.5122308731079102,1.1326466798782349,4.279999999999953
4.021557807922363,-1.9801154136657715,0.2092619240283966,4.289999999999953
2.3981759548187256,-2.372610569000244,0.45583319664001465,4.299999999999953
0.7603132724761963,-2.287201404571533,0.6054593324661255,4.3099999999999525
0.07315611839294434,-1.8653264045715332,1.21449875831604,4.319999999999952
-0.23818421363830566,-1.235217571258545,1.9833481311798096,4.329999999999952
0.1372385025024414,-0.6340427398681641,1.6463449001312256,4.339999999999952
0.5981101989746094,-0.7098798751831055,0.4585939049720764,4.349999999999952
0.6996526718139648,-0.7365217208862305,-0.6743701100349426,4.3599999999999515
0.9633665084838867,-1.0109481811523438,-0.5852450728416443,4.369999999999951
1.1995956897735596,-1.6319289207458496,0.5597025752067566,4.379999999999951
1.2952752113342285,-2.211935520172119,1.851515769958496,4.389999999999951
1.339224100112915,-2.677072525024414,1.483450174331665,4.399999999999951
1.3754451274871826,-2.851801872253418,0.33517855405807495,4.40999999999995
1.2932393550872803,-2.637967109680176,-0.23151671886444092,4.41999999999995
0.965123176574707,-2.0339765548706055,-0.2804650068283081,4.42999999999995
0.7536067962646484,-1.394951343536377,0.10053181648254395,4.43999999999995
0.6811566352844238,-0.7011919021606445,0.7028399109840393,4.4499999999999496
0.8962328433990479,-0.3033876419067383,1.4276251792907715,4.459999999999949
0.8393564224243164,-0.1131753921508789,1.8375089168548584,4.469999999999949
0.6488165855407715,-0.08592033386230469,1.7844747304916382,4.479999999999949
0.3824000358581543,8.258819580078125E-4,1.4606155157089233,4.489999999999949
0.598090410232544,0.1883382797241211,1.0655618906021118,4.4999999999999485
1.3352949619293213,0.864619255065918,1.1258752346038818,4.509999999999948
2.076338291168213,1.447260856628418,1.6700619459152222,4.519999999999948
2.7064104080200195,1.3254671096801758,2.4066600799560547,4.529999999999948
2.6679227352142334,0.7753410339355469,2.3961310386657715,4.539999999999948
2.415278196334839,0.3856391906738281,1.6980018615722656,4.549999999999947
2.5091969966888428,0.8365993499755859,1.0464051961898804,4.559999999999947
2.980987310409546,2.203227996826172,1.338287115097046,4.569999999999947
3.713022232055664,3.38106632232666,2.133934259414673,4.579999999999947
5.288700580596924,3.853055000305176,2.0220329761505127,4.589999999999947
6.3983473777771,3.470836639404297,1.239883542060852,4.599999999999946
7.287737846374512,2.490872383117676,0.33107101917266846,4.609999999999946
7.484495162963867,1.2846717834472656,8.857250213623047E-4,4.619999999999946
7.151812553405762,0.4036884307861328,0.1256650686264038,4.629999999999946
5.9018964767456055,0.3055553436279297,0.8050849437713623,4.6399999999999455
3.857024908065796,0.8625125885009766,1.0947961807250977,4.649999999999945
2.161482810974121,1.2791242599487305,1.3251084089279175,4.659999999999945
0.5084798336029053,1.8623342514038086,1.245559573173523,4.669999999999945
-0.6263711452484131,2.4081974029541016,0.404977023601532,4.679999999999945
-1.2655601501464844,3.1816835403442383,0.35005614161491394,4.689999999999944
-1.4222460985183716,3.4614458084106445,0.47944122552871704,4.699999999999944
-1.7185819149017334,3.886532783508301,-0.14237119257450104,4.709999999999944
-2.2154593467712402,4.258156776428223,-1.0467133522033691,4.719999999999944
-2.87253999710083,4.161517143249512,-1.8056869506835938,4.729999999999944
-3.4186313152313232,3.7685766220092773,-2.073486328125,4.739999999999943
-3.6600749492645264,2.769144058227539,-1.6357276439666748,4.749999999999943
-3.129610061645508,1.874709129333496,-1.0076490640640259,4.759999999999943
-3.174196243286133,1.9312448501586914,-1.2524011135101318,4.769999999999943
-0.17552614212036133,0.7725343704223633,-0.6485735177993774,4.7799999999999425
1.398437261581421,0.6179971694946289,0.617072343826294,4.789999999999942
2.244173765182495,0.28987884521484375,2.017087936401367,4.799999999999942
2.4034905433654785,0.07322216033935547,2.408965826034546,4.809999999999942
1.9120922088623047,0.041693687438964844,0.8749730587005615,4.819999999999942
1.2153863906860352,-0.22726154327392578,-2.342799186706543,4.8299999999999415
1.0400292873382568,-0.6278820037841797,-4.3498454093933105,4.839999999999941
0.8272624015808105,-0.8726954460144043,-6.138120651245117,4.849999999999941
0.7888913154602051,-1.072249412536621,-6.771717548370361,4.859999999999941
0.3824124336242676,-1.1333346366882324,-7.299745559692383,4.869999999999941
-0.3374011516571045,-1.7643074989318848,-7.284106731414795,4.87999999999994
-1.8025140762329102,-2.205954074859619,-6.524896621704102,4.88999999999994
-3.0242156982421875,-2.3593668937683105,-5.002664566040039,4.89999999999994
-4.218838691711426,-2.2853798866271973,-2.578254222869873,4.90999999999994
-5.464328765869141,-2.0815768241882324,-0.5270857810974121,4.9199999999999395
-6.337303161621094,-2.0105652809143066,0.029543399810791016,4.929999999999939
-6.710237979888916,-2.1691527366638184,-0.6518263816833496,4.939999999999939
-7.186384677886963,-3.2178077697753906,-0.8530972003936768,4.949999999999939
-6.641515731811523,-4.260529518127441,-0.8143317699432373,4.959999999999939
-5.541749954223633,-5.475956916809082,-0.5690860748291016,4.9699999999999385
-4.801135063171387,-6.132165908813477,-0.5272483825683594,4.979999999999938
-4.379530906677246,-6.253697395324707,-0.6279523372650146,4.989999999999938
-3.9642927646636963,-6.110017776489258,-0.7624573707580566,4.999999999999938
-3.2733638286590576,-5.558636665344238,-0.6332850456237793,5.009999999999938
-2.2275328636169434,-4.807133674621582,-0.12687468528747559,5.019999999999937
-0.9802649021148682,-3.390615463256836,1.155620813369751,5.029999999999937
0.5244245529174805,-1.6015324592590332,2.5222041606903076,5.039999999999937
3.5062828063964844,1.3242225646972656,3.1256532669067383,5.049999999999937
6.562353610992432,5.50318717956543,3.044463634490967,5.0599999999999365
9.383625030517578,9.090523719787598,5.875392436981201,5.069999999999936
11.490821838378906,8.841586112976074,6.943835258483887,5.079999999999936
11.523672103881836,5.92252254486084,6.3351874351501465,5.089999999999936
5.730398654937744,3.477166175842285,4.5973005294799805,5.099999999999936
0.5699472427368164,2.188129425048828,3.5314598083496094,5.1099999999999355
-2.536921501159668,2.114034652709961,3.9441864490509033,5.119999999999935
-4.018540859222412,3.5859203338623047,3.5224926471710205,5.129999999999935
-4.629444122314453,5.027499198913574,2.951554775238037,5.139999999999935
-4.435528755187988,6.300586700439453,1.6126227378845215,5.149999999999935
-3.662440061569214,7.182177543640137,-0.791820764541626,5.159999999999934
-2.7208175659179688,8.690884590148926,-5.18123722076416,5.169999999999934
-3.6802818775177,10.638747215270996,-10.332817077636719,5.179999999999934
-8.158990859985352,10.979010581970215,-12.444334983825684,5.189999999999934
-9.504755020141602,7.702370643615723,-7.63318395614624,5.199999999999934
-5.719845771789551,0.3973236083984375,-1.5466059446334839,5.209999999999933
-2.4355430603027344,-4.4459710121154785,1.8918113708496094,5.219999999999933
-0.84686279296875,-7.444042205810547,1.69550359249115,5.229999999999933
-0.9551587104797363,-9.289463996887207,-0.8998024463653564,5.239999999999933
-2.4632720947265625,-9.815084457397461,-3.771421432495117,5.2499999999999325
-3.294919967651367,-8.368886947631836,-6.25433349609375,5.259999999999932
-3.0194814205169678,-5.784795761108398,-8.906597137451172,5.269999999999932
-2.722651958465576,-2.6130809783935547,-10.425917625427246,5.279999999999932
-2.6742937564849854,-0.07221317291259766,-9.390085220336914,5.289999999999932
-2.3001387119293213,1.4485139846801758,-7.422717571258545,5.299999999999931
-1.4473921060562134,2.9078073501586914,-3.9377710819244385,5.309999999999931
0.3043503761291504,4.293088912963867,2.780972957611084,5.319999999999931
2.953665256500244,4.320117950439453,7.037534713745117,5.329999999999931
3.9835214614868164,2.777498245239258,4.6978936195373535,5.339999999999931
4.620406150817871,0.8672904968261719,1.4239192008972168,5.34999999999993
5.713198661804199,-1.3267812728881836,-0.5750214457511902,5.35999999999993
5.968884468078613,-3.9785842895507812,-0.9809126257896423,5.36999999999993
3.549492359161377,-3.8852996826171875,0.1567181944847107,5.37999999999993
0.7139327526092529,-2.849860191345215,1.1451367139816284,5.3899999999999295
-0.08056282997131348,-2.186901092529297,1.7159299850463867,5.399999999999929
0.4508056640625,-1.710392951965332,1.7308349609375,5.409999999999929
0.37395787239074707,-0.8577737808227539,2.2856626510620117,5.419999999999929
0.30434703826904297,-0.2900381088256836,1.691199779510498,5.429999999999929
0.6547074317932129,-0.3599557876586914,1.1049124002456665,5.4399999999999284
0.9293408393859863,-0.7935152053833008,0.8176709413528442,5.449999999999928
0.9293267726898193,-1.2952747344970703,0.9190768003463745,5.459999999999928
1.0533809661865234,-1.3876819610595703,0.6277144551277161,5.469999999999928
0.9446060657501221,-1.374351978302002,0.8582020998001099,5.479999999999928
0.9636783599853516,-1.7572574615478516,1.4000580310821533,5.489999999999927
1.1494255065917969,-2.099586009979248,1.231217622756958,5.499999999999927
1.1345093250274658,-2.1797003746032715,0.8480324149131775,5.509999999999927
0.799274206161499,-1.6095709800720215,0.9986565113067627,5.519999999999927
0.6849372386932373,-0.8868236541748047,1.6784095764160156,5.5299999999999265
0.8874354362487793,-0.6832847595214844,2.052180290222168,5.539999999999926
1.6122932434082031,-0.5884885787963867,1.5895514488220215,5.549999999999926
2.362067699432373,-0.22391700744628906,1.3798012733459473,5.559999999999926
3.0671026706695557,0.599858283996582,1.9113705158233643,5.569999999999926
2.9627256393432617,1.7326507568359375,2.657938003540039,5.5799999999999255
2.1983132362365723,2.257709503173828,2.773829698562622,5.589999999999925
1.4158344268798828,2.036579132080078,2.2098586559295654,5.599999999999925
1.0187022686004639,1.6046228408813477,1.8776589632034302,5.609999999999925
0.9461355209350586,1.513071060180664,1.9388302564620972,5.619999999999925
1.5670740604400635,1.9538230895996094,1.8849605321884155,5.629999999999924
2.8231847286224365,2.946274757385254,2.3468220233917236,5.639999999999924
4.6366286277771,3.560530662536621,2.6568174362182617,5.649999999999924
6.4484734535217285,3.3204526901245117,1.744991660118103,5.659999999999924
8.269156455993652,1.623556137084961,0.27239978313446045,5.6699999999999235
9.083187103271484,0.136566162109375,-0.045500755310058594,5.679999999999923
8.447732925415039,-0.2012929916381836,0.2225790023803711,5.689999999999923
8.324572563171387,-0.19965171813964844,0.0555042028427124,5.699999999999923
4.783514976501465,1.0435400009155273,0.6013385653495789,5.709999999999923
2.6149778366088867,2.00685977935791,0.6072667837142944,5.7199999999999225
0.9275479316711426,3.3258066177368164,0.36790263652801514,5.729999999999922
0.23775720596313477,4.144412040710449,0.4749218821525574,5.739999999999922
-0.07036876678466797,4.807639122009277,0.8554993867874146,5.749999999999922
0.24207329750061035,4.483057022094727,0.5943125486373901,5.759999999999922
0.3940422534942627,4.679139137268066,-0.6183689832687378,5.769999999999921
-0.4071807861328125,4.867486000061035,-2.4936771392822266,5.779999999999921
-1.881097674369812,4.599128723144531,-4.064023017883301,5.789999999999921
-3.0909337997436523,4.172003746032715,-4.03550910949707,5.799999999999921
-3.904369831085205,3.663015365600586,-3.254188060760498,5.809999999999921
-3.9095418453216553,3.0914878845214844,-2.653165102005005,5.81999999999992
-3.2714014053344727,2.468764305114746,-2.7679147720336914,5.82999999999992
-2.4293346405029297,2.444655418395996,-1.7351752519607544,5.83999999999992
-0.845085620880127,1.4274969100952148,1.0768725872039795,5.84999999999992
0.21602177619934082,0.09507465362548828,2.9905896186828613,5.8599999999999195
0.2883124351501465,-1.0172743797302246,2.9424197673797607,5.869999999999919
-0.6330587863922119,-1.9546866416931152,0.14096784591674805,5.879999999999919
-1.189640998840332,-2.550055980682373,-3.7391486167907715,5.889999999999919
-1.088923692703247,-3.067572593688965,-8.668255805969238,5.899999999999919
-0.6815447807312012,-3.214834690093994,-7.899234771728516,5.909999999999918
-0.9883074760437012,-3.2527689933776855,-6.551486015319824,5.919999999999918
-1.1141479015350342,-3.385550022125244,-5.15162467956543,5.929999999999918
-1.396977186203003,-3.3325634002685547,-4.39082670211792,5.939999999999918
-2.2520956993103027,-3.2383675575256348,-3.6724209785461426,5.949999999999918
-3.498176097869873,-2.907956123352051,-2.9943432807922363,5.959999999999917
-4.84969425201416,-2.9076061248779297,-2.2136948108673096,5.969999999999917
-5.6913228034973145,-3.210613250732422,-1.7677695751190186,5.979999999999917
-6.3685102462768555,-3.7130041122436523,-1.6008694171905518,5.989999999999917
-6.732532024383545,-4.347155570983887,-1.579456090927124,5.9999999999999165
-6.7544379234313965,-4.9540252685546875,-1.569164752960205,6.009999999999916
-6.330366134643555,-5.57627534866333,-1.3839702606201172,6.019999999999916
-5.843467712402344,-5.799983501434326,-0.7584645748138428,6.029999999999916
-5.430685043334961,-5.817667007446289,-0.01612997055053711,6.039999999999916
-4.516806602478027,-5.572500705718994,0.8895735740661621,6.0499999999999154
-2.944770097732544,-5.062410354614258,2.1602044105529785,6.059999999999915
-1.4235625267028809,-4.0779595375061035,3.621793270111084,6.069999999999915
0.3162651062011719,-2.2172913551330566,3.749084711074829,6.079999999999915
0.23401641845703125,-2.2844529151916504,4.043013095855713,6.089999999999915
6.327941417694092,8.999812126159668,1.4459943771362305,6.099999999999914
9.549071311950684,14.747117042541504,5.324454307556152,6.109999999999914
13.455188751220703,15.660480499267578,5.703760147094727,6.119999999999914
15.202653884887695,9.505892753601074,4.1618757247924805,6.129999999999914
8.646747589111328,3.115908622741699,2.6308109760284424,6.1399999999999135
1.019824504852295,0.5957117080688477,2.47865891456604,6.149999999999913
-2.6599555015563965,-0.49456787109375,3.141845703125,6.159999999999913
-5.4586873054504395,-1.7203311920166016,3.969162702560425,6.169999999999913
-6.977756023406982,-2.5494766235351562,5.074030876159668,6.179999999999913
-6.840762138366699,-3.482353687286377,4.488097667694092,6.1899999999999125
-6.077064037322998,-2.9352760314941406,0.5141124725341797,6.199999999999912
-3.8053040504455566,0.3443927764892578,-6.054802894592285,6.209999999999912
-2.335716724395752,3.8090438842773438,-10.58670425415039,6.219999999999912
-2.6112117767333984,8.308279037475586,-14.687878608703613,6.229999999999912
-4.739799499511719,12.96644115447998,-15.182852745056152,6.239999999999911
-6.5852251052856445,14.920089721679688,-8.981989860534668,6.249999999999911
-3.506744146347046,11.385777473449707,6.4453582763671875,6.259999999999911
0.018912792205810547,3.153317451477051,8.742443084716797,6.269999999999911
1.2680718898773193,-1.3478779792785645,5.332851886749268,6.2799999999999105
1.5843024253845215,-5.349948406219482,1.0837411880493164,6.28999999999991
0.737541675567627,-8.089339256286621,-3.741048812866211,6.29999999999991
-1.0209403038024902,-7.105436325073242,-8.952350616455078,6.30999999999991
-2.90134334564209,-4.60899019241333,-11.212882995605469,6.31999999999991
-4.3261399269104,-3.3190150260925293,-10.24755859375,6.3299999999999095
-4.481080055236816,-3.071362018585205,-8.981748580932617,6.339999999999909
-3.8566105365753174,-2.3286375999450684,-7.593046188354492,6.349999999999909
-2.5951898097991943,-0.7016181945800781,-6.116736888885498,6.359999999999909
-1.4451696872711182,1.1357669830322266,-4.631903171539307,6.369999999999909
1.2439401149749756,2.785350799560547,6.589617729187012,6.379999999999908
3.3307390213012695,2.5528812408447266,9.20677661895752,6.389999999999908
3.8562211990356445,1.392730712890625,5.588709831237793,6.399999999999908
4.093349933624268,-0.4266176223754883,0.7887293696403503,6.409999999999908
3.2217559814453125,-1.506368637084961,-1.399540901184082,6.419999999999908
0.5662531852722168,-1.820406436920166,-0.9747006893157959,6.429999999999907
-0.7012856006622314,-1.959801197052002,0.17321771383285522,6.439999999999907
-0.7405948638916016,-1.8693037033081055,2.6520040035247803,6.449999999999907
-0.44565796852111816,-1.1070051193237305,3.4154531955718994,6.459999999999907
0.4631319046020508,-0.5738019943237305,2.035122871398926,6.4699999999999065
0.48508501052856445,-0.5842838287353516,2.004460096359253,6.479999999999906
1.172351598739624,-0.8813838958740234,-0.5824692845344543,6.489999999999906
1.3727529048919678,-1.5001201629638672,-0.27820825576782227,6.499999999999906
1.3020825386047363,-2.229292869567871,1.1177186965942383,6.509999999999906
1.3660647869110107,-2.6601686477661133,1.6617528200149536,6.519999999999905
1.322221279144287,-2.725039482116699,1.2475829124450684,6.529999999999905
1.2963571548461914,-2.461456775665283,0.45733094215393066,6.539999999999905
1.4893348217010498,-2.0803422927856445,0.2876822352409363,6.549999999999905
1.700638771057129,-1.648301124572754,1.0317095518112183,6.559999999999905
1.6179344654083252,-1.1841096878051758,2.030118227005005,6.569999999999904
1.3206722736358643,-1.1312532424926758,2.302737236022949,6.579999999999904
1.0087041854858398,-1.1462125778198242,1.8144922256469727,6.589999999999904
0.9943511486053467,-0.7635841369628906,1.253089189529419,6.599999999999904
0.9835128784179688,-0.03926849365234375,1.1752512454986572,6.6099999999999035
1.0649347305297852,0.7107038497924805,1.598663091659546,6.619999999999903
1.1544270515441895,1.2383794784545898,1.5832898616790771,6.629999999999903
1.0938868522644043,1.1616621017456055,1.1401844024658203,6.639999999999903
0.779210090637207,1.0321235656738281,0.8788219690322876,6.649999999999903
0.7359497547149658,0.9065685272216797,0.6263151168823242,6.659999999999902
1.1130025386810303,1.428548812866211,0.33198022842407227,6.669999999999902
1.621983528137207,2.4067249298095703,0.6568719148635864,6.679999999999902
2.737347364425659,3.508175849914551,1.1985466480255127,6.689999999999902
3.7429134845733643,3.7396678924560547,1.1751528978347778,6.699999999999902
4.813437461853027,3.253506660461426,0.44282424449920654,6.709999999999901
5.596267223358154,2.3324222564697266,0.046898603439331055,6.719999999999901
6.360020637512207,1.432748794555664,-0.03611302375793457,6.729999999999901
6.651266098022461,1.7775917053222656,0.4433242082595825,6.739999999999901
6.316826820373535,2.311931610107422,1.320444107055664,6.7499999999999005
6.179520130157471,2.3269920349121094,1.1510686874389648,6.7599999999999
5.029024600982666,2.4645614624023438,1.8216490745544434,6.7699999999999
0.1074826717376709,3.266326904296875,1.149869680404663,6.7799999999999
-1.0194826126098633,2.8997764587402344,-0.06195002794265747,6.7899999999999
-1.6084827184677124,2.4371109008789062,-0.3215107321739197,6.7999999999998995
-1.8356258869171143,2.0872087478637695,-0.44860947132110596,6.809999999999899
-1.9286668300628662,1.7486467361450195,-1.1175892353057861,6.819999999999899
-2.367269992828369,1.5395126342773438,-2.406355381011963,6.829999999999899
-3.066310405731201,1.4244136810302734,-3.6687047481536865,6.839999999999899
-3.553873062133789,1.5428380966186523,-3.6931564807891846,6.849999999999898
-3.139045476913452,1.343764305114746,-2.9228432178497314,6.859999999999898
-1.7795790433883667,0.973785400390625,-1.865415096282959,6.869999999999898
-0.6209337711334229,0.7341680526733398,-1.491588830947876,6.879999999999898
0.5850436687469482,0.5306386947631836,-1.1890302896499634,6.8899999999998975
1.4870569705963135,0.7297468185424805,0.4318699836730957,6.899999999999897
1.937333345413208,0.8367805480957031,2.7218079566955566,6.909999999999897
1.6544389724731445,0.5234212875366211,3.7173914909362793,6.919999999999897
0.6443192958831787,0.1761455535888672,2.952274799346924,6.929999999999897
-0.533585786819458,0.01371002197265625,0.1961050033569336,6.9399999999998965
-1.6174869537353516,0.010343551635742188,-3.344048023223877,6.949999999999896
-1.9093081951141357,-0.2784461975097656,-7.327959060668945,6.959999999999896
-1.7192163467407227,-0.9021964073181152,-7.334266662597656,6.969999999999896
-1.8687701225280762,-1.4346599578857422,-6.623839855194092,6.979999999999896
-1.7017874717712402,-2.345473289489746,-5.057401657104492,6.989999999999895
-1.6413886547088623,-3.2035069465637207,-3.916027784347534,6.999999999999895
-2.2519478797912598,-4.05817174911499,-2.8449058532714844,7.009999999999895
-3.395350694656372,-4.398703575134277,-2.5090737342834473,7.019999999999895
-4.528310298919678,-4.398471832275391,-2.1857025623321533,7.0299999999998946
-5.228254318237305,-4.333294868469238,-1.99579918384552,7.039999999999894
-5.596913814544678,-4.217527389526367,-1.6202645301818848,7.049999999999894
-5.595433235168457,-4.2513427734375,-1.2820489406585693,7.059999999999894
-5.408254623413086,-4.327260971069336,-0.8942747116088867,7.069999999999894
-5.245697975158691,-4.441735744476318,-0.46362757682800293,7.0799999999998935
-5.031815528869629,-4.510937690734863,0.3163142204284668,7.089999999999893
-4.3939666748046875,-4.327602386474609,1.6331226825714111,7.099999999999893
-2.613030195236206,-3.3927502632141113,3.1787140369415283,7.109999999999893
-0.9715056419372559,-2.1248512268066406,3.3858203887939453,7.119999999999893
1.8677892684936523,0.6288909912109375,2.0736243724823,7.129999999999892
4.611098289489746,5.478259086608887,-0.06348419189453125,7.139999999999892
6.497899532318115,9.224628448486328,2.7998063564300537,7.149999999999892
8.288589477539062,10.070045471191406,3.8921101093292236,7.159999999999892
9.442083358764648,5.842835426330566,3.5108323097229004,7.169999999999892
7.876801490783691,2.296633720397949,3.145747184753418,7.179999999999891
4.505066871643066,0.17606353759765625,3.0522727966308594,7.189999999999891
0.9740161895751953,-0.6425957679748535,3.607577323913574,7.199999999999891
-1.2339849472045898,-1.3221588134765625,3.6164255142211914,7.209999999999891
-2.0074589252471924,-1.9961371421813965,3.2569580078125,7.2199999999998905
-2.324533462524414,-2.373231887817383,2.121593713760376,7.22999999999989
-3.279639959335327,-1.5017414093017578,-0.7186368703842163,7.23999999999989
-3.518711805343628,0.39707469940185547,-4.904994964599609,7.24999999999989
-2.4237060546875,1.74896240234375,-8.559759140014648,7.25999999999989
-1.1138322353363037,4.399747848510742,-9.066731452941895,7.269999999999889
-0.9765043258666992,9.040757179260254,-7.788468837738037,7.279999999999889
-3.6824405193328857,16.684356689453125,-2.1822397708892822,7.289999999999889
-7.5466084480285645,17.660400390625,4.791095733642578,7.299999999999889
-6.022167205810547,9.017623901367188,5.577626705169678,7.309999999999889
-0.948383092880249,1.6323537826538086,2.5777549743652344,7.319999999999888
0.6608984470367432,-2.8671107292175293,-0.12199103832244873,7.329999999999888
0.6071476936340332,-5.750748634338379,-3.5044636726379395,7.339999999999888
-0.13253498077392578,-6.718663215637207,-7.844470024108887,7.349999999999888
-1.4423260688781738,-5.946983814239502,-10.388648986816406,7.3599999999998875
-2.6877479553222656,-4.6172919273376465,-11.016698837280273,7.369999999999887
-2.8790481090545654,-3.6230945587158203,-8.8047456741333,7.379999999999887
-2.1110363006591797,-2.469104290008545,-6.875805377960205,7.389999999999887
-1.142899990081787,-0.41870689392089844,-5.380141258239746,7.399999999999887
-0.10767531394958496,1.7453813552856445,-0.8963022232055664,7.4099999999998865
2.391368865966797,3.252798080444336,7.971504211425781,7.419999999999886
3.2122671604156494,2.7384939193725586,7.656447887420654,7.429999999999886
3.1240148544311523,1.6119585037231445,4.170415878295898,7.439999999999886
2.180872917175293,0.4253377914428711,0.348045289516449,7.449999999999886
-0.5196540355682373,0.24819087982177734,-1.6794235706329346,7.459999999999885
-2.4567949771881104,0.28473472595214844,-0.5373876690864563,7.469999999999885
-2.3697073459625244,-0.08792304992675781,0.27004027366638184,7.479999999999885
-1.9062156677246094,-0.6301107406616211,0.8743687272071838,7.489999999999885
-1.7810280323028564,-0.9428997039794922,0.7936771512031555,7.4999999999998845
-1.8303272724151611,-0.6312808990478516,0.26673197746276855,7.509999999999884
-1.4457728862762451,-0.3054237365722656,0.3570263385772705,7.519999999999884
-0.7779245376586914,-0.010758399963378906,0.9106840491294861,7.529999999999884
-0.006674051284790039,-0.014097213745117188,0.849683940410614,7.539999999999884
0.8150205612182617,-0.2310962677001953,0.36612188816070557,7.5499999999998835
1.4605052471160889,-0.6691532135009766,-0.10518054664134979,7.559999999999883
2.188852071762085,-1.3745932579040527,-0.16877859830856323,7.569999999999883
2.686184883117676,-1.969770908355713,0.20877990126609802,7.579999999999883
2.445528030395508,-2.1241040229797363,1.1869045495986938,7.589999999999883
1.668036699295044,-1.7701802253723145,1.4943935871124268,7.599999999999882
1.1878795623779297,-1.2081899642944336,1.119698405265808,7.609999999999882
1.1663038730621338,-0.6551418304443359,0.4870753586292267,7.619999999999882
0.9607639312744141,0.15677165985107422,0.36045488715171814,7.629999999999882
0.8305745124816895,0.7554073333740234,0.71031653881073,7.6399999999998816
0.5248637199401855,1.05804443359375,1.0066243410110474,7.649999999999881
0.18677353858947754,1.0043277740478516,0.8158180117607117,7.659999999999881
-0.059264421463012695,0.7669162750244141,0.43587616086006165,7.669999999999881
-0.3231368064880371,0.5065832138061523,0.19729065895080566,7.679999999999881
-0.2918097972869873,0.49448680877685547,0.190548837184906,7.6899999999998805
-0.13483142852783203,-0.2525758743286133,-0.11934280395507812,7.69999999999988
0.20447969436645508,-0.5006399154663086,0.16011697053909302,7.70999999999988
0.4914109706878662,-0.5938186645507812,0.30145156383514404,7.71999999999988
0.882368803024292,-0.6971664428710938,0.1548919677734375,7.72999999999988
1.3668880462646484,-0.8534650802612305,-0.18987679481506348,7.739999999999879
1.626281499862671,-0.7867889404296875,-0.4142192006111145,7.749999999999879
1.5477776527404785,-0.6666698455810547,-0.6487037539482117,7.759999999999879
1.6703944206237793,-0.6520471572875977,-0.8513003587722778,7.769999999999879
1.922286033630371,-0.611785888671875,-0.6263400912284851,7.779999999999879
2.146397113800049,-0.42859363555908203,-0.1481700837612152,7.789999999999878
2.15602707862854,0.1095743179321289,0.08790469169616699,7.799999999999878
1.5940825939178467,0.9896831512451172,0.18599411845207214,7.809999999999878
1.0395865440368652,1.6789560317993164,0.14372101426124573,7.819999999999878
0.3023684024810791,2.5208969116210938,-0.044218435883522034,7.8299999999998775
-0.31838107109069824,2.8472061157226562,-0.28493601083755493,7.839999999999877
-1.1405093669891357,2.707564353942871,-0.40664970874786377,7.849999999999877
-1.9373798370361328,2.4072093963623047,-0.2543776333332062,7.859999999999877
-2.5529446601867676,2.181403160095215,0.08465880155563354,7.869999999999877
-2.8686344623565674,1.9501256942749023,0.3325016498565674,7.879999999999876
-2.748782157897949,1.583587646484375,0.5668863654136658,7.889999999999876
-2.3552021980285645,1.3584671020507812,0.5875082015991211,7.899999999999876
-1.8037855625152588,1.1775407791137695,0.4642676115036011,7.909999999999876
-1.3781428337097168,1.259812355041504,-0.2040257453918457,7.919999999999876
-0.9280037879943848,1.4368581771850586,-0.819119930267334,7.929999999999875
-0.7529416084289551,1.6714363098144531,-1.2849876880645752,7.939999999999875
-0.23057913780212402,1.6349153518676758,-1.2897721529006958,7.949999999999875
0.15722894668579102,1.8091850280761719,-1.0982838869094849,7.959999999999875
0.41196632385253906,1.9654779434204102,-0.9945273399353027,7.9699999999998745
0.45804786682128906,1.8893671035766602,-0.811913013458252,7.979999999999874
0.21941757202148438,1.4819879531860352,-0.9611951112747192,7.989999999999874
