AccX,AccY,AccZ,SampleRate
-0.6020402908325195,2.0217971801757812,1.959104061126709,0
0.012805461883544922,0.48902416229248047,-0.029082059860229492,0.01
0.3870227336883545,-0.40232086181640625,-3.4673452377319336,0.02
-0.23874664306640625,-1.7697453498840332,-5.836027145385742,0.03
-0.37630271911621094,-2.9303956031799316,-7.202013969421387,0.04
-0.40963029861450195,-4.117406845092773,-7.090251922607422,0.05
-0.09013748168945312,-5.248605728149414,-5.772303581237793,0.060000000000000005
-0.2132585048675537,-6.244949817657471,-4.769954681396484,0.07
-1.3430774211883545,-6.216591835021973,-4.229098320007324,0.08
-3.285295248031616,-5.385118007659912,-3.7845098972320557,0.09
-4.605252265930176,-4.70773983001709,-3.56774640083313,0.09999999999999999
-5.398458480834961,-4.348480224609375,-3.3616280555725098,0.10999999999999999
-5.787130832672119,-4.281135559082031,-2.8141322135925293,0.11999999999999998
-5.794878959655762,-4.570235252380371,-1.9726898670196533,0.12999999999999998
-5.756783485412598,-4.568674087524414,-2.0029051303863525,0.13999999999999999
-4.811874866485596,-5.424463272094727,-0.42961740493774414,0.15
-4.162772178649902,-5.711421012878418,0.378695011138916,0.16
-3.5942981243133545,-5.771368026733398,1.3333029747009277,0.17
-2.661928176879883,-5.512048721313477,2.3275647163391113,0.18000000000000002
-2.726696491241455,-5.557239532470703,2.473764181137085,0.19000000000000003
-0.2623302936553955,-4.434566974639893,4.842536926269531,0.20000000000000004
1.4817769527435303,-3.0225677490234375,5.331273555755615,0.21000000000000005
3.6079959869384766,-0.022951126098632812,4.2472100257873535,0.22000000000000006
5.387844085693359,4.432199478149414,2.7438552379608154,0.23000000000000007
6.772542953491211,9.975251197814941,2.3827428817749023,0.24000000000000007
8.59378433227539,14.399556159973145,2.4712347984313965,0.25000000000000006
9.845744132995605,13.943404197692871,1.9089500904083252,0.26000000000000006
7.335758209228516,8.972469329833984,1.9172577857971191,0.2700000000000001
1.7579360008239746,4.513470649719238,2.3067173957824707,0.2800000000000001
-2.3059568405151367,1.4815673828125,3.8203494548797607,0.2900000000000001
-4.712893009185791,-0.5658807754516602,4.993395805358887,0.3000000000000001
-5.452402591705322,-1.5428104400634766,5.442073345184326,0.3100000000000001
-4.356331825256348,-1.4479780197143555,3.43257737159729,0.3200000000000001
-3.4775924682617188,-1.715275764465332,0.38735437393188477,0.3300000000000001
-2.687962532043457,-0.5925636291503906,-4.610184669494629,0.34000000000000014
-1.336866855621338,1.563924789428711,-10.241199493408203,0.35000000000000014
-1.1582920551300049,4.357486724853516,-13.8539457321167,0.36000000000000015
-3.2801666259765625,8.365738868713379,-14.843673706054688,0.37000000000000016
-6.028057098388672,9.795848846435547,-12.320947647094727,0.38000000000000017
-8.46660041809082,11.183523178100586,1.9913487434387207,0.3900000000000002
-5.807650089263916,5.354434013366699,9.010425567626953,0.4000000000000002
-0.49809694290161133,-0.8341083526611328,5.396413326263428,0.4100000000000002
1.0573616027832031,-4.526857376098633,1.1157275438308716,0.4200000000000002
1.1963882446289062,-6.977633953094482,-4.364100456237793,0.4300000000000002
0.19031834602355957,-6.884808540344238,-8.393645286560059,0.4400000000000002
-2.026589870452881,-5.128661632537842,-11.513622283935547,0.45000000000000023
-3.449157476425171,-3.9814014434814453,-11.549581527709961,0.46000000000000024
-3.530062437057495,-2.992450714111328,-9.790587425231934,0.47000000000000025
-2.6041221618652344,-2.0041356086730957,-7.633572578430176,0.48000000000000026
-1.3813765048980713,-0.25234413146972656,-5.273250579833984,0.49000000000000027
-0.3373587131500244,1.2658300399780273,-0.1370166689157486,0.5000000000000002
2.783985137939453,3.4392642974853516,11.5812406539917,0.5100000000000002
3.7219560146331787,2.611471176147461,9.48361587524414,0.5200000000000002
3.7814998626708984,0.683588981628418,4.277937889099121,0.5300000000000002
3.9694855213165283,-1.5418334007263184,-0.7025126218795776,0.5400000000000003
3.9088053703308105,-3.32431697845459,-3.352621078491211,0.5500000000000003
2.1409494876861572,-3.3060407638549805,-2.333311080932617,0.5600000000000003
0.6905267238616943,-2.2842259407043457,-0.19735068082809448,0.5700000000000003
-0.6257944107055664,-1.2174644470214844,2.2337088584899902,0.5800000000000003
-0.6665608882904053,-0.9951028823852539,3.465735912322998,0.5900000000000003
-0.15953707695007324,-0.5779314041137695,2.6709470748901367,0.6000000000000003
0.05073952674865723,-0.12859821319580078,0.46099814772605896,0.6100000000000003
0.15984892845153809,-0.4358987808227539,-0.8165978193283081,0.6200000000000003
0.6842076778411865,-0.8886938095092773,-0.7887213230133057,0.6300000000000003
0.998682975769043,-1.502873420715332,-0.19694596529006958,0.6400000000000003
1.113288164138794,-1.972154140472412,0.4548574686050415,0.6500000000000004
1.3510334491729736,-2.265347957611084,0.4323151707649231,0.6600000000000004
1.0768744945526123,-2.0900259017944336,-0.01274871826171875,0.6700000000000004
0.5807290077209473,-1.6239118576049805,-0.2524195909500122,0.6800000000000004
0.25786733627319336,-0.8964004516601562,-0.05465209484100342,0.6900000000000004
0.11710047721862793,0.053890228271484375,0.7698601484298706,0.7000000000000004
0.12009572982788086,0.9462757110595703,2.2594962120056152,0.7100000000000004
0.20593619346618652,1.3619775772094727,3.53560209274292,0.7200000000000004
0.5655539035797119,1.1508216857910156,3.0118932723999023,0.7300000000000004
1.1853430271148682,0.9183263778686523,1.8644551038742065,0.7400000000000004
1.9205260276794434,1.153778076171875,1.1925570964813232,0.7500000000000004
2.9874162673950195,1.54656982421875,1.561326503753662,0.7600000000000005
3.824585199356079,1.4500885009765625,2.8173909187316895,0.7700000000000005
4.264734268188477,0.8606395721435547,3.5795724391937256,0.7800000000000005
3.6319668292999268,0.29946041107177734,2.5428688526153564,0.7900000000000005
3.1532297134399414,0.21751880645751953,1.7392929792404175,0.8000000000000005
2.9231395721435547,1.2063589096069336,1.4257893562316895,0.8100000000000005
3.3611109256744385,2.603515625,1.9870247840881348,0.8200000000000005
3.3550009727478027,2.600489616394043,1.9687883853912354,0.8300000000000005
5.093689441680908,3.7073869705200195,1.8892794847488403,0.8400000000000005
5.9720282554626465,2.043100357055664,0.6136517524719238,0.8500000000000005
6.193724632263184,0.42524242401123047,-0.2528914213180542,0.8600000000000005
5.430504322052002,-0.020643234252929688,-0.598875880241394,0.8700000000000006
5.300506591796875,-0.027749061584472656,-0.8208714723587036,0.8800000000000006
2.594752550125122,0.8297662734985352,0.9746407866477966,0.8900000000000006
0.8522708415985107,2.0003156661987305,0.36612099409103394,0.9000000000000006
-0.09341049194335938,3.4917993545532227,0.3263034224510193,0.9100000000000006
0.41523170471191406,3.8194351196289062,0.31819576025009155,0.9200000000000006
1.9287109375,3.1764402389526367,-0.5120333433151245,0.9300000000000006
2.1854941844940186,3.294008255004883,-1.7403130531311035,0.9400000000000006
1.0584907531738281,3.930215835571289,-2.6790146827697754,0.9500000000000006
-0.04950904846191406,4.164045333862305,-3.161977767944336,0.9600000000000006
-0.62056565284729,3.6117734909057617,-2.3271937370300293,0.9700000000000006
-0.31841588020324707,2.8705615997314453,-2.0136871337890625,0.9800000000000006
-0.470639705657959,2.748908042907715,-1.6380178928375244,0.9900000000000007
-0.7507116794586182,4.047774314880371,-1.479393482208252,1.0000000000000007
-0.13324594497680664,3.443284034729004,0.04085743427276611,1.0100000000000007
0.7624266147613525,1.862253189086914,2.400049924850464,1.0200000000000007
0.5634903907775879,0.16472530364990234,2.7609949111938477,1.0300000000000007
-0.1696772575378418,-0.837954044342041,1.4051992893218994,1.0400000000000007
-0.9401638507843018,-1.8110933303833008,-0.9190680980682373,1.0500000000000007
-1.8191030025482178,-2.230591297149658,-2.7932791709899902,1.0600000000000007
-2.9379422664642334,-2.13077449798584,-5.187764644622803,1.0700000000000007
-2.9930195808410645,-2.083407402038574,-5.258190631866455,1.0800000000000007
-3.6327641010284424,-1.7254219055175781,-7.095928192138672,1.0900000000000007
-3.373211145401001,-1.8823871612548828,-6.799180030822754,1.1000000000000008
-3.0191102027893066,-2.4073047637939453,-6.309059143066406,1.1100000000000008
-3.4843645095825195,-2.718538761138916,-5.9463911056518555,1.1200000000000008
-4.1541361808776855,-3.1436924934387207,-5.299262046813965,1.1300000000000008
-4.663250923156738,-3.985654830932617,-4.688013553619385,1.1400000000000008
-5.037065029144287,-4.813322067260742,-3.4190361499786377,1.1500000000000008
-5.451684474945068,-5.1096954345703125,-2.709984302520752,1.1600000000000008
-5.910321235656738,-5.265937805175781,-2.1019721031188965,1.1700000000000008
-5.9098992347717285,-5.46493673324585,-1.6574969291687012,1.1800000000000008
-5.474014759063721,-5.652392387390137,-1.3172874450683594,1.1900000000000008
-4.952610015869141,-5.669865131378174,-0.7931573390960693,1.2000000000000008
-4.271919250488281,-5.301634788513184,0.2040724754333496,1.2100000000000009
-3.4288339614868164,-4.7465691566467285,1.3606321811676025,1.2200000000000009
-2.030961036682129,-4.322532653808594,3.8946163654327393,1.2300000000000009
-0.03557920455932617,-3.6280593872070312,6.610326766967773,1.2400000000000009
2.1963016986846924,-1.629715919494629,6.757378578186035,1.2500000000000009
4.966547012329102,2.043020248413086,4.780351161956787,1.260000000000001
8.477487564086914,7.7823381423950195,5.085853099822998,1.270000000000001
10.62231159210205,10.92760181427002,6.5184173583984375,1.280000000000001
12.856690406799316,11.509170532226562,5.835097312927246,1.290000000000001
11.065352439880371,8.4984769821167,3.3512864112854004,1.300000000000001
4.274054050445557,5.477291107177734,1.1844215393066406,1.310000000000001
-1.3729074001312256,3.2738466262817383,1.0371520519256592,1.320000000000001
-4.564687252044678,1.5902738571166992,2.879427433013916,1.330000000000001
-5.70217227935791,0.7807960510253906,2.9968514442443848,1.340000000000001
-5.657675743103027,0.6933927536010742,1.960265874862671,1.350000000000001
-4.581015110015869,0.3126411437988281,0.618988037109375,1.360000000000001
-3.5492441654205322,1.1450910568237305,-2.689897060394287,1.370000000000001
-3.516772747039795,1.0950727462768555,-2.568920612335205,1.380000000000001
-2.026958465576172,7.528536796569824,-13.388725280761719,1.390000000000001
-3.619596004486084,10.350871086120605,-14.063838005065918,1.400000000000001
-6.552725791931152,10.90424919128418,-8.460977554321289,1.410000000000001
-7.569973945617676,8.334247589111328,1.1985743045806885,1.420000000000001
-3.5410027503967285,1.1484508514404297,5.134747505187988,1.430000000000001
-0.2270350456237793,-3.5803041458129883,2.6521384716033936,1.440000000000001
1.1051528453826904,-7.060083389282227,-0.8968037366867065,1.450000000000001
0.7698345184326172,-8.657917022705078,-3.910560369491577,1.460000000000001
-1.1441227197647095,-7.955622673034668,-7.493999481201172,1.470000000000001
-2.437342405319214,-6.162799835205078,-10.190059661865234,1.480000000000001
-3.0882723331451416,-4.230161190032959,-10.861557006835938,1.490000000000001
-3.2459537982940674,-2.4694299697875977,-9.555609703063965,1.500000000000001
-2.382517099380493,-0.8230352401733398,-6.805434226989746,1.5100000000000011
-1.7578036785125732,0.6178951263427734,-4.577393054962158,1.5200000000000011
0.32317185401916504,2.9038524627685547,3.6377031803131104,1.5300000000000011
2.886998176574707,3.889829635620117,9.669548988342285,1.5400000000000011
4.049706935882568,2.4133195877075195,7.453725337982178,1.5500000000000012
4.576322555541992,0.34348201751708984,3.3710365295410156,1.5600000000000012
4.753499984741211,-2.0952367782592773,-0.9599920511245728,1.5700000000000012
4.421804904937744,-3.6500067710876465,-3.009512424468994,1.5800000000000012
2.694105386734009,-4.216987133026123,-1.762387990951538,1.5900000000000012
0.6328341960906982,-2.729849338531494,0.40872639417648315,1.6000000000000012
-0.339327335357666,-1.7695555686950684,2.033001184463501,1.6100000000000012
-0.7598047256469727,-1.4660043716430664,3.0560927391052246,1.6200000000000012
-0.4825592041015625,-1.1986894607543945,2.444014549255371,1.6300000000000012
-0.5067167282104492,-0.6432733535766602,1.2463231086730957,1.6400000000000012
-0.08466720581054688,-0.5439157485961914,-0.013998150825500488,1.6500000000000012
0.5746009349822998,-0.6948862075805664,-0.29427576065063477,1.6600000000000013
0.6045215129852295,-0.696568489074707,-0.22703123092651367,1.6700000000000013
1.164236307144165,-1.4766793251037598,0.7821708917617798,1.6800000000000013
1.3279719352722168,-1.8744840621948242,0.8493369817733765,1.6900000000000013
1.4359171390533447,-2.062206745147705,0.5375869870185852,1.7000000000000013
1.2554714679718018,-1.9447088241577148,-0.05365335941314697,1.7100000000000013
0.8190169334411621,-1.1784696578979492,-0.21945583820343018,1.7200000000000013
0.6595394611358643,0.010960578918457031,0.6717180013656616,1.7300000000000013
0.7866122722625732,1.1235675811767578,2.166632890701294,1.7400000000000013
1.3217854499816895,1.6075010299682617,3.210500717163086,1.7500000000000013
1.4030144214630127,1.6143150329589844,3.338266372680664,1.7600000000000013
2.1813504695892334,1.7674074172973633,2.4011905193328857,1.7700000000000014
2.8284285068511963,2.104818344116211,2.1637542247772217,1.7800000000000014
3.3388588428497314,2.102510452270508,2.5587782859802246,1.7900000000000014
3.55564546585083,1.685811996459961,3.046231269836426,1.8000000000000014
3.7751076221466064,1.014430046081543,2.6044161319732666,1.8100000000000014
3.910073757171631,0.8618307113647461,2.0833120346069336,1.8200000000000014
3.912503242492676,1.6390647888183594,1.8393962383270264,1.8300000000000014
4.276318550109863,2.8518762588500977,2.0262887477874756,1.8400000000000014
5.05360221862793,3.6590099334716797,1.8847758769989014,1.8500000000000014
6.020606994628906,3.521635055541992,1.2331995964050293,1.8600000000000014
6.8819379806518555,1.8461036682128906,0.41884875297546387,1.8700000000000014
7.0845184326171875,0.08544158935546875,-0.22147917747497559,1.8800000000000014
5.993969917297363,-0.4516887664794922,-0.41679108142852783,1.8900000000000015
4.130620002746582,0.10872459411621094,0.2894991636276245,1.9000000000000015
2.473726272583008,1.085458755493164,1.0423654317855835,1.9100000000000015
0.892629861831665,2.502532958984375,0.0056149959564208984,1.9200000000000015
0.6107792854309082,3.841156005859375,-0.5375507473945618,1.9300000000000015
0.66184401512146,4.348514556884766,-0.3141791522502899,1.9400000000000015
1.0223727226257324,4.315896034240723,-0.56662917137146,1.9500000000000015
0.7631487846374512,4.456019401550293,-1.2142784595489502,1.9600000000000015
-0.20309114456176758,4.628778457641602,-2.079002857208252,1.9700000000000015
-1.4582901000976562,4.834264755249023,-2.6314632892608643,1.9800000000000015
-2.7572150230407715,4.497799873352051,-1.8356648683547974,1.9900000000000015
-3.8526744842529297,4.353976249694824,-0.8822407722473145,2.0000000000000013
-4.323012828826904,3.998615264892578,-0.6738962531089783,2.010000000000001
-3.686913251876831,4.305573463439941,0.22244501113891602,2.020000000000001
-2.10420823097229,3.396254539489746,2.0929925441741943,2.0300000000000007
-0.9580533504486084,2.263334274291992,3.2542622089385986,2.0400000000000005
-0.8681049346923828,0.9395713806152344,1.5579338073730469,2.0500000000000003
-0.8753597736358643,-0.32164955139160156,-1.9598886966705322,2.06
-0.15439772605895996,-1.2123980522155762,-6.129136085510254,2.07
-0.07845568656921387,-1.9302496910095215,-9.066383361816406,2.0799999999999996
0.35448718070983887,-2.9661359786987305,-9.027290344238281,2.0899999999999994
0.5249943733215332,-3.5276966094970703,-6.635562419891357,2.099999999999999
-0.04996204376220703,-3.819272041320801,-5.092774391174316,2.109999999999999
-0.8353748321533203,-3.759430408477783,-4.7534613609313965,2.1199999999999988
-2.480302333831787,-3.503755569458008,-4.831265926361084,2.1299999999999986
-4.038753032684326,-3.5668253898620605,-4.878532409667969,2.1399999999999983
-5.49027681350708,-3.9967637062072754,-4.486305236816406,2.149999999999998
-6.541803359985352,-4.578962326049805,-3.842980146408081,2.159999999999998
-7.401580810546875,-5.140973091125488,-2.8238911628723145,2.1699999999999977
-7.672995567321777,-5.692317008972168,-2.0364627838134766,2.1799999999999975
-7.6598663330078125,-6.303415298461914,-1.0473456382751465,2.1899999999999973
-7.222238063812256,-7.044084072113037,-0.4477810859680176,2.199999999999997
-6.417149066925049,-7.698674201965332,0.06287908554077148,2.209999999999997
-5.706539154052734,-7.850028038024902,0.6904807090759277,2.2199999999999966
-5.1108808517456055,-7.359010696411133,1.6613678932189941,2.2299999999999964
-4.361724853515625,-6.431501388549805,2.6791486740112305,2.239999999999996
-2.802568197250366,-4.916383266448975,4.35983943939209,2.249999999999996
0.4160313606262207,-2.3859825134277344,5.292666435241699,2.259999999999996
4.342624664306641,4.723369598388672,2.7235679626464844,2.2699999999999956
7.109958648681641,14.123188018798828,0.8497834205627441,2.2799999999999954
12.299051284790039,19.041610717773438,4.0771074295043945,2.289999999999995
15.958648681640625,17.508434295654297,5.564497947692871,2.299999999999995
15.62196159362793,11.680684089660645,8.131568908691406,2.3099999999999947
5.680004596710205,5.50527286529541,7.05862283706665,2.3199999999999945
-0.8548645973205566,2.13979434967041,5.346751689910889,2.3299999999999943
-4.387465000152588,0.2895011901855469,2.6868739128112793,2.339999999999994
-6.212185859680176,-0.3637046813964844,-0.2628142833709717,2.349999999999994
-6.383068084716797,-0.4988851547241211,-1.9474161863327026,2.3599999999999937
-5.88105583190918,0.3379812240600586,-4.0565972328186035,2.3699999999999934
-4.988621711730957,2.613950729370117,-8.662035942077637,2.3799999999999932
-4.567254066467285,6.111673355102539,-12.821759223937988,2.389999999999993
-6.199142932891846,9.063680648803711,-14.52709674835205,2.399999999999993
-9.073948860168457,10.109731674194336,-10.339914321899414,2.4099999999999926
-8.615497589111328,7.944465637207031,-1.8423283100128174,2.4199999999999924
-4.048149585723877,2.342289924621582,4.516144275665283,2.429999999999992
-1.3266282081604004,-2.1889729499816895,2.387477159500122,2.439999999999992
-0.03270435333251953,-5.282357215881348,-0.7121032476425171,2.4499999999999917
0.4127082824707031,-7.509929656982422,-4.119891166687012,2.4599999999999915
0.04627823829650879,-8.087023735046387,-8.752226829528809,2.4699999999999913
-0.7531068325042725,-7.148367404937744,-10.955367088317871,2.479999999999991
-1.2633024454116821,-5.2568745613098145,-11.057694435119629,2.489999999999991
-1.111881136894226,-3.1124916076660156,-9.785957336425781,2.4999999999999907
-0.8609992265701294,-1.097513198852539,-7.3665947914123535,2.5099999999999905
-0.517204761505127,1.6736335754394531,-2.596176862716675,2.5199999999999902
-0.4693465232849121,1.658492088317871,-2.507378101348877,2.52999999999999
3.3929357528686523,4.9230451583862305,9.942238807678223,2.53999999999999
4.415897369384766,2.747756004333496,6.892730236053467,2.5499999999999896
4.828717231750488,0.07223987579345703,2.1408121585845947,2.5599999999999894
4.868602752685547,-2.5224862098693848,-1.7852561473846436,2.569999999999989
4.701740264892578,-4.402123928070068,-2.7534496784210205,2.579999999999989
2.9568614959716797,-4.940291404724121,-1.2293263673782349,2.5899999999999888
0.40053629875183105,-3.5896992683410645,0.22179782390594482,2.5999999999999885
-1.158687949180603,-2.0290236473083496,1.2539985179901123,2.6099999999999883
-0.8315773010253906,-1.7475948333740234,2.300438165664673,2.619999999999988
0.04532504081726074,-1.399787425994873,2.421038866043091,2.629999999999988
0.8745203018188477,-0.9758663177490234,1.4244093894958496,2.6399999999999877
1.3242075443267822,-0.8865671157836914,-0.05693984031677246,2.6499999999999875
1.6850554943084717,-1.418217658996582,-0.6041172742843628,2.6599999999999873
2.100177049636841,-2.2059664726257324,-0.8569847345352173,2.669999999999987
2.1603341102600098,-2.6046414375305176,-0.5131472945213318,2.679999999999987
1.76239013671875,-2.6132917404174805,-0.13088715076446533,2.6899999999999866
0.9508271217346191,-2.4243855476379395,0.141152024269104,2.6999999999999864
0.16914820671081543,-1.973461627960205,0.4396606683731079,2.709999999999986
-0.14411306381225586,-1.2439689636230469,0.8438658118247986,2.719999999999986
-0.18975067138671875,-0.1665019989013672,1.5494354963302612,2.7299999999999858
-0.15608882904052734,0.6954221725463867,2.433596134185791,2.7399999999999856
0.15276217460632324,1.1516780853271484,2.7542896270751953,2.7499999999999853
0.33681201934814453,1.4128847122192383,2.317748785018921,2.759999999999985
0.6346845626831055,1.7060565948486328,1.555075764656067,2.769999999999985
1.2034342288970947,1.9425058364868164,1.6661453247070312,2.7799999999999847
1.9309816360473633,2.2087812423706055,2.200322389602661,2.7899999999999845
3.010448932647705,2.009760856628418,2.2235844135284424,2.7999999999999843
3.811565637588501,1.3144922256469727,1.800424575805664,2.809999999999984
4.340458393096924,0.7742471694946289,1.2468889951705933,2.819999999999984
4.844722270965576,0.9302997589111328,0.9988547563552856,2.8299999999999836
5.067843437194824,1.9345207214355469,1.272731065750122,2.8399999999999834
5.509675979614258,3.0556344985961914,1.8961161375045776,2.849999999999983
6.048058986663818,3.525005340576172,2.3967862129211426,2.859999999999983
6.392467498779297,3.580324172973633,1.995966911315918,2.869999999999983
6.236904144287109,3.1463146209716797,1.347353219985962,2.8799999999999826
5.607120513916016,2.0627307891845703,0.5490343570709229,2.8899999999999824
4.956883430480957,1.4593324661254883,-0.034018516540527344,2.899999999999982
4.430548191070557,1.3553762435913086,0.03594493865966797,2.909999999999982
3.5937719345092773,1.7958812713623047,1.212019443511963,2.9199999999999817
2.4304277896881104,2.6749372482299805,1.4018412828445435,2.9299999999999815
1.3777341842651367,3.274714469909668,0.006934762001037598,2.9399999999999813
0.8626089096069336,3.515589714050293,-0.37844401597976685,2.949999999999981
0.7623376846313477,3.344742774963379,-0.5256667733192444,2.959999999999981
0.4492979049682617,3.327333450317383,-1.1345853805541992,2.9699999999999807
-0.43390345573425293,3.209397315979004,-2.0988576412200928,2.9799999999999804
-1.7582627534866333,3.0968055725097656,-2.9951353073120117,2.9899999999999802
-2.8978705406188965,3.1676101684570312,-2.831433057785034,2.99999999999998
-3.8115382194519043,3.238743782043457,-1.6157996654510498,3.00999999999998
-4.057469844818115,3.014955520629883,-1.1729989051818848,3.0199999999999796
-3.7544138431549072,3.1691722869873047,-0.48495256900787354,3.0299999999999794
-2.990443706512451,3.080066680908203,0.8622250556945801,3.039999999999979
-1.980684518814087,2.2412290573120117,1.854015827178955,3.049999999999979
-1.276402235031128,1.235152244567871,1.7653224468231201,3.0599999999999787
-1.0533664226531982,0.2760343551635742,0.17039036750793457,3.0699999999999785
-1.0514390468597412,-0.5619640350341797,-1.988044261932373,3.0799999999999783
-1.005525827407837,-1.5948848724365234,-5.976309776306152,3.089999999999978
-1.1718924045562744,-1.496938705444336,-6.072955131530762,3.099999999999978
-1.5281286239624023,-2.624054431915283,-8.329524993896484,3.1099999999999777
-0.9843509197235107,-3.551772117614746,-6.920248985290527,3.1199999999999775
-0.4924297332763672,-4.672374725341797,-5.673672199249268,3.1299999999999772
-0.3000941276550293,-5.536910057067871,-5.1668524742126465,3.139999999999977
-0.89034104347229,-6.180641174316406,-4.823585033416748,3.149999999999977
-2.2487711906433105,-6.211645126342773,-4.964594841003418,3.1599999999999766
-3.886277914047241,-5.864043235778809,-4.863362789154053,3.1699999999999764
-5.151296138763428,-5.787436485290527,-4.326380729675293,3.179999999999976
-6.184197425842285,-5.8979597091674805,-3.337275981903076,3.189999999999976
-6.779025554656982,-5.995960235595703,-2.464301109313965,3.1999999999999758
-7.158472061157227,-6.190326690673828,-1.2520551681518555,3.2099999999999755
-7.02699089050293,-6.345890045166016,-0.10877227783203125,3.2199999999999753
-6.39882230758667,-6.192903518676758,0.8136582374572754,3.229999999999975
-5.240812301635742,-5.719123840332031,1.8453788757324219,3.239999999999975
-3.550089120864868,-5.020048141479492,4.166906356811523,3.2499999999999747
-2.018169403076172,-4.18457555770874,6.437067031860352,3.2599999999999745
-0.058962345123291016,-2.48588228225708,7.18030309677124,3.2699999999999743
3.0958917140960693,1.7848024368286133,4.408388137817383,3.279999999999974
7.292435646057129,10.901402473449707,2.6236729621887207,3.289999999999974
10.444324493408203,16.393497467041016,6.126349449157715,3.2999999999999736
14.728116989135742,16.891693115234375,6.611887454986572,3.3099999999999734
14.869230270385742,11.756568908691406,6.333867073059082,3.319999999999973
5.7424116134643555,5.767807960510254,5.231322765350342,3.329999999999973
-0.39708781242370605,2.1033153533935547,3.649095296859741,3.3399999999999728
-3.995403528213501,-0.32257080078125,1.93575119972229,3.3499999999999726
-6.106572151184082,-1.6576652526855469,1.5955498218536377,3.3599999999999723
-6.625302314758301,-1.6875572204589844,1.3380041122436523,3.369999999999972
-5.780951023101807,-1.6356520652770996,0.3748030662536621,3.379999999999972
-4.680029392242432,-0.6109437942504883,-3.78082275390625,3.3899999999999717
-3.6528196334838867,2.3213138580322266,-9.655210494995117,3.3999999999999715
-3.4278550148010254,6.124926567077637,-14.281485557556152,3.4099999999999713
-4.619075298309326,10.166616439819336,-15.285707473754883,3.419999999999971
-7.638911247253418,12.393183708190918,-10.27995491027832,3.429999999999971
-8.391310691833496,12.103503227233887,0.32074499130249023,3.4399999999999706
-5.123762130737305,5.877795219421387,7.9777984619140625,3.4499999999999704
-0.5175454616546631,-0.09018707275390625,5.478377819061279,3.45999999999997
0.9221282005310059,-3.893310546875,1.9982033967971802,3.46999999999997
1.499673843383789,-7.3038458824157715,-2.2946512699127197,3.47999999999997
1.1135096549987793,-8.39583683013916,-8.066838264465332,3.4899999999999696
-0.7995514869689941,-6.961143493652344,-11.339475631713867,3.4999999999999694
-2.367469072341919,-5.45359468460083,-12.14073371887207,3.509999999999969
-3.303931474685669,-4.465708255767822,-10.710868835449219,3.519999999999969
-3.386237144470215,-2.988614559173584,-9.067968368530273,3.5299999999999687
-1.9020445346832275,-1.3136959075927734,-7.337324142456055,3.5399999999999685
-1.09494948387146,0.7259531021118164,-4.869349479675293,3.5499999999999683
1.1388449668884277,2.9985713958740234,5.719175338745117,3.559999999999968
1.1238975524902344,3.003911018371582,5.814103603363037,3.569999999999968
4.465982437133789,1.8126964569091797,7.889835834503174,3.5799999999999677
4.815960884094238,-0.8956069946289062,3.118023157119751,3.5899999999999674
4.7995452880859375,-3.0638551712036133,-0.9532614350318909,3.5999999999999672
4.547667026519775,-4.163785934448242,-1.9076817035675049,3.609999999999967
2.4557769298553467,-3.239386558532715,-0.6059359312057495,3.619999999999967
-0.2209489345550537,-1.5944161415100098,1.5235427618026733,3.6299999999999666
-1.7848156690597534,-0.8265466690063477,2.897270917892456,3.6399999999999664
-1.5310232639312744,-0.9940862655639648,2.864506721496582,3.649999999999966
-0.4949004650115967,-0.6381311416625977,2.1816883087158203,3.659999999999966
0.18992066383361816,-0.5137004852294922,0.30314481258392334,3.6699999999999657
0.7989904880523682,-1.031846046447754,-0.4423103332519531,3.6799999999999655
0.8741340637207031,-1.634037971496582,-0.008437871932983398,3.6899999999999653
1.2520952224731445,-2.3452234268188477,0.37977170944213867,3.699999999999965
1.4390027523040771,-2.5059261322021484,0.3942755460739136,3.709999999999965
1.5512778759002686,-2.3726577758789062,0.41884708404541016,3.7199999999999647
1.4677693843841553,-1.6384453773498535,0.7760666012763977,3.7299999999999645
1.2660820484161377,-0.5812416076660156,1.465689778327942,3.7399999999999642
1.2881004810333252,0.15143775939941406,2.0172557830810547,3.749999999999964
1.4058332443237305,0.6808834075927734,2.205505847930908,3.759999999999964
1.7429630756378174,1.0366544723510742,2.075805902481079,3.7699999999999636
2.3687973022460938,1.4623022079467773,1.9391567707061768,3.7799999999999634
3.121232032775879,2.022489547729492,2.263561964035034,3.789999999999963
3.438654661178589,2.3842039108276367,2.8657963275909424,3.799999999999963
3.5168683528900146,2.3052616119384766,3.0323805809020996,3.8099999999999627
3.3139052391052246,1.9513397216796875,2.5032334327697754,3.8199999999999625
3.221377372741699,1.9155158996582031,1.744384527206421,3.8299999999999623
3.4523367881774902,2.4389686584472656,1.440269112586975,3.839999999999962
4.272336959838867,3.458401679992676,1.808179497718811,3.849999999999962
5.153400897979736,3.972409248352051,2.2633237838745117,3.8599999999999617
6.176345348358154,3.6586217880249023,1.7071675062179565,3.8699999999999615
6.880417823791504,2.686984062194824,0.30222249031066895,3.8799999999999613
7.141484260559082,1.370589256286621,-0.5462830066680908,3.889999999999961
7.01238489151001,1.3714179992675781,-0.6677103042602539,3.899999999999961
6.3299689292907715,0.2701597213745117,-0.05181610584259033,3.9099999999999606
4.645160675048828,1.1214351654052734,0.9252195954322815,3.9199999999999604
3.151890516281128,1.781209945678711,1.4958782196044922,3.92999999999996
1.877117395401001,2.856472969055176,0.5511575937271118,3.93999999999996
1.3025355339050293,3.4959144592285156,-0.10361593961715698,3.9499999999999598
0.8180046081542969,3.649491310119629,-0.6598031520843506,3.9599999999999596
0.06076359748840332,3.5733070373535156,-1.7658755779266357,3.9699999999999593
-0.005578756332397461,3.596738815307617,-2.0181453227996826,3.979999999999959
-2.3955273628234863,3.8384857177734375,-3.3645179271698,3.989999999999959
-3.27581524848938,3.6457691192626953,-2.9618430137634277,3.9999999999999587
-3.979083776473999,3.4160099029541016,-2.112541437149048,4.009999999999959
-4.2450690269470215,4.051118850708008,-1.6189113855361938,4.019999999999959
-3.201380968093872,3.646378517150879,-0.2788354158401489,4.0299999999999585
-2.631272792816162,3.2522478103637695,0.8834993839263916,4.039999999999958
-1.718302845954895,1.8672056198120117,1.7510416507720947,4.049999999999958
-1.1166913509368896,0.7812461853027344,1.694044828414917,4.059999999999958
-1.0567998886108398,-0.09767818450927734,-0.25217294692993164,4.069999999999958
-1.5355606079101562,-0.8465986251831055,-2.742903232574463,4.079999999999957
-1.551772117614746,-1.3025860786437988,-4.838429927825928,4.089999999999957
-1.0800304412841797,-1.779456615447998,-7.061725616455078,4.099999999999957
-1.3552134037017822,-1.9670133590698242,-5.876307487487793,4.109999999999957
-1.3790309429168701,-2.3740172386169434,-4.984009742736816,4.119999999999957
-1.3858163356781006,-2.9315667152404785,-4.503740310668945,4.129999999999956
-0.7904379367828369,-3.9971494674682617,-4.85300874710083,4.139999999999956
-1.160515546798706,-5.181431770324707,-4.35891056060791,4.149999999999956
-1.8378992080688477,-5.670656204223633,-4.733486175537109,4.159999999999956
-2.9752984046936035,-5.901163578033447,-4.40991735458374,4.1699999999999555
-4.702831745147705,-5.8509111404418945,-4.491298198699951,4.179999999999955
-5.842547416687012,-5.775006294250488,-4.972917079925537,4.189999999999955
-6.90363883972168,-5.586179733276367,-4.329692840576172,4.199999999999955
-7.409850120544434,-5.5841288566589355,-3.3295769691467285,4.209999999999955
-7.189740180969238,-5.520831108093262,-2.7682580947875977,4.2199999999999545
-6.497727394104004,-5.334491729736328,-1.8463828563690186,4.229999999999954
-5.448690891265869,-5.182060241699219,-0.569002628326416,4.239999999999954
-4.168646812438965,-4.976527214050293,1.2263283729553223,4.249999999999954
-2.3162994384765625,-4.271838188171387,3.5889289379119873,4.259999999999954
0.491107702255249,-2.7057223320007324,6.54704475402832,4.269999999999953
3.0759832859039307,-0.1761178970336914,7.425779342651367,4.279999999999953
7.339964866638184,5.596152305603027,6.153029441833496,4.289999999999953
10.03531551361084,11.510587692260742,8.288809776306152,4.299999999999953
12.798280715942383,13.792838096618652,9.06100845336914,4.3099999999999525
14.446759223937988,10.618773460388184,4.759463310241699,4.319999999999952
7.444095134735107,5.407719612121582,1.100792407989502,4.329999999999952
1.2727375030517578,3.1135787963867188,0.6187300682067871,4.339999999999952
-3.4150538444519043,1.1156702041625977,1.6063969135284424,4.349999999999952
-5.453417778015137,-0.48822593688964844,2.125267744064331,4.3599999999999515
-5.7403764724731445,-1.4225702285766602,2.088697671890259,4.369999999999951
-4.965157985687256,-2.2810306549072266,1.949613332748413,4.379999999999951
-4.448681831359863,-1.314955711364746,-1.6048250198364258,4.389999999999951
-4.0302815437316895,0.9635200500488281,-5.759983062744141,4.399999999999951
-3.615802764892578,4.301852226257324,-10.792110443115234,4.40999999999995
-4.197029113769531,8.607583999633789,-13.67542839050293,4.41999999999995
-6.337148666381836,13.029253959655762,-13.594949722290039,4.42999999999995
-9.077152252197266,15.251643180847168,-6.367565631866455,4.43999999999995
-7.369995594024658,11.136131286621094,3.6988306045532227,4.4499999999999496
-2.340770959854126,4.811005592346191,5.08908224105835,4.459999999999949
0.5733895301818848,0.2341756820678711,3.2649435997009277,4.469999999999949
1.8617911338806152,-3.545074462890625,0.1000213623046875,4.479999999999949
1.9548313617706299,-7.662481784820557,-4.597256660461426,4.489999999999949
1.4485206604003906,-8.633912086486816,-9.812627792358398,4.4999999999999485
-0.3979649543762207,-7.73912239074707,-11.821416854858398,4.509999999999948
-1.6890950202941895,-6.657210350036621,-11.64580249786377,4.519999999999948
-2.352120876312256,-4.6201090812683105,-10.78652286529541,4.529999999999948
-1.997650146484375,-2.235222816467285,-8.84142017364502,4.539999999999948
-1.711032509803772,0.10040092468261719,-6.157976150512695,4.549999999999947
-0.8170793056488037,2.481414794921875,-1.0102895498275757,4.559999999999947
2.8103432655334473,5.047982215881348,12.639110565185547,4.569999999999947
4.100385665893555,3.4183034896850586,11.118523597717285,4.579999999999947
3.831184148788452,0.5193805694580078,6.064997673034668,4.589999999999947
2.7892630100250244,-1.3788700103759766,0.997624933719635,4.599999999999946
0.21059060096740723,-1.6388254165649414,-1.59470796585083,4.609999999999946
-1.487972378730774,-2.0793256759643555,-2.0745084285736084,4.619999999999946
-2.166045665740967,-2.4936909675598145,-1.2577037811279297,4.629999999999946
-1.7232904434204102,-2.466954231262207,0.45775890350341797,4.6399999999999455
-0.4454619884490967,-2.541778087615967,2.7051403522491455,4.649999999999945
0.04592299461364746,-1.9812827110290527,3.407987117767334,4.659999999999945
0.39713406562805176,-1.5674467086791992,1.9798452854156494,4.669999999999945
1.3280680179595947,-1.597334384918213,-0.39351725578308105,4.679999999999945
2.1428186893463135,-2.332648277282715,-1.4157847166061401,4.689999999999944
2.6850674152374268,-3.010167121887207,-0.7734145522117615,4.699999999999944
3.0558693408966064,-3.272274971008301,-0.38209158182144165,4.709999999999944
2.940971612930298,-2.7519783973693848,-0.4343222975730896,4.719999999999944
2.6314001083374023,-2.118155002593994,-0.17418229579925537,4.729999999999944
2.3045268058776855,-1.406407356262207,0.6869562864303589,4.739999999999943
1.6086087226867676,-0.4920015335083008,1.8003710508346558,4.749999999999943
0.972937822341919,-0.07516860961914062,2.633589744567871,4.759999999999943
0.5609004497528076,0.15466690063476562,2.9539387226104736,4.769999999999943
0.3774838447570801,0.5628137588500977,2.711672782897949,4.7799999999999425
0.4083065986633301,0.9701862335205078,2.193974494934082,4.789999999999942
0.773493766784668,1.402261734008789,1.944553256034851,4.799999999999942
1.6617376804351807,1.7905731201171875,2.1619558334350586,4.809999999999942
2.273085594177246,1.9599103927612305,2.39650297164917,4.819999999999942
2.931288242340088,1.5955524444580078,2.2609376907348633,4.8299999999999415
3.203317403793335,1.2294683456420898,1.6331565380096436,4.839999999999941
3.456148147583008,1.0555381774902344,0.8846765756607056,4.849999999999941
3.788719415664673,1.7322111129760742,0.8731216192245483,4.859999999999941
3.8269824981689453,1.7280778884887695,0.8936506509780884,4.869999999999941
5.531280994415283,3.6386051177978516,1.8290026187896729,4.87999999999994
6.618757247924805,3.6775341033935547,1.8085606098175049,4.88999999999994
7.3676934242248535,2.782247543334961,0.7450544834136963,4.89999999999994
7.46624755859375,1.4783735275268555,0.05857443809509277,4.90999999999994
6.950411319732666,0.7479705810546875,-0.28080105781555176,4.9199999999999395
5.203717231750488,0.7969245910644531,0.26627516746520996,4.929999999999939
3.9599785804748535,0.8315353393554688,0.6937034726142883,4.939999999999939
2.4561686515808105,1.3353958129882812,0.8470456004142761,4.949999999999939
0.6982474327087402,2.179194450378418,0.01607966423034668,4.959999999999939
-0.5785112380981445,2.934422492980957,-0.3093227744102478,4.9699999999999385
-1.1378021240234375,3.282651901245117,0.24004949629306793,4.979999999999938
-0.9673330783843994,3.245120048522949,0.2984422743320465,4.989999999999938
-0.9762306213378906,3.4154367446899414,-0.38293278217315674,4.999999999999938
-1.5873126983642578,3.7207813262939453,-1.5521677732467651,5.009999999999938
-2.3879730701446533,3.9410200119018555,-2.6068193912506104,5.019999999999937
-2.9611876010894775,3.4666519165039062,-2.6000778675079346,5.029999999999937
-3.0473735332489014,2.9953393936157227,-1.5806336402893066,5.039999999999937
-2.237969398498535,2.0412912368774414,-1.4165738821029663,5.049999999999937
-1.4331337213516235,1.9266176223754883,-1.3754749298095703,5.0599999999999365
-0.3344461917877197,2.2335586547851562,-0.5080001354217529,5.069999999999936
0.2955608367919922,1.849980354309082,0.8658308982849121,5.079999999999936
0.7656183242797852,1.0689697265625,1.5499098300933838,5.089999999999936
0.4024662971496582,0.4023723602294922,0.8782095909118652,5.099999999999936
0.0024857521057128906,-0.3297567367553711,-1.6205077171325684,5.1099999999999355
-0.28257083892822266,-0.7133617401123047,-3.836514472961426,5.119999999999935
-0.6503574848175049,-1.161942958831787,-6.18882942199707,5.129999999999935
-0.9189298152923584,-1.8142657279968262,-8.770588874816895,5.139999999999935
-0.5410764217376709,-2.4589529037475586,-8.506866455078125,5.149999999999935
0.06486272811889648,-3.1645283699035645,-7.537895679473877,5.159999999999934
-0.46111178398132324,-4.043412208557129,-5.928961753845215,5.169999999999934
-1.7932112216949463,-4.211826324462891,-5.055819034576416,5.179999999999934
-3.489178419113159,-4.211820125579834,-4.0127105712890625,5.189999999999934
-5.021658420562744,-4.045718193054199,-2.9171242713928223,5.199999999999934
-6.101953506469727,-4.010010719299316,-2.0418288707733154,5.209999999999933
-6.976829528808594,-4.256443977355957,-1.3565905094146729,5.219999999999933
-7.621143817901611,-5.0786356925964355,-1.1661467552185059,5.229999999999933
-7.7132368087768555,-5.832249641418457,-1.0473301410675049,5.239999999999933
-7.517848968505859,-6.577577590942383,-0.7606823444366455,5.2499999999999325
-6.991461277008057,-7.070919990539551,-0.21045947074890137,5.259999999999932
-6.223011016845703,-7.16580867767334,0.5460541248321533,5.269999999999932
-4.952876091003418,-6.602691173553467,1.495638132095337,5.279999999999932
-3.190154790878296,-5.1799163818359375,2.8358426094055176,5.289999999999932
-1.781192660331726,-3.6062421798706055,4.036022663116455,5.299999999999931
0.10391783714294434,-0.7796602249145508,3.904289722442627,5.309999999999931
2.992387056350708,5.494854927062988,1.244840383529663,5.319999999999931
7.153841972351074,15.091235160827637,2.031141519546509,5.329999999999931
11.505989074707031,20.051380157470703,6.756401538848877,5.339999999999931
16.458717346191406,15.133874893188477,6.065733432769775,5.34999999999993
14.403804779052734,6.927245140075684,5.415859699249268,5.35999999999993
5.6193037033081055,1.830479621887207,4.428234100341797,5.36999999999993
-0.3669884204864502,-0.46408843994140625,4.264471054077148,5.37999999999993
-3.7803711891174316,-1.8737945556640625,3.416811466217041,5.3899999999999295
-5.385448455810547,-2.160585880279541,2.6172401905059814,5.399999999999929
-5.263035297393799,-2.0177178382873535,0.5224449634552002,5.409999999999929
-4.7176666259765625,-0.9669175148010254,-2.498438596725464,5.419999999999929
-3.7449655532836914,1.655430793762207,-7.372230052947998,5.429999999999929
-3.9086668491363525,4.946357727050781,-12.200043678283691,5.4399999999999284
-5.9501051902771,8.90519905090332,-15.3345365524292,5.449999999999928
-7.978054523468018,10.879876136779785,-14.491909980773926,5.459999999999928
-9.33791446685791,11.815637588500977,-3.82855224609375,5.469999999999928
-6.378890037536621,7.527229309082031,5.950507164001465,5.479999999999928
-1.3911586999893188,1.6318578720092773,7.316962242126465,5.489999999999927
0.831836462020874,-2.0155086517333984,4.925459861755371,5.499999999999927
1.674912691116333,-5.766172409057617,0.720008134841919,5.509999999999927
1.7661445140838623,-8.056855201721191,-4.7092742919921875,5.519999999999927
0.9297857284545898,-7.187643051147461,-10.340493202209473,5.5299999999999265
0.876835823059082,-7.196526527404785,-10.101228713989258,5.539999999999926
-2.4833264350891113,-3.6270666122436523,-11.379799842834473,5.549999999999926
-2.79040265083313,-2.2960352897644043,-8.842551231384277,5.559999999999926
-2.039310932159424,-1.0310068130493164,-6.4242658615112305,5.569999999999926
-1.0257201194763184,0.7950563430786133,-2.286271572113037,5.5799999999999255
1.372535228729248,3.4557628631591797,7.259472846984863,5.589999999999925
2.3628311157226562,3.209406852722168,7.378603458404541,5.599999999999925
3.469212770462036,1.4651870727539062,4.587025165557861,5.609999999999925
3.891460418701172,-0.7093696594238281,1.7932822704315186,5.619999999999925
3.901667833328247,-2.4844346046447754,-0.30266034603118896,5.629999999999924
2.4058890342712402,-2.855130672454834,-0.9057846665382385,5.639999999999924
-0.35954904556274414,-2.036008358001709,-1.2759733200073242,5.649999999999924
-2.013568878173828,-1.450782299041748,-0.6266117691993713,5.659999999999924
-2.583850860595703,-1.3938612937927246,1.3661565780639648,5.6699999999999235
-1.6781995296478271,-1.6280150413513184,2.8349313735961914,5.679999999999923
-1.365807294845581,-0.8536558151245117,2.300248622894287,5.689999999999923
-1.018282175064087,-0.5923919677734375,0.8968172073364258,5.699999999999923
-0.46626853942871094,-0.2938823699951172,-0.6292927265167236,5.709999999999923
0.3598134517669678,-0.8550710678100586,-0.8907716274261475,5.7199999999999225
0.9818193912506104,-1.208944320678711,-0.14077544212341309,5.729999999999922
1.3923709392547607,-1.6541595458984375,0.7057030200958252,5.739999999999922
1.9775640964508057,-2.256002902984619,1.1708409786224365,5.749999999999922
1.7612173557281494,-2.2155823707580566,0.939681887626648,5.759999999999922
0.9012539386749268,-1.78318452835083,0.7892202734947205,5.769999999999921
0.8252935409545898,-1.3068628311157227,0.5350592732429504,5.779999999999921
1.108766794204712,-0.6759777069091797,0.44520294666290283,5.789999999999921
1.5798935890197754,-0.0863046646118164,0.9274104237556458,5.799999999999921
1.808359146118164,0.46034812927246094,1.8878265619277954,5.809999999999921
1.6726102828979492,0.8733158111572266,2.2838540077209473,5.81999999999992
1.3655779361724854,1.3824186325073242,1.5181390047073364,5.82999999999992
1.3535797595977783,1.400538444519043,0.7295776009559631,5.83999999999992
1.2880613803863525,1.262803077697754,0.2578161954879761,5.84999999999992
1.2360117435455322,1.1760797500610352,0.1343097686767578,5.8599999999999195
1.4925849437713623,1.5505313873291016,0.10555708408355713,5.869999999999919
2.131347179412842,2.1995468139648438,0.6626428365707397,5.879999999999919
3.174490451812744,2.909102439880371,1.3211015462875366,5.889999999999919
4.007434844970703,3.1597070693969727,1.5082292556762695,5.899999999999919
5.253474235534668,2.9669952392578125,0.8460367321968079,5.909999999999918
6.331107139587402,2.827329635620117,-0.3830937147140503,5.919999999999918
7.2240118980407715,2.802279472351074,-1.373004674911499,5.929999999999918
7.6951584815979,2.4102916717529297,-1.0443483591079712,5.939999999999918
5.676089763641357,2.55069637298584,0.907600462436676,5.949999999999918
2.56504487991333,3.2489089965820312,1.2890183925628662,5.959999999999917
-0.44289517402648926,3.8816776275634766,0.30112624168395996,5.969999999999917
-2.269641637802124,3.9063491821289062,-0.7321639657020569,5.979999999999917
-3.566096544265747,3.522303581237793,-0.9195277094841003,5.989999999999917
-4.505985736846924,3.1667098999023438,-0.7267032861709595,5.9999999999999165
-4.778238773345947,2.778225898742676,-1.121749758720398,6.009999999999916
-4.883540153503418,2.362544059753418,-1.9436806440353394,6.019999999999916
-5.5118818283081055,1.7610235214233398,-2.6568057537078857,6.029999999999916
-5.6789631843566895,1.0398292541503906,-3.122394561767578,6.039999999999916
-4.646261692047119,0.3638143539428711,-3.453409194946289,6.0499999999999154
-2.679920196533203,-0.14665508270263672,-3.1810998916625977,6.059999999999915
-0.29824090003967285,-0.1331329345703125,-2.440967559814453,6.069999999999915
1.1829817295074463,-0.14263153076171875,-0.9483124017715454,6.079999999999915
2.3323049545288086,-0.03893089294433594,1.6441364288330078,6.089999999999915
3.0289366245269775,-0.1731719970703125,3.050537586212158,6.099999999999914
2.7912940979003906,-0.08032417297363281,2.7898921966552734,6.109999999999914
1.7481536865234375,0.07910919189453125,0.809934139251709,6.119999999999914
0.637204647064209,0.36309814453125,-2.1178197860717773,6.129999999999914
0.04021763801574707,0.4172344207763672,-3.9137468338012695,6.1399999999999135
-0.5834593772888184,0.3527507781982422,-5.0497517585754395,6.149999999999913
-1.0371484756469727,0.03992938995361328,-5.266605377197266,6.159999999999913
-1.4677937030792236,-0.425750732421875,-5.200668811798096,6.169999999999913
-2.039313316345215,-1.1799592971801758,-4.747761249542236,6.179999999999913
-2.837639808654785,-2.2492141723632812,-3.9054253101348877,6.1899999999999125
-3.4456026554107666,-3.015903949737549,-2.905771255493164,6.199999999999912
-4.05724573135376,-3.6998281478881836,-2.010768175125122,6.209999999999912
-4.280364513397217,-3.991182804107666,-1.2711422443389893,6.219999999999912
-4.097159385681152,-4.139784812927246,-1.0854871273040771,6.229999999999912
-3.7329251766204834,-4.196961402893066,-1.2897534370422363,6.239999999999911
-3.2546510696411133,-4.263642311096191,-1.5168592929840088,6.249999999999911
-3.129554033279419,-4.392094612121582,-1.553241491317749,6.259999999999911
-3.086585521697998,-4.457894325256348,-1.4051127433776855,6.269999999999911
-3.0669658184051514,-4.502418518066406,-1.2243895530700684,6.2799999999999105
-3.0289466381073,-4.459272384643555,-0.9638538360595703,6.28999999999991
-2.7706775665283203,-4.315845966339111,-0.6588082313537598,6.29999999999991
-2.1356067657470703,-3.7371273040771484,-0.07712602615356445,6.30999999999991
-1.4657623767852783,-2.9246816635131836,0.46887874603271484,6.31999999999991
-0.2800414562225342,-1.5567774772644043,1.0002193450927734,6.3299999999999095
1.5756621360778809,0.4636850357055664,1.144604206085205,6.339999999999909
2.814943790435791,3.3147897720336914,0.5531826019287109,6.349999999999909
3.7045717239379883,6.856161117553711,0.09862589836120605,6.359999999999909
4.061046600341797,8.789359092712402,1.0101804733276367,6.369999999999909
4.139070510864258,8.323083877563477,2.456942319869995,6.379999999999908
3.9109606742858887,7.087446212768555,4.017474174499512,6.389999999999908
3.162853240966797,5.163631439208984,5.306763648986816,6.399999999999908
1.904304027557373,2.932079315185547,5.735454082489014,6.409999999999908
0.9429450035095215,0.8423709869384766,5.58615779876709,6.419999999999908
-0.15395259857177734,-0.913297176361084,4.488218784332275,6.429999999999907
-1.4802064895629883,-1.533991813659668,2.8872108459472656,6.439999999999907
-3.0815746784210205,-1.5493168830871582,0.9468808174133301,6.449999999999907
-4.393424034118652,-1.1684799194335938,-0.6859380006790161,6.459999999999907
-4.713709831237793,-0.8015561103820801,-1.852266550064087,6.4699999999999065
-4.022558689117432,-0.20961761474609375,-3.1868786811828613,6.479999999999906
-2.7841644287109375,1.0754528045654297,-5.141249656677246,6.489999999999906
-2.044853687286377,2.4943370819091797,-6.304858207702637,6.499999999999906
-0.806248664855957,5.207892417907715,-5.744637489318848,6.509999999999906
0.17081379890441895,8.867560386657715,-3.751723289489746,6.519999999999905
0.44640398025512695,12.932633399963379,-1.4399664402008057,6.529999999999905
-0.0364069938659668,13.454442977905273,-0.05847525596618652,6.539999999999905
-0.17560863494873047,6.198637962341309,0.3907744884490967,6.549999999999905
0.14675450325012207,1.0726890563964844,-0.2740669250488281,6.559999999999905
-0.42683959007263184,-2.9310646057128906,-1.0036314725875854,6.569999999999904
-1.344435214996338,-5.584190845489502,-2.484091281890869,6.579999999999904
-2.108402967453003,-6.670953273773193,-4.239662170410156,6.589999999999904
-2.6678857803344727,-6.427268028259277,-5.6872711181640625,6.599999999999904
-3.4434943199157715,-4.405485153198242,-7.502367973327637,6.6099999999999035
-3.3349645137786865,-3.0680899620056152,-8.45952033996582,6.619999999999903
-2.588095188140869,-1.3503313064575195,-8.203020095825195,6.629999999999903
-2.3636045455932617,-0.1145486831665039,-7.106950283050537,6.639999999999903
-1.7389463186264038,0.6931076049804688,-5.830602169036865,6.649999999999903
-0.7163600921630859,1.343893051147461,-4.341325283050537,6.659999999999902
0.7262194156646729,2.2748546600341797,-1.706899881362915,6.669999999999902
1.8614897727966309,2.8059844970703125,0.9460277557373047,6.679999999999902
3.0209898948669434,2.572673797607422,2.9444432258605957,6.689999999999902
3.031237840652466,1.8226728439331055,2.9330668449401855,6.699999999999902
2.553831100463867,0.6580352783203125,1.794149398803711,6.709999999999901
1.969879388809204,-0.03864479064941406,0.2709718942642212,6.719999999999901
0.9307420253753662,-0.4721956253051758,-1.1972060203552246,6.729999999999901
-0.06856036186218262,-0.22916507720947266,-1.5198228359222412,6.739999999999901
-1.0538578033447266,-0.3480720520019531,-1.0135160684585571,6.7499999999999005
-1.3434240818023682,-0.5923080444335938,-0.3165188133716583,6.7599999999999
-1.422213077545166,-0.43124866485595703,0.183050274848938,6.7699999999999
-1.2448055744171143,0.024155616760253906,-0.1940910816192627,6.7799999999999
-1.2748231887817383,0.2610816955566406,-0.7193139791488647,6.7899999999999
-1.1356728076934814,0.4351692199707031,-0.9106404781341553,6.7999999999998995
-1.1882965564727783,0.08960914611816406,-0.6132789254188538,6.809999999999899
-0.8883721828460693,-0.119842529296875,-0.5977178812026978,6.819999999999899
-0.7497851848602295,-0.5279617309570312,-0.5495830774307251,6.829999999999899
0.08525228500366211,-1.3150973320007324,-0.024606019258499146,6.839999999999899
1.6356232166290283,-1.1146783828735352,0.4391036629676819,6.849999999999898
2.1402547359466553,-0.7189998626708984,0.6369936466217041,6.859999999999898
1.808605670928955,-0.018378257751464844,0.9880932569503784,6.869999999999898
1.8605256080627441,0.43426990509033203,1.0119386911392212,6.879999999999898
1.6235287189483643,0.5511846542358398,-0.9344470500946045,6.8899999999998975
1.2962801456451416,0.7563562393188477,-2.804178476333618,6.899999999999897
1.2149453163146973,0.913060188293457,-2.8181967735290527,6.909999999999897
1.6155290603637695,1.1575851440429688,-1.7286622524261475,6.919999999999897
1.8368499279022217,1.434433937072754,-0.4214435815811157,6.929999999999897
1.6910035610198975,1.320887565612793,0.6398712396621704,6.9399999999998965
0.14045143127441406,0.7799415588378906,0.9934794902801514,6.949999999999896
-0.6226851940155029,0.127349853515625,0.9646468162536621,6.959999999999896
-0.39566612243652344,-0.6228837966918945,0.225767582654953,6.969999999999896
-0.18140864372253418,-0.5937814712524414,-0.7799438238143921,6.979999999999896
-0.07843184471130371,-0.37130069732666016,-1.682552456855774,6.989999999999895
-0.02049398422241211,-0.2672843933105469,-1.7761766910552979,6.999999999999895
-0.020962953567504883,-0.5564918518066406,-1.2227303981781006,7.009999999999895
0.05358457565307617,-0.7038736343383789,-0.8712481260299683,7.019999999999895
-0.586338996887207,-0.8588047027587891,-0.8353939056396484,7.0299999999998946
-1.7947652339935303,-1.515172004699707,-1.7477830648422241,7.039999999999894
-1.0117261409759521,-0.5413713455200195,-1.7605342864990234,7.049999999999894
-1.28645920753479,-0.25395965576171875,-1.132171392440796,7.059999999999894
-2.0800576210021973,0.36192989349365234,-1.3090476989746094,7.069999999999894
-2.1830554008483887,0.9718503952026367,-0.8943129777908325,7.0799999999998935
-4.01650333404541,-0.7265472412109375,-1.1130574941635132,7.089999999999893
-4.364147186279297,-0.6583328247070312,-2.123230218887329,7.099999999999893
-4.37455940246582,-0.6546392440795898,-2.1114485263824463,7.109999999999893
-1.1991599798202515,1.0762252807617188,-0.9615809917449951,7.119999999999893
-1.3450630903244019,0.15505504608154297,0.5531318187713623,7.129999999999892
-1.4861406087875366,-0.36855220794677734,1.072047472000122,7.139999999999892
-1.8263330459594727,-0.685572624206543,0.3438146114349365,7.149999999999892
-1.9094815254211426,-0.7825660705566406,-0.3880543112754822,7.159999999999892
-1.714266300201416,-0.701899528503418,-1.1547311544418335,7.169999999999892
-0.8997147083282471,-0.18659305572509766,-1.66720712184906,7.179999999999891
0.04368877410888672,0.5327434539794922,-2.0087685585021973,7.189999999999891
0.6016147136688232,1.1906394958496094,-1.3864744901657104,7.199999999999891
0.7478258609771729,1.6775093078613281,0.6125285625457764,7.209999999999891
1.127307653427124,1.441126823425293,1.7244199514389038,7.2199999999998905
1.754669427871704,0.6641101837158203,2.3834280967712402,7.22999999999989
2.1341419219970703,-0.09514999389648438,1.9445245265960693,7.23999999999989
2.5875494480133057,-0.5701532363891602,1.2201464176177979,7.24999999999989
2.367398262023926,-0.3293724060058594,0.3155580163002014,7.25999999999989
1.5757560729980469,-0.3549680709838867,0.2527305483818054,7.269999999999889
1.2807319164276123,-0.3523130416870117,0.004285335540771484,7.279999999999889
1.1183693408966064,-0.36507701873779297,-0.04950946569442749,7.289999999999889
0.9334862232208252,-0.17282772064208984,-0.14069992303848267,7.299999999999889
0.550255537033081,0.035246849060058594,-0.5366103649139404,7.309999999999889
0.08348274230957031,-0.3439760208129883,-0.886419415473938,7.319999999999888
0.22116327285766602,-0.8664512634277344,-0.8260924220085144,7.329999999999888
0.8632521629333496,-0.9420499801635742,0.40894800424575806,7.339999999999888
1.6808044910430908,-0.4347391128540039,2.951427698135376,7.349999999999888
0.8926324844360352,0.3896141052246094,3.326012372970581,7.3599999999998875
-0.10499954223632812,0.47349071502685547,2.472175359725952,7.369999999999887
-0.680387020111084,0.19808197021484375,1.7119473218917847,7.379999999999887
-0.7462973594665527,0.5063486099243164,-1.4107308387756348,7.389999999999887
-0.8625414371490479,-0.3134622573852539,-3.625117301940918,7.399999999999887
-1.4769763946533203,-0.4688272476196289,-2.4742379188537598,7.4099999999998865
-0.6015596389770508,0.040656089782714844,0.4068649411201477,7.419999999999886
0.2519700527191162,0.39818859100341797,0.774474024772644,7.429999999999886
0.92144775390625,0.5108699798583984,1.4632940292358398,7.439999999999886
0.6827845573425293,0.3045969009399414,0.7450546026229858,7.449999999999886
0.30602550506591797,0.1967477798461914,0.14107802510261536,7.459999999999885
-0.04220700263977051,-0.1309337615966797,-0.49052461981773376,7.469999999999885
0.045938968658447266,-0.1430807113647461,-0.5991480946540833,7.479999999999885
0.2747657299041748,0.22988510131835938,-0.32766246795654297,7.489999999999885
-0.12309002876281738,0.5481081008911133,-0.14231228828430176,7.4999999999998845
-0.48061132431030273,1.019862174987793,-0.5834751129150391,7.509999999999884
0.056392669677734375,0.9556522369384766,-0.675098180770874,7.519999999999884
-0.27871131896972656,0.6930675506591797,-1.4614182710647583,7.529999999999884
-0.48894405364990234,0.5829830169677734,-1.4006805419921875,7.539999999999884
-0.2646009922027588,0.3199958801269531,-0.568462610244751,7.5499999999998835
-0.2785050868988037,-0.48531627655029297,0.8532540798187256,7.559999999999883
0.06574869155883789,-0.7296619415283203,1.509533166885376,7.569999999999883
0.23229193687438965,-0.9282665252685547,0.9072451591491699,7.579999999999883
0.2956504821777344,-1.1712932586669922,0.06391945481300354,7.589999999999883
-0.048412322998046875,-1.388737678527832,0.3403482437133789,7.599999999999882
-1.7031912803649902,-1.2551908493041992,0.9642016887664795,7.609999999999882
-2.5295281410217285,-0.10055065155029297,0.13422806560993195,7.619999999999882
-1.6381659507751465,0.5484895706176758,-0.4523230791091919,7.629999999999882
-1.6248841285705566,0.5457973480224609,-0.4292747974395752,7.6399999999998816
-0.21556901931762695,0.8890628814697266,0.19815334677696228,7.649999999999881
-0.2160794734954834,0.8894367218017578,0.20382088422775269,7.659999999999881
0.5544278621673584,0.1848440170288086,0.4826848804950714,7.669999999999881
0.6147427558898926,-0.258453369140625,0.39813342690467834,7.679999999999881
0.31221628189086914,-0.7215051651000977,0.4388965964317322,7.6899999999998805
0.058197736740112305,-0.35064029693603516,0.47431227564811707,7.69999999999988
0.06847381591796875,-0.047382354736328125,0.5474348068237305,7.70999999999988
0.16501212120056152,-0.08937931060791016,0.833727240562439,7.71999999999988
0.29590892791748047,-0.1685161590576172,1.0218684673309326,7.72999999999988
0.6062610149383545,0.2315969467163086,0.5693655014038086,7.739999999999879
1.0634496212005615,-0.02467632293701172,0.17183727025985718,7.749999999999879
3.4807064533233643,-3.7060399055480957,1.9834686517715454,7.759999999999879
8.218554496765137,-15.791006088256836,-0.8513370156288147,7.769999999999879
-7.1402482986450195,-1.5113697052001953,-2.882802963256836,7.779999999999879
0.00645899772644043,1.1171836853027344,-1.1486334800720215,7.789999999999878
2.5744850635528564,3.5705909729003906,-1.1550488471984863,7.799999999999878
0.22418725490570068,3.0751285552978516,-1.8033900260925293,7.809999999999878
-1.6133909225463867,1.380091667175293,-0.012607872486114502,7.819999999999878
-3.152233362197876,0.4080781936645508,2.0699362754821777,7.8299999999998775
-2.803541421890259,1.2727327346801758,1.4747650623321533,7.839999999999877
-2.3113105297088623,2.4145307540893555,0.6839479207992554,7.849999999999877
-2.57666015625,3.0486364364624023,-0.390985906124115,7.859999999999877
-2.2396132946014404,3.3245325088500977,0.5751811861991882,7.869999999999877
-2.5266361236572266,2.0757551193237305,1.6843847036361694,7.879999999999876
-4.229311466217041,0.9408063888549805,1.3983571529388428,7.889999999999876
-4.2701520919799805,1.0614948272705078,-0.16808754205703735,7.899999999999876
-3.2076518535614014,1.844747543334961,-0.824137806892395,7.909999999999876
1.2201159000396729,2.44403076171875,0.0409199595451355,7.919999999999876
1.802147626876831,2.0833139419555664,2.304351568222046,7.929999999999875
0.8328268527984619,1.5208778381347656,2.6316916942596436,7.939999999999875
-0.8210500478744507,0.9728050231933594,1.2452771663665771,7.949999999999875
-0.3870046138763428,0.4982118606567383,-0.34180718660354614,7.959999999999875
1.0101704597473145,-0.3057098388671875,-2.667468309402466,7.9699999999998745
0.5735604763031006,-1.1358861923217773,-3.974449872970581,7.979999999999874
0.9412369728088379,-1.5384693145751953,-2.044166326522827,7.989999999999874
