AccX,AccY,AccZ,SampleRate
-3.265717029571533,2.239391803741455,-7.590929985046387,0.01
-3.265717029571533,5.127427101135254,-11.959917068481445,0.02
-4.242903709411621,5.127427101135254,-11.959917068481445,0.03
-4.242903709411621,7.61330509185791,-13.00284481048584,0.04
-6.109159469604492,7.61330509185791,-13.00284481048584,0.05
-6.109159469604492,9.438871383666992,-11.575030326843262,0.060000000000000005
-6.599000930786133,9.438871383666992,-11.575030326843262,0.07
-6.599000930786133,10.246501922607422,-5.826568603515625,0.08
-3.270707368850708,10.246501922607422,-5.826568603515625,0.09
-3.270707368850708,6.253641128540039,1.7602837085723877,0.09999999999999999
-0.3934159278869629,6.253641128540039,1.7602837085723877,0.10999999999999999
-0.3934159278869629,2.014240264892578,5.133306503295898,0.11999999999999998
1.244737148284912,2.014240264892578,5.133306503295898,0.12999999999999998
1.244737148284912,-1.646801471710205,3.7197189331054688,0.13999999999999999
2.2179555892944336,-1.646801471710205,3.7197189331054688,0.15
2.2179555892944336,-4.181962013244629,0.8294837474822998,0.16
2.7333602905273438,-4.181962013244629,0.8294837474822998,0.17
2.7333602905273438,-5.927784442901611,-4.390678882598877,0.18000000000000002
1.3798041343688965,-5.927784442901611,-4.390678882598877,0.19000000000000003
1.3798041343688965,-5.785504341125488,-8.928141593933105,0.20000000000000004
-1.953838586807251,-5.785504341125488,-8.928141593933105,0.21000000000000005
-1.953838586807251,-4.039819717407227,-10.507232666015625,0.22000000000000006
-4.248283386230469,-4.039819717407227,-10.507232666015625,0.23000000000000007
-4.248283386230469,-2.571200370788574,-10.212340354919434,0.24000000000000007
-4.963781356811523,-2.571200370788574,-10.212340354919434,0.25000000000000006
-4.963781356811523,-1.461287021636963,-8.231420516967773,0.26000000000000006
-4.6171979904174805,-1.461287021636963,-8.231420516967773,0.2700000000000001
-4.6171979904174805,-0.722527027130127,-6.55311918258667,0.2800000000000001
-2.751932382583618,-0.722527027130127,-6.55311918258667,0.2900000000000001
-2.751932382583618,0.7831802368164062,-3.5106678009033203,0.3000000000000001
-0.7002220153808594,0.7831802368164062,-3.5106678009033203,0.3100000000000001
-0.7002220153808594,2.2321910858154297,2.627131462097168,0.3200000000000001
1.1289434432983398,2.2321910858154297,2.627131462097168,0.3300000000000001
1.1289434432983398,2.2214603424072266,4.846918106079102,0.34000000000000014
2.08986234664917,2.2214603424072266,4.846918106079102,0.35000000000000014
2.08986234664917,1.2170486450195312,2.920841932296753,0.36000000000000015
2.9241862297058105,1.2170486450195312,2.920841932296753,0.37000000000000016
2.9241862297058105,-0.5709905624389648,0.07555917650461197,0.38000000000000017
3.5587234497070312,-0.5709905624389648,0.07555917650461197,0.3900000000000002
3.5587234497070312,-1.7579894065856934,-0.569229781627655,0.4000000000000002
2.2975921630859375,-1.7579894065856934,-0.569229781627655,0.4100000000000002
2.2975921630859375,-2.085318088531494,0.7920876145362854,0.4200000000000002
0.2709226608276367,-2.085318088531494,0.7920876145362854,0.4300000000000002
0.2709226608276367,-1.5392508506774902,1.7953715324401855,0.4400000000000002
-0.9753937721252441,-1.5392508506774902,1.7953715324401855,0.45000000000000023
-0.9753937721252441,-1.2919549942016602,1.5782361030578613,0.46000000000000024
-1.314441442489624,-1.2919549942016602,1.5782361030578613,0.47000000000000025
-1.314441442489624,-1.4462904930114746,1.2961022853851318,0.48000000000000026
-0.9802756309509277,-1.4462904930114746,1.2961022853851318,0.49000000000000027
-0.9802756309509277,-1.6983652114868164,1.320884108543396,0.5000000000000002
-0.6078996658325195,-1.6983652114868164,1.320884108543396,0.5100000000000002
-0.6078996658325195,-1.5432372093200684,0.8799769878387451,0.5200000000000002
-0.4215831756591797,-1.5432372093200684,0.8799769878387451,0.5300000000000002
-0.4215831756591797,-1.1758232116699219,0.1267041265964508,0.5400000000000003
-0.05255270004272461,-1.1758232116699219,0.1267041265964508,0.5500000000000003
-0.05255270004272461,-0.949190616607666,-0.39471977949142456,0.5600000000000003
0.41886186599731445,-0.949190616607666,-0.39471977949142456,0.5700000000000003
0.41886186599731445,-1.0650696754455566,-0.19491535425186157,0.5800000000000003
0.5809779167175293,-1.0650696754455566,-0.19491535425186157,0.5900000000000003
0.5809779167175293,-1.2639203071594238,0.2863367199897766,0.6000000000000003
0.7683811187744141,-1.2639203071594238,0.2863367199897766,0.6100000000000003
0.7683811187744141,-1.758063793182373,0.7202613949775696,0.6200000000000003
1.001108169555664,-1.758063793182373,0.7202613949775696,0.6300000000000003
1.001108169555664,-2.1484975814819336,0.7421336770057678,0.6400000000000003
1.2022137641906738,-2.1484975814819336,0.7421336770057678,0.6500000000000004
1.2022137641906738,-2.56398344039917,0.7018468379974365,0.6600000000000004
1.1621108055114746,-2.56398344039917,0.7018468379974365,0.6700000000000004
1.1621108055114746,-2.504523277282715,0.7694546580314636,0.6800000000000004
0.986088752746582,-2.504523277282715,0.7694546580314636,0.6900000000000004
0.986088752746582,-1.8799233436584473,0.8967780470848083,0.7000000000000004
1.0711760520935059,-1.8799233436584473,0.8967780470848083,0.7100000000000004
1.0711760520935059,-1.1564908027648926,1.263071060180664,0.7200000000000004
1.3190855979919434,-1.1564908027648926,1.263071060180664,0.7300000000000004
1.3190855979919434,-0.5172967910766602,1.8561372756958008,0.7400000000000004
1.4100360870361328,-0.5172967910766602,1.8561372756958008,0.7500000000000004
1.4100360870361328,-0.11997318267822266,2.0477986335754395,0.7600000000000005
1.3409438133239746,-0.11997318267822266,2.0477986335754395,0.7700000000000005
1.3409438133239746,0.4386157989501953,1.933808445930481,0.7800000000000005
1.3658955097198486,0.4386157989501953,1.933808445930481,0.7900000000000005
1.3658955097198486,1.0993146896362305,1.8316951990127563,0.8000000000000005
1.5695748329162598,1.0993146896362305,1.8316951990127563,0.8100000000000005
1.5695748329162598,1.7133712768554688,1.8077143430709839,0.8200000000000005
1.9214136600494385,1.7133712768554688,1.8077143430709839,0.8300000000000005
1.9214136600494385,2.070530891418457,2.1547837257385254,0.8400000000000005
2.1712429523468018,2.070530891418457,2.1547837257385254,0.8500000000000005
2.1712429523468018,1.7733392715454102,2.7326478958129883,0.8600000000000005
2.098329782485962,1.7733392715454102,2.7326478958129883,0.8700000000000006
2.098329782485962,1.338897705078125,2.4240448474884033,0.8800000000000006
2.085815668106079,1.338897705078125,2.4240448474884033,0.8900000000000006
2.085815668106079,1.2107439041137695,1.3736708164215088,0.9000000000000006
2.247840166091919,1.2107439041137695,1.3736708164215088,0.9100000000000006
2.247840166091919,1.880692481994629,0.5982265472412109,0.9200000000000006
3.0895214080810547,1.880692481994629,0.5982265472412109,0.9300000000000006
3.0895214080810547,2.8004446029663086,0.7580540180206299,0.9400000000000006
4.235931873321533,2.8004446029663086,0.7580540180206299,0.9500000000000006
4.235931873321533,3.391328811645508,1.7044920921325684,0.9600000000000006
5.613668441772461,3.391328811645508,1.7044920921325684,0.9700000000000006
5.613668441772461,3.3285512924194336,1.5416055917739868,0.9800000000000006
6.378764629364014,3.3285512924194336,1.5416055917739868,0.9900000000000007
6.378764629364014,2.9410886764526367,0.19819998741149902,1.0000000000000007
7.067625045776367,2.9410886764526367,0.19819998741149902,1.0100000000000007
7.067625045776367,2.3911657333374023,-0.702251672744751,1.0200000000000007
7.289623260498047,2.3911657333374023,-0.702251672744751,1.0300000000000007
7.289623260498047,1.6422157287597656,-0.8851723670959473,1.0400000000000007
6.805305004119873,1.6422157287597656,-0.8851723670959473,1.0500000000000007
6.805305004119873,1.2265377044677734,-0.6425435543060303,1.0600000000000007
5.271430492401123,1.2265377044677734,-0.6425435543060303,1.0700000000000007
5.271430492401123,1.0938777923583984,0.32771217823028564,1.0800000000000007
3.0841450691223145,1.0938777923583984,0.32771217823028564,1.0900000000000007
3.0841450691223145,1.5171747207641602,0.4154902696609497,1.1000000000000008
1.5231451988220215,1.5171747207641602,0.4154902696609497,1.1100000000000008
1.5231451988220215,1.7993755340576172,-0.23101484775543213,1.1200000000000008
0.14362287521362305,1.7993755340576172,-0.23101484775543213,1.1300000000000008
0.14362287521362305,2.4395503997802734,-0.7481468915939331,1.1400000000000008
-0.8019804954528809,2.4395503997802734,-0.7481468915939331,1.1500000000000008
-0.8019804954528809,3.254678726196289,-0.1381232738494873,1.1600000000000008
-1.8485445976257324,3.254678726196289,-0.1381232738494873,1.1700000000000008
-1.8485445976257324,3.5167884826660156,0.042472243309020996,1.1800000000000008
-2.9906444549560547,3.5167884826660156,0.042472243309020996,1.1900000000000008
-2.9906444549560547,3.487025260925293,-0.585402250289917,1.2000000000000008
-4.481974124908447,3.487025260925293,-0.585402250289917,1.2100000000000009
-4.481974124908447,3.557405471801758,-1.8954532146453857,1.2200000000000009
-5.39391565322876,3.557405471801758,-1.8954532146453857,1.2300000000000009
-5.39391565322876,3.5008411407470703,-2.87282133102417,1.2400000000000009
-5.241295337677002,3.5008411407470703,-2.87282133102417,1.2500000000000009
-5.241295337677002,3.029125213623047,-3.0454421043395996,1.260000000000001
-4.028681755065918,3.029125213623047,-3.0454421043395996,1.270000000000001
-4.028681755065918,2.3259496688842773,-2.118849277496338,1.280000000000001
-3.0726349353790283,2.3259496688842773,-2.118849277496338,1.290000000000001
-3.0726349353790283,2.2976131439208984,-1.3673484325408936,1.300000000000001
-1.346817970275879,2.2976131439208984,-1.3673484325408936,1.310000000000001
-1.346817970275879,2.4541778564453125,-0.16444849967956543,1.320000000000001
0.5014925003051758,2.4541778564453125,-0.16444849967956543,1.330000000000001
0.5014925003051758,2.1970748901367188,1.290945053100586,1.340000000000001
1.5175509452819824,2.1970748901367188,1.290945053100586,1.350000000000001
1.5175509452819824,1.397547721862793,1.660592794418335,1.360000000000001
1.8008241653442383,1.397547721862793,1.660592794418335,1.370000000000001
1.8008241653442383,0.47296810150146484,1.1219532489776611,1.380000000000001
1.5548100471496582,0.47296810150146484,1.1219532489776611,1.390000000000001
1.5548100471496582,-0.2662672996520996,-0.6459665298461914,1.400000000000001
1.189013957977295,-0.2662672996520996,-0.6459665298461914,1.410000000000001
1.189013957977295,-0.696690559387207,-2.515406847000122,1.420000000000001
0.7640433311462402,-0.696690559387207,-2.515406847000122,1.430000000000001
0.7640433311462402,-1.3242764472961426,-4.032393932342529,1.440000000000001
0.3159828186035156,-1.3242764472961426,-4.032393932342529,1.450000000000001
0.3159828186035156,-2.224092960357666,-4.944421291351318,1.460000000000001
0.017176151275634766,-2.224092960357666,-4.944421291351318,1.470000000000001
0.017176151275634766,-2.8892579078674316,-5.250776290893555,1.480000000000001
-0.4959077835083008,-2.8892579078674316,-5.250776290893555,1.490000000000001
-0.4959077835083008,-3.5175604820251465,-4.730995178222656,1.500000000000001
-1.0396275520324707,-3.5175604820251465,-4.730995178222656,1.5100000000000011
-1.0396275520324707,-3.704618453979492,-4.6621575355529785,1.5200000000000011
-2.0868442058563232,-3.704618453979492,-4.6621575355529785,1.5300000000000011
-2.0868442058563232,-4.231590270996094,-5.092989444732666,1.5400000000000011
-3.2507872581481934,-4.231590270996094,-5.092989444732666,1.5500000000000012
-3.2507872581481934,-4.499119281768799,-5.357717514038086,1.5600000000000012
-4.637807846069336,-4.499119281768799,-5.357717514038086,1.5700000000000012
-4.637807846069336,-4.465627670288086,-5.148917198181152,1.5800000000000012
-5.746279716491699,-4.465627670288086,-5.148917198181152,1.5900000000000012
-5.746279716491699,-4.365805625915527,-4.97199821472168,1.6000000000000012
-6.841142654418945,-4.365805625915527,-4.97199821472168,1.6100000000000012
-6.841142654418945,-4.414999961853027,-4.147988796234131,1.6200000000000012
-7.6071085929870605,-4.414999961853027,-4.147988796234131,1.6300000000000012
-7.6071085929870605,-4.493281364440918,-2.9745397567749023,1.6400000000000012
-8.232503890991211,-4.493281364440918,-2.9745397567749023,1.6500000000000012
-8.232503890991211,-4.633453369140625,-1.8347222805023193,1.6600000000000013
-8.615196228027344,-4.633453369140625,-1.8347222805023193,1.6700000000000013
-8.615196228027344,-4.661381721496582,-1.0939016342163086,1.6800000000000013
-8.110441207885742,-4.661381721496582,-1.0939016342163086,1.6900000000000013
-8.110441207885742,-4.672769546508789,-0.42708849906921387,1.7000000000000013
-7.193634510040283,-4.672769546508789,-0.42708849906921387,1.7100000000000013
-7.193634510040283,-4.495569229125977,0.3850383758544922,1.7200000000000013
-4.8694233894348145,-4.495569229125977,0.3850383758544922,1.7300000000000013
-4.8694233894348145,-4.104791164398193,1.600090742111206,1.7400000000000013
-2.617516279220581,-4.104791164398193,1.600090742111206,1.7500000000000013
-2.617516279220581,-3.487647533416748,2.863480806350708,1.7600000000000013
-0.08294486999511719,-3.487647533416748,2.863480806350708,1.7700000000000014
-0.08294486999511719,-1.79127836227417,3.2988405227661133,1.7800000000000014
2.7982778549194336,-1.79127836227417,3.2988405227661133,1.7900000000000014
2.7982778549194336,1.6791481971740723,1.9534614086151123,1.8000000000000014
6.760432720184326,1.6791481971740723,1.9534614086151123,1.8100000000000014
6.760432720184326,7.928966999053955,1.9683542251586914,1.8200000000000014
9.292351722717285,7.928966999053955,1.9683542251586914,1.8300000000000014
9.292351722717285,11.924026489257812,3.7517037391662598,1.8400000000000014
12.129384994506836,11.924026489257812,3.7517037391662598,1.8500000000000014
12.129384994506836,13.313104629516602,4.256624221801758,1.8600000000000014
14.524531364440918,13.313104629516602,4.256624221801758,1.8700000000000014
14.524531364440918,9.696866989135742,4.67288875579834,1.8800000000000014
10.519498825073242,9.696866989135742,4.67288875579834,1.8900000000000015
10.519498825073242,3.720165252685547,5.498316287994385,1.9000000000000015
3.780409336090088,3.720165252685547,5.498316287994385,1.9100000000000015
3.780409336090088,1.1424479484558105,5.883028984069824,1.9200000000000015
-1.902503252029419,1.1424479484558105,5.883028984069824,1.9300000000000015
-1.902503252029419,-0.45332956314086914,4.04433012008667,1.9400000000000015
-4.78245735168457,-0.45332956314086914,4.04433012008667,1.9500000000000015
-4.78245735168457,-1.8643264770507812,2.5995419025421143,1.9600000000000015
-6.923443794250488,-1.8643264770507812,2.5995419025421143,1.9700000000000015
-6.923443794250488,-2.707638740539551,1.7453467845916748,1.9800000000000015
-7.53887939453125,-2.707638740539551,1.7453467845916748,1.9900000000000015
-7.53887939453125,-2.669968605041504,1.4899184703826904,2.0000000000000013
-6.641355514526367,-2.669968605041504,1.4899184703826904,2.010000000000001
-6.641355514526367,-2.579258441925049,0.9969296455383301,2.020000000000001
-4.9451117515563965,-2.579258441925049,0.9969296455383301,2.0300000000000007
-4.9451117515563965,-0.6453456878662109,-1.9464083909988403,2.0400000000000005
-2.393524169921875,-0.6453456878662109,-1.9464083909988403,2.0500000000000003
-2.393524169921875,3.2190399169921875,-8.34166145324707,2.06
-1.502579927444458,3.2190399169921875,-8.34166145324707,2.07
-1.502579927444458,6.260554313659668,-12.404097557067871,2.0799999999999996
-3.0422775745391846,6.260554313659668,-12.404097557067871,2.0899999999999994
-3.0422775745391846,11.121795654296875,-17.79814338684082,2.099999999999999
-5.687383651733398,11.121795654296875,-17.79814338684082,2.109999999999999
-5.687383651733398,14.349894523620605,-16.190677642822266,2.1199999999999988
-6.195039749145508,14.349894523620605,-16.190677642822266,2.1299999999999986
-6.195039749145508,13.76587963104248,-8.111197471618652,2.1399999999999983
-2.0083563327789307,13.76587963104248,-8.111197471618652,2.149999999999998
-2.0083563327789307,8.231271743774414,3.975956439971924,2.159999999999998
1.0537147521972656,8.231271743774414,3.975956439971924,2.1699999999999977
1.0537147521972656,1.3739328384399414,8.196998596191406,2.1799999999999975
2.125791549682617,1.3739328384399414,8.196998596191406,2.1899999999999973
2.125791549682617,-2.907520294189453,6.602353572845459,2.199999999999997
2.8464436531066895,-2.907520294189453,6.602353572845459,2.209999999999997
2.8464436531066895,-6.476709842681885,1.8625060319900513,2.2199999999999966
1.9242053031921387,-6.476709842681885,1.8625060319900513,2.2299999999999964
1.9242053031921387,-7.7429609298706055,-5.812954902648926,2.239999999999996
-1.5176761150360107,-7.7429609298706055,-5.812954902648926,2.249999999999996
-1.5176761150360107,-5.944913387298584,-10.907844543457031,2.259999999999996
-4.376843452453613,-5.944913387298584,-10.907844543457031,2.2699999999999956
-4.376843452453613,-3.789459228515625,-11.294851303100586,2.2799999999999954
-5.724452018737793,-3.789459228515625,-11.294851303100586,2.289999999999995
-5.724452018737793,-2.8821310997009277,-9.686522483825684,2.299999999999995
-5.900051116943359,-2.8821310997009277,-9.686522483825684,2.3099999999999947
-5.900051116943359,-2.5553030967712402,-7.705820560455322,2.3199999999999945
-5.699934959411621,-2.5553030967712402,-7.705820560455322,2.3299999999999943
-5.699934959411621,-1.5946316719055176,-5.462710857391357,2.339999999999994
-3.707854986190796,-1.5946316719055176,-5.462710857391357,2.349999999999994
-3.707854986190796,0.27109813690185547,-3.0804693698883057,2.3599999999999937
-0.8789877891540527,0.27109813690185547,-3.0804693698883057,2.3699999999999934
-0.8789877891540527,2.3709096908569336,3.2962582111358643,2.3799999999999932
1.3037819862365723,2.3709096908569336,3.2962582111358643,2.389999999999993
1.3037819862365723,2.7251482009887695,6.172684669494629,2.399999999999993
2.9107513427734375,2.7251482009887695,6.172684669494629,2.4099999999999926
2.9107513427734375,1.3615636825561523,3.4508590698242188,2.4199999999999924
3.8844079971313477,1.3615636825561523,3.4508590698242188,2.429999999999992
3.8844079971313477,-0.2298412322998047,0.6212295889854431,2.439999999999992
5.169127464294434,-0.2298412322998047,0.6212295889854431,2.4499999999999917
5.169127464294434,-2.1367340087890625,-1.1355806589126587,2.4599999999999915
5.427108287811279,-2.1367340087890625,-1.1355806589126587,2.4699999999999913
5.427108287811279,-3.3673930168151855,-0.3843943178653717,2.479999999999991
2.679194450378418,-3.3673930168151855,-0.3843943178653717,2.489999999999991
2.679194450378418,-2.78859806060791,1.868119716644287,2.4999999999999907
0.09180450439453125,-2.78859806060791,1.868119716644287,2.5099999999999905
0.09180450439453125,-1.9378337860107422,2.798948049545288,2.5199999999999902
-0.6230416297912598,-1.9378337860107422,2.798948049545288,2.52999999999999
-0.6230416297912598,-1.8648772239685059,2.9404327869415283,2.53999999999999
-0.2868990898132324,-1.8648772239685059,2.9404327869415283,2.5499999999999896
-0.2868990898132324,-1.6883864402770996,2.2673392295837402,2.5599999999999894
-0.010904312133789062,-1.6883864402770996,2.2673392295837402,2.569999999999989
-0.010904312133789062,-1.3600568771362305,0.8851338624954224,2.579999999999989
-0.054421424865722656,-1.3600568771362305,0.8851338624954224,2.5899999999999888
-0.054421424865722656,-1.0106415748596191,-0.04189407825469971,2.5999999999999885
-0.13939571380615234,-1.0106415748596191,-0.04189407825469971,2.6099999999999883
-0.13939571380615234,-0.7581954002380371,-0.40037447214126587,2.619999999999988
-0.22257137298583984,-0.7581954002380371,-0.40037447214126587,2.629999999999988
-0.22257137298583984,-0.8520975112915039,-0.1710948944091797,2.6399999999999877
-0.14756298065185547,-0.8520975112915039,-0.1710948944091797,2.6499999999999875
-0.14756298065185547,-1.1859807968139648,0.19440793991088867,2.6599999999999873
0.04864168167114258,-1.1859807968139648,0.19440793991088867,2.669999999999987
0.04864168167114258,-1.494133472442627,0.5013665556907654,2.679999999999987
0.07113218307495117,-1.494133472442627,0.5013665556907654,2.6899999999999866
0.07113218307495117,-1.6957521438598633,1.0701764822006226,2.6999999999999864
0.21317625045776367,-1.6957521438598633,1.0701764822006226,2.709999999999986
0.21317625045776367,-1.721670150756836,1.4341347217559814,2.719999999999986
0.5243344306945801,-1.721670150756836,1.4341347217559814,2.7299999999999858
0.5243344306945801,-1.4667997360229492,1.406038761138916,2.7399999999999856
1.010387897491455,-1.4667997360229492,1.406038761138916,2.7499999999999853
1.010387897491455,-1.1885323524475098,1.131065011024475,2.759999999999985
1.3686890602111816,-1.1885323524475098,1.131065011024475,2.769999999999985
1.3686890602111816,-1.0563735961914062,1.062993049621582,2.7799999999999847
1.539736270904541,-1.0563735961914062,1.062993049621582,2.7899999999999845
1.539736270904541,-0.9787769317626953,1.1820192337036133,2.7999999999999843
1.6531829833984375,-0.9787769317626953,1.1820192337036133,2.809999999999984
1.6531829833984375,-0.5607595443725586,1.3544765710830688,2.819999999999984
1.7555208206176758,-0.5607595443725586,1.3544765710830688,2.8299999999999836
1.7555208206176758,0.17151260375976562,1.3188140392303467,2.8399999999999834
1.8180177211761475,0.17151260375976562,1.3188140392303467,2.849999999999983
1.8180177211761475,0.16024112701416016,1.404299259185791,2.859999999999983
1.7716383934020996,0.16024112701416016,1.404299259185791,2.869999999999983
1.7716383934020996,1.7129058837890625,1.5900517702102661,2.8799999999999826
1.7225925922393799,1.7129058837890625,1.5900517702102661,2.8899999999999824
1.7225925922393799,1.5530967712402344,2.0195906162261963,2.899999999999982
1.6531424522399902,1.5530967712402344,2.0195906162261963,2.909999999999982
1.6531424522399902,1.245835304260254,2.2819600105285645,2.9199999999999817
1.7082390785217285,1.245835304260254,2.2819600105285645,2.9299999999999815
1.7082390785217285,1.1474237442016602,1.9785577058792114,2.9399999999999813
2.166360855102539,1.1474237442016602,1.9785577058792114,2.949999999999981
2.166360855102539,1.5389642715454102,1.5252546072006226,2.959999999999981
3.2254786491394043,1.5389642715454102,1.5252546072006226,2.9699999999999807
3.2254786491394043,2.067063331604004,1.344918966293335,2.9799999999999804
4.518070697784424,2.067063331604004,1.344918966293335,2.9899999999999802
4.518070697784424,2.6592235565185547,1.195317268371582,2.99999999999998
6.157526016235352,2.6592235565185547,1.195317268371582,3.00999999999998
6.157526016235352,2.3453826904296875,0.5034434795379639,3.0199999999999796
7.223733901977539,2.3453826904296875,0.5034434795379639,3.0299999999999794
7.223733901977539,1.1873998641967773,0.05713033676147461,3.039999999999979
7.820900917053223,1.1873998641967773,0.05713033676147461,3.049999999999979
7.820900917053223,-0.4010181427001953,-0.20684731006622314,3.0599999999999787
7.031399726867676,-0.4010181427001953,-0.20684731006622314,3.0699999999999785
7.031399726867676,-0.3983478546142578,-0.4112823009490967,3.0799999999999783
4.752106189727783,-0.3983478546142578,-0.4112823009490967,3.089999999999978
4.752106189727783,0.7844505310058594,0.1408987045288086,3.099999999999978
2.979555606842041,0.7844505310058594,0.1408987045288086,3.1099999999999777
2.979555606842041,1.6231746673583984,0.32447344064712524,3.1199999999999775
1.3775272369384766,1.6231746673583984,0.32447344064712524,3.1299999999999772
1.3775272369384766,2.512152671813965,-0.19337326288223267,3.139999999999977
0.33336877822875977,2.512152671813965,-0.19337326288223267,3.149999999999977
0.33336877822875977,3.678241729736328,-0.4697679281234741,3.1599999999999766
-0.5472958087921143,3.678241729736328,-0.4697679281234741,3.1699999999999764
-0.5472958087921143,4.76036262512207,0.012419193983078003,3.179999999999976
-0.956291675567627,4.76036262512207,0.012419193983078003,3.189999999999976
-0.956291675567627,5.0679168701171875,0.7826401591300964,3.1999999999999758
-0.7575371265411377,5.0679168701171875,0.7826401591300964,3.2099999999999755
-0.7575371265411377,5.00302791595459,0.7013702988624573,3.2199999999999753
-0.6879417896270752,5.00302791595459,0.7013702988624573,3.229999999999975
-0.6879417896270752,4.999275207519531,-0.4913311004638672,3.239999999999975
-1.5263476371765137,4.999275207519531,-0.4913311004638672,3.2499999999999747
-1.5263476371765137,4.885931968688965,-2.5413382053375244,3.2599999999999745
-2.419285535812378,4.885931968688965,-2.5413382053375244,3.2699999999999743
-2.419285535812378,4.722979545593262,-3.4995737075805664,3.279999999999974
-3.360650062561035,4.722979545593262,-3.4995737075805664,3.289999999999974
-3.360650062561035,4.500026702880859,-3.378812789916992,3.2999999999999736
-3.887035369873047,4.500026702880859,-3.378812789916992,3.3099999999999734
-3.887035369873047,4.008126258850098,-2.8403592109680176,3.319999999999973
-3.4582128524780273,4.008126258850098,-2.8403592109680176,3.329999999999973
-3.4582128524780273,2.9673681259155273,-2.6013693809509277,3.3399999999999728
-2.6956193447113037,2.9673681259155273,-2.6013693809509277,3.3499999999999726
-2.6956193447113037,3.0045976638793945,-2.1908435821533203,3.3599999999999723
-1.1966402530670166,3.0045976638793945,-2.1908435821533203,3.369999999999972
-1.1966402530670166,2.397324562072754,0.022246837615966797,3.379999999999972
0.2752256393432617,2.397324562072754,0.022246837615966797,3.3899999999999717
0.2752256393432617,1.4921808242797852,3.0121331214904785,3.3999999999999715
1.254514217376709,1.4921808242797852,3.0121331214904785,3.4099999999999713
1.254514217376709,0.2351999282836914,4.2445268630981445,3.419999999999971
1.800001621246338,0.2351999282836914,4.2445268630981445,3.429999999999971
1.800001621246338,-1.1978778839111328,1.8772268295288086,3.4399999999999706
1.4852628707885742,-1.1978778839111328,1.8772268295288086,3.4499999999999704
1.4852628707885742,-2.3320717811584473,-1.9769700765609741,3.45999999999997
1.115279197692871,-2.3320717811584473,-1.9769700765609741,3.46999999999997
1.115279197692871,-3.1997132301330566,-4.7543745040893555,3.47999999999997
0.6208763122558594,-3.1997132301330566,-4.7543745040893555,3.4899999999999696
0.6208763122558594,-3.4947562217712402,-6.407870769500732,3.4999999999999694
-0.24683761596679688,-3.4947562217712402,-6.407870769500732,3.509999999999969
-0.24683761596679688,-3.503638744354248,-6.569395542144775,3.519999999999969
-0.951164722442627,-3.503638744354248,-6.569395542144775,3.5299999999999687
-0.951164722442627,-3.25608491897583,-7.147339820861816,3.5399999999999685
-2.173516035079956,-3.25608491897583,-7.147339820861816,3.5499999999999683
-2.173516035079956,-3.068953037261963,-7.418820381164551,3.559999999999968
-3.521195650100708,-3.068953037261963,-7.418820381164551,3.569999999999968
-3.521195650100708,-2.645803451538086,-7.844383239746094,3.5799999999999677
-4.353907585144043,-2.645803451538086,-7.844383239746094,3.5899999999999674
-4.353907585144043,-2.1681718826293945,-7.203595161437988,3.5999999999999672
-5.327010631561279,-2.1681718826293945,-7.203595161437988,3.609999999999967
-5.327010631561279,-1.738807201385498,-5.665100574493408,3.619999999999967
-6.025664329528809,-1.738807201385498,-5.665100574493408,3.6299999999999666
-6.025664329528809,-1.5317087173461914,-4.526013374328613,3.6399999999999664
-6.914362907409668,-1.5317087173461914,-4.526013374328613,3.649999999999966
-6.914362907409668,-1.5724787712097168,-3.3466129302978516,3.659999999999966
-7.474012851715088,-1.5724787712097168,-3.3466129302978516,3.6699999999999657
-7.474012851715088,-1.917802333831787,-2.1422290802001953,3.6799999999999655
-7.69320011138916,-1.917802333831787,-2.1422290802001953,3.6899999999999653
-7.69320011138916,-2.6872358322143555,-1.1970703601837158,3.699999999999965
-7.39179801940918,-2.6872358322143555,-1.1970703601837158,3.709999999999965
-7.39179801940918,-3.749152898788452,-0.43507814407348633,3.7199999999999647
-6.747012138366699,-3.749152898788452,-0.43507814407348633,3.7299999999999645
-6.747012138366699,-4.912829399108887,0.13885974884033203,3.7399999999999642
-6.2938127517700195,-4.912829399108887,0.13885974884033203,3.749999999999964
-6.2938127517700195,-5.515293121337891,0.3555316925048828,3.759999999999964
-5.480813503265381,-5.515293121337891,0.3555316925048828,3.7699999999999636
-5.480813503265381,-5.864274024963379,0.5342020988464355,3.7799999999999634
-4.289935111999512,-5.864274024963379,0.5342020988464355,3.789999999999963
-4.289935111999512,-5.701247215270996,1.151829719543457,3.799999999999963
-2.9028143882751465,-5.701247215270996,1.151829719543457,3.8099999999999627
-2.9028143882751465,-5.163824081420898,2.5175108909606934,3.8199999999999625
-1.3046305179595947,-5.163824081420898,2.5175108909606934,3.8299999999999623
-1.3046305179595947,-4.052140235900879,3.7429559230804443,3.839999999999962
0.918673038482666,-4.052140235900879,3.7429559230804443,3.849999999999962
0.918673038482666,-1.269381046295166,3.436896324157715,3.8599999999999617
3.51115083694458,-1.269381046295166,3.436896324157715,3.8699999999999615
3.51115083694458,2.575648307800293,1.7889387607574463,3.8799999999999613
6.6410322189331055,2.575648307800293,1.7889387607574463,3.889999999999961
6.6410322189331055,8.212166786193848,-0.051694631576538086,3.899999999999961
9.314481735229492,8.212166786193848,-0.051694631576538086,3.9099999999999606
9.314481735229492,12.179441452026367,1.8082194328308105,3.9199999999999604
13.249225616455078,12.179441452026367,1.8082194328308105,3.92999999999996
13.249225616455078,11.959891319274902,4.292923927307129,3.93999999999996
14.614439010620117,11.959891319274902,4.292923927307129,3.9499999999999598
14.614439010620117,6.401817798614502,5.778003692626953,3.9599999999999596
7.660454750061035,6.401817798614502,5.778003692626953,3.9699999999999593
7.660454750061035,1.7342720031738281,5.537415504455566,3.979999999999959
2.362771511077881,1.7342720031738281,5.537415504455566,3.989999999999959
2.362771511077881,0.935084342956543,4.403368949890137,3.9999999999999587
-1.9549853801727295,0.935084342956543,4.403368949890137,4.009999999999959
-1.9549853801727295,0.48400354385375977,3.4874534606933594,4.019999999999959
-4.865447998046875,0.48400354385375977,3.4874534606933594,4.0299999999999585
-4.865447998046875,0.3497133255004883,3.071855068206787,4.039999999999958
-6.151016712188721,0.3497133255004883,3.071855068206787,4.049999999999958
-6.151016712188721,0.8888711929321289,3.3809776306152344,4.059999999999958
-5.905397415161133,0.8888711929321289,3.3809776306152344,4.069999999999958
-5.905397415161133,1.609344482421875,2.3588063716888428,4.079999999999957
-3.8247032165527344,1.609344482421875,2.3588063716888428,4.089999999999957
-3.8247032165527344,2.3785037994384766,-0.4122161865234375,4.099999999999957
-2.288424015045166,2.3785037994384766,-0.4122161865234375,4.109999999999957
-2.288424015045166,4.858794689178467,-4.977167129516602,4.119999999999957
-2.1298930644989014,4.858794689178467,-4.977167129516602,4.129999999999956
-2.1298930644989014,8.529287338256836,-9.885490417480469,4.139999999999956
-4.5604400634765625,8.529287338256836,-9.885490417480469,4.149999999999956
-4.5604400634765625,11.775318145751953,-14.550642013549805,4.159999999999956
-8.37578296661377,11.775318145751953,-14.550642013549805,4.1699999999999555
-8.37578296661377,13.791990280151367,-15.451013565063477,4.179999999999955
-9.099210739135742,13.791990280151367,-15.451013565063477,4.189999999999955
-9.099210739135742,11.70297622680664,-9.345132827758789,4.199999999999955
-4.958267688751221,11.70297622680664,-9.345132827758789,4.209999999999955
-4.958267688751221,3.438605308532715,0.19731175899505615,4.2199999999999545
-2.216590166091919,3.438605308532715,0.19731175899505615,4.229999999999954
-2.216590166091919,-1.3300371170043945,4.696314334869385,4.239999999999954
-0.5325946807861328,-1.3300371170043945,4.696314334869385,4.249999999999954
-0.5325946807861328,-5.1550679206848145,5.717624187469482,4.259999999999954
0.07607173919677734,-5.1550679206848145,5.717624187469482,4.269999999999953
0.07607173919677734,-8.093894004821777,3.4005284309387207,4.279999999999953
0.1320042610168457,-8.093894004821777,3.4005284309387207,4.289999999999953
0.1320042610168457,-9.360237121582031,-2.7490367889404297,4.299999999999953
-0.31675100326538086,-9.360237121582031,-2.7490367889404297,4.3099999999999525
-0.31675100326538086,-7.804649829864502,-9.699671745300293,4.319999999999952
-2.605377197265625,-7.804649829864502,-9.699671745300293,4.329999999999952
-2.605377197265625,-4.440204620361328,-13.04599380493164,4.339999999999952
-4.293642044067383,-4.440204620361328,-13.04599380493164,4.349999999999952
-4.293642044067383,-2.599888324737549,-12.499491691589355,4.3599999999999515
-5.00543212890625,-2.599888324737549,-12.499491691589355,4.369999999999951
-5.00543212890625,-1.4331374168395996,-9.585150718688965,4.379999999999951
-4.910383701324463,-1.4331374168395996,-9.585150718688965,4.389999999999951
-4.910383701324463,-1.4902262687683105,-9.460952758789062,4.399999999999951
-1.6844682693481445,-1.4902262687683105,-9.460952758789062,4.40999999999995
-1.6844682693481445,2.076676368713379,-2.051828145980835,4.41999999999995
0.24213743209838867,2.076676368713379,-2.051828145980835,4.42999999999995
0.24213743209838867,3.5477752685546875,4.516931533813477,4.43999999999995
2.226803779602051,3.5477752685546875,4.516931533813477,4.4499999999999496
2.226803779602051,3.0523509979248047,5.502540111541748,4.459999999999949
3.460012435913086,3.0523509979248047,5.502540111541748,4.469999999999949
3.460012435913086,1.7858762741088867,2.720860481262207,4.479999999999949
4.641209125518799,1.7858762741088867,2.720860481262207,4.489999999999949
4.641209125518799,0.24117755889892578,-0.23074761033058167,4.4999999999999485
5.720649242401123,0.24117755889892578,-0.23074761033058167,4.509999999999948
5.720649242401123,-1.3910627365112305,-0.875558078289032,4.519999999999948
5.604770183563232,-1.3910627365112305,-0.875558078289032,4.529999999999948
5.604770183563232,-1.3197059631347656,-0.6804090142250061,4.539999999999948
1.9019851684570312,-1.3197059631347656,-0.6804090142250061,4.549999999999947
1.9019851684570312,-1.9172954559326172,2.543184280395508,4.559999999999947
-1.2375478744506836,-1.9172954559326172,2.543184280395508,4.569999999999947
-1.2375478744506836,-1.0350890159606934,2.1199262142181396,4.579999999999947
-1.681119441986084,-1.0350890159606934,2.1199262142181396,4.589999999999947
-1.681119441986084,-1.0671162605285645,1.591705560684204,4.599999999999946
-1.3597698211669922,-1.0671162605285645,1.591705560684204,4.609999999999946
-1.3597698211669922,-1.4269046783447266,1.3587547540664673,4.619999999999946
-1.0008392333984375,-1.4269046783447266,1.3587547540664673,4.629999999999946
-1.0008392333984375,-1.4213638305664062,0.5263931751251221,4.6399999999999455
-1.000779151916504,-1.4213638305664062,0.5263931751251221,4.649999999999945
-1.000779151916504,-1.1752471923828125,-0.30224794149398804,4.659999999999945
-0.9875361919403076,-1.1752471923828125,-0.30224794149398804,4.669999999999945
-0.9875361919403076,-0.7399344444274902,-0.6426713466644287,4.679999999999945
-0.43885326385498047,-0.7399344444274902,-0.6426713466644287,4.689999999999944
-0.43885326385498047,-0.9993791580200195,-0.38759320974349976,4.699999999999944
0.046724796295166016,-0.9993791580200195,-0.38759320974349976,4.709999999999944
0.046724796295166016,-1.3691658973693848,0.12816989421844482,4.719999999999944
0.3280782699584961,-1.3691658973693848,0.12816989421844482,4.729999999999944
0.3280782699584961,-1.7735681533813477,0.6306542158126831,4.739999999999943
0.4063758850097656,-1.7735681533813477,0.6306542158126831,4.749999999999943
0.4063758850097656,-2.074860095977783,0.8497081398963928,4.759999999999943
0.35504579544067383,-2.074860095977783,0.8497081398963928,4.769999999999943
0.35504579544067383,-2.141658306121826,0.6431429982185364,4.7799999999999425
0.24689340591430664,-2.141658306121826,0.6431429982185364,4.789999999999942
0.24689340591430664,-2.180325508117676,0.29427069425582886,4.799999999999942
0.037343502044677734,-2.180325508117676,0.29427069425582886,4.809999999999942
0.037343502044677734,-1.6686458587646484,0.23996466398239136,4.819999999999942
0.021697998046875,-1.6686458587646484,0.23996466398239136,4.8299999999999415
0.021697998046875,-0.9689974784851074,0.6183812022209167,4.839999999999941
0.30887365341186523,-0.9689974784851074,0.6183812022209167,4.849999999999941
0.30887365341186523,-0.3728218078613281,1.1520013809204102,4.859999999999941
0.6507525444030762,-0.3728218078613281,1.1520013809204102,4.869999999999941
0.6507525444030762,0.09024238586425781,1.4957959651947021,4.87999999999994
0.9820842742919922,0.09024238586425781,1.4957959651947021,4.88999999999994
0.9820842742919922,0.26424312591552734,1.2425786256790161,4.89999999999994
1.2054457664489746,0.26424312591552734,1.2425786256790161,4.90999999999994
1.2054457664489746,0.18677139282226562,0.8052595853805542,4.9199999999999395
1.1300592422485352,0.18677139282226562,0.8052595853805542,4.929999999999939
1.1300592422485352,0.4102048873901367,0.6771476864814758,4.939999999999939
1.1147677898406982,0.4102048873901367,0.6771476864814758,4.949999999999939
1.1147677898406982,0.9553413391113281,0.784305989742279,4.959999999999939
1.3801169395446777,0.9553413391113281,0.784305989742279,4.9699999999999385
1.3801169395446777,1.337050437927246,1.3839092254638672,4.979999999999938
1.5850365161895752,1.337050437927246,1.3839092254638672,4.989999999999938
1.5850365161895752,1.294515609741211,2.299264907836914,4.999999999999938
1.570540189743042,1.294515609741211,2.299264907836914,5.009999999999938
1.570540189743042,1.0849933624267578,2.204768419265747,5.019999999999937
1.8059279918670654,1.0849933624267578,2.204768419265747,5.029999999999937
1.8059279918670654,0.8214616775512695,1.5786497592926025,5.039999999999937
2.2257776260375977,0.8214616775512695,1.5786497592926025,5.049999999999937
2.2257776260375977,1.0726499557495117,1.1804070472717285,5.0599999999999365
2.9607343673706055,1.0726499557495117,1.1804070472717285,5.069999999999936
2.9607343673706055,1.5589361190795898,1.3151764869689941,5.079999999999936
4.049372673034668,1.5589361190795898,1.3151764869689941,5.089999999999936
4.049372673034668,2.324519157409668,1.7884280681610107,5.099999999999936
5.428879261016846,2.324519157409668,1.7884280681610107,5.1099999999999355
5.428879261016846,2.6138687133789062,2.110931634902954,5.119999999999935
6.435667991638184,2.6138687133789062,2.110931634902954,5.129999999999935
6.435667991638184,2.4037885665893555,1.780081033706665,5.139999999999935
6.697583198547363,2.4037885665893555,1.780081033706665,5.149999999999935
6.697583198547363,1.4530744552612305,1.1268489360809326,5.159999999999934
5.261815071105957,1.4530744552612305,1.1268489360809326,5.169999999999934
5.261815071105957,0.8297033309936523,1.2585268020629883,5.179999999999934
4.121066093444824,0.8297033309936523,1.2585268020629883,5.189999999999934
4.121066093444824,0.727849006652832,1.0477490425109863,5.199999999999934
3.5116870403289795,0.727849006652832,1.0477490425109863,5.209999999999933
3.5116870403289795,1.2164173126220703,0.18983209133148193,5.219999999999933
2.997317314147949,1.2164173126220703,0.18983209133148193,5.229999999999933
2.997317314147949,1.0346574783325195,0.22540748119354248,5.239999999999933
2.2099547386169434,1.0346574783325195,0.22540748119354248,5.2499999999999325
2.2099547386169434,1.1757307052612305,0.54209965467453,5.259999999999932
0.9527225494384766,1.1757307052612305,0.54209965467453,5.269999999999932
0.9527225494384766,1.8911075592041016,0.4684709310531616,5.279999999999932
-0.24292945861816406,1.8911075592041016,0.4684709310531616,5.289999999999932
-0.24292945861816406,2.7123851776123047,0.679378867149353,5.299999999999931
-0.7677001953125,2.7123851776123047,0.679378867149353,5.309999999999931
-0.7677001953125,3.354037284851074,1.3509070873260498,5.319999999999931
-0.3930935859680176,3.354037284851074,1.3509070873260498,5.329999999999931
-0.3930935859680176,3.7882614135742188,1.6309305429458618,5.339999999999931
0.29390478134155273,3.7882614135742188,1.6309305429458618,5.34999999999993
0.29390478134155273,3.900196075439453,0.3075904846191406,5.35999999999993
0.44551658630371094,3.900196075439453,0.3075904846191406,5.36999999999993
0.44551658630371094,4.288466453552246,-2.1374621391296387,5.37999999999993
-0.3622746467590332,4.288466453552246,-2.1374621391296387,5.3899999999999295
-0.3622746467590332,4.807463645935059,-4.290106296539307,5.399999999999929
-1.702333927154541,4.807463645935059,-4.290106296539307,5.409999999999929
-1.702333927154541,4.864993095397949,-5.053476810455322,5.419999999999929
-2.620328664779663,4.864993095397949,-5.053476810455322,5.429999999999929
-2.620328664779663,4.2801361083984375,-4.790549278259277,5.4399999999999284
-2.3876819610595703,4.2801361083984375,-4.790549278259277,5.449999999999928
-2.3876819610595703,2.703042984008789,-3.994189500808716,5.459999999999928
-1.4959156513214111,2.703042984008789,-3.994189500808716,5.469999999999928
-1.4959156513214111,1.39044189453125,-3.7481753826141357,5.479999999999928
-0.8998503684997559,1.39044189453125,-3.7481753826141357,5.489999999999927
-0.8998503684997559,0.8038759231567383,-3.127359390258789,5.499999999999927
-0.18671226501464844,0.8038759231567383,-3.127359390258789,5.509999999999927
-0.18671226501464844,0.034104347229003906,-1.341295599937439,5.519999999999927
0.4696054458618164,0.034104347229003906,-1.341295599937439,5.5299999999999265
0.4696054458618164,-0.7813243865966797,1.608856201171875,5.539999999999926
0.303804874420166,-0.7813243865966797,1.608856201171875,5.549999999999926
0.303804874420166,-1.186819076538086,3.091064691543579,5.559999999999926
-0.3718233108520508,-1.186819076538086,3.091064691543579,5.569999999999926
-0.3718233108520508,-1.3788037300109863,2.872654914855957,5.5799999999999255
-1.1543998718261719,-1.3788037300109863,2.872654914855957,5.589999999999925
-1.1543998718261719,-1.1596636772155762,0.569451093673706,5.599999999999925
-1.6092140674591064,-1.1596636772155762,0.569451093673706,5.609999999999925
-1.6092140674591064,-0.5544681549072266,-2.49125337600708,5.619999999999925
-2.0116593837738037,-0.5544681549072266,-2.49125337600708,5.629999999999924
-2.0116593837738037,0.054184913635253906,-5.706776142120361,5.639999999999924
-2.144712448120117,0.054184913635253906,-5.706776142120361,5.649999999999924
-2.144712448120117,0.8230795860290527,-6.803989410400391,5.659999999999924
-2.150179147720337,0.8230795860290527,-6.803989410400391,5.6699999999999235
-2.150179147720337,1.1905498504638672,-7.017966270446777,5.679999999999923
-2.0400192737579346,1.1905498504638672,-7.017966270446777,5.689999999999923
-2.0400192737579346,1.3958535194396973,-6.329473972320557,5.699999999999923
-2.1375749111175537,1.3958535194396973,-6.329473972320557,5.709999999999923
-2.1375749111175537,0.8861374855041504,-5.03120231628418,5.7199999999999225
-2.859915256500244,0.8861374855041504,-5.03120231628418,5.729999999999922
-2.859915256500244,-0.16641616821289062,-4.212505340576172,5.739999999999922
-3.501640558242798,-0.16641616821289062,-4.212505340576172,5.749999999999922
-3.501640558242798,-1.2919812202453613,-3.8960211277008057,5.759999999999922
-4.3194684982299805,-1.2919812202453613,-3.8960211277008057,5.769999999999921
-4.3194684982299805,-2.651979923248291,-3.2561497688293457,5.779999999999921
-5.1039276123046875,-2.651979923248291,-3.2561497688293457,5.789999999999921
-5.1039276123046875,-3.4910645484924316,-2.650264024734497,5.799999999999921
-6.056277275085449,-3.4910645484924316,-2.650264024734497,5.809999999999921
-6.056277275085449,-3.9247164726257324,-1.9956300258636475,5.81999999999992
-6.8419342041015625,-3.9247164726257324,-1.9956300258636475,5.82999999999992
-6.8419342041015625,-3.8556394577026367,-1.9403505325317383,5.83999999999992
-6.7363481521606445,-3.8556394577026367,-1.9403505325317383,5.84999999999992
-6.7363481521606445,-3.5424296855926514,-2.4600727558135986,5.8599999999999195
-6.000415802001953,-3.5424296855926514,-2.4600727558135986,5.869999999999919
-6.000415802001953,-3.1415138244628906,-2.8143715858459473,5.879999999999919
-4.6995849609375,-3.1415138244628906,-2.8143715858459473,5.889999999999919
-4.6995849609375,-2.6209397315979004,-2.909367322921753,5.899999999999919
-3.715742826461792,-2.6209397315979004,-2.909367322921753,5.909999999999918
-3.715742826461792,-2.3567147254943848,-2.8314054012298584,5.919999999999918
-2.8362338542938232,-2.3567147254943848,-2.8314054012298584,5.929999999999918
-2.8362338542938232,-2.216930389404297,-2.390770673751831,5.939999999999918
-2.1526951789855957,-2.216930389404297,-2.390770673751831,5.949999999999918
-2.1526951789855957,-2.073305606842041,-1.5606768131256104,5.959999999999917
-1.5554375648498535,-2.073305606842041,-1.5606768131256104,5.969999999999917
-1.5554375648498535,-1.6768574714660645,-0.34953880310058594,5.979999999999917
-0.6125912666320801,-1.6768574714660645,-0.34953880310058594,5.989999999999917
-0.6125912666320801,-1.0104689598083496,1.3354406356811523,5.9999999999999165
1.155087947845459,-1.0104689598083496,1.3354406356811523,6.009999999999916
1.155087947845459,-0.048891544342041016,3.1976771354675293,6.019999999999916
2.1605162620544434,-0.048891544342041016,3.1976771354675293,6.029999999999916
2.1605162620544434,0.6419329643249512,4.099796295166016,6.039999999999916
3.0335640907287598,0.6419329643249512,4.099796295166016,6.0499999999999154
3.0335640907287598,1.442460536956787,3.8972911834716797,6.059999999999915
3.7906785011291504,1.442460536956787,3.8972911834716797,6.069999999999915
3.7906785011291504,2.2560009956359863,2.6075856685638428,6.079999999999915
3.7791409492492676,2.2560009956359863,2.6075856685638428,6.089999999999915
3.7791409492492676,3.0131125450134277,1.7285747528076172,6.099999999999914
3.2730555534362793,3.0131125450134277,1.7285747528076172,6.109999999999914
3.2730555534362793,3.216268539428711,1.9101378917694092,6.119999999999914
2.827664375305176,3.216268539428711,1.9101378917694092,6.129999999999914
2.827664375305176,3.0480880737304688,1.4366638660430908,6.1399999999999135
2.2076258659362793,3.0480880737304688,1.4366638660430908,6.149999999999913
2.2076258659362793,2.6860761642456055,0.7427141666412354,6.159999999999913
1.1650500297546387,2.6860761642456055,0.7427141666412354,6.169999999999913
1.1650500297546387,2.0049777030944824,0.6848711967468262,6.179999999999913
0.10879087448120117,2.0049777030944824,0.6848711967468262,6.1899999999999125
0.10879087448120117,1.309340476989746,1.1975469589233398,6.199999999999912
-0.650543212890625,1.309340476989746,1.1975469589233398,6.209999999999912
-0.650543212890625,0.883244514465332,1.7763161659240723,6.219999999999912
-1.525649070739746,0.883244514465332,1.7763161659240723,6.229999999999912
-1.525649070739746,1.239974021911621,2.0342986583709717,6.239999999999911
-2.555493116378784,1.239974021911621,2.0342986583709717,6.249999999999911
-2.555493116378784,1.996696949005127,1.0694177150726318,6.259999999999911
-3.1565234661102295,1.996696949005127,1.0694177150726318,6.269999999999911
-3.1565234661102295,2.6674985885620117,-0.15001773834228516,6.2799999999999105
-3.4441821575164795,2.6674985885620117,-0.15001773834228516,6.28999999999991
-3.4441821575164795,3.2964954376220703,-1.9139302968978882,6.29999999999991
-2.932594060897827,3.2964954376220703,-1.9139302968978882,6.30999999999991
-2.932594060897827,4.1618332862854,-3.6713907718658447,6.31999999999991
-1.9433002471923828,4.1618332862854,-3.6713907718658447,6.3299999999999095
-1.9433002471923828,5.353331089019775,-5.546542644500732,6.339999999999909
-0.7731418609619141,5.353331089019775,-5.546542644500732,6.349999999999909
-0.7731418609619141,7.051513671875,-7.011074066162109,6.359999999999909
0.528526782989502,7.051513671875,-7.011074066162109,6.369999999999909
0.528526782989502,10.645235061645508,-6.989789962768555,6.379999999999908
0.3896946907043457,10.645235061645508,-6.989789962768555,6.389999999999908
0.3896946907043457,13.508149147033691,-6.039267539978027,6.399999999999908
-1.3573071956634521,13.508149147033691,-6.039267539978027,6.409999999999908
-1.3573071956634521,13.482837677001953,-2.491617441177368,6.419999999999908
-0.47492170333862305,13.482837677001953,-2.491617441177368,6.429999999999907
-0.47492170333862305,6.138750076293945,0.7181994915008545,6.439999999999907
0.9626507759094238,6.138750076293945,0.7181994915008545,6.449999999999907
0.9626507759094238,0.7117347717285156,1.0925607681274414,6.459999999999907
1.4363884925842285,0.7117347717285156,1.0925607681274414,6.4699999999999065
1.4363884925842285,-2.567786693572998,-0.4282534122467041,6.479999999999906
0.5211362838745117,-2.567786693572998,-0.4282534122467041,6.489999999999906
0.5211362838745117,-5.616155624389648,-2.281052350997925,6.499999999999906
-0.6651434898376465,-5.616155624389648,-2.281052350997925,6.509999999999906
-0.6651434898376465,-6.412258625030518,-4.284372329711914,6.519999999999905
-2.1769590377807617,-6.412258625030518,-4.284372329711914,6.529999999999905
-2.1769590377807617,-5.668670654296875,-6.351724624633789,6.539999999999905
-3.315861463546753,-5.668670654296875,-6.351724624633789,6.549999999999905
-3.315861463546753,-4.4187469482421875,-7.69019889831543,6.559999999999905
-3.576857089996338,-4.4187469482421875,-7.69019889831543,6.569999999999904
-3.576857089996338,-3.319612979888916,-8.220352172851562,6.579999999999904
-3.536921501159668,-3.319612979888916,-8.220352172851562,6.589999999999904
-3.536921501159668,-3.3690266609191895,-8.119213104248047,6.599999999999904
-1.7953245639801025,-3.3690266609191895,-8.119213104248047,6.6099999999999035
-1.7953245639801025,-0.8645977973937988,-6.033971786499023,6.619999999999903
-0.6953399181365967,-0.8645977973937988,-6.033971786499023,6.629999999999903
-0.6953399181365967,0.15405845642089844,-4.074602127075195,6.639999999999903
0.3431549072265625,0.15405845642089844,-4.074602127075195,6.649999999999903
0.3431549072265625,1.6055316925048828,-1.469174861907959,6.659999999999902
1.1870465278625488,1.6055316925048828,-1.469174861907959,6.669999999999902
1.1870465278625488,2.4618453979492188,0.5819278955459595,6.679999999999902
1.5017719268798828,2.4618453979492188,0.5819278955459595,6.689999999999902
1.5017719268798828,2.587948799133301,1.253033995628357,6.699999999999902
1.5907626152038574,2.587948799133301,1.253033995628357,6.709999999999901
1.5907626152038574,2.121807098388672,1.0082128047943115,6.719999999999901
1.5962576866149902,2.121807098388672,1.0082128047943115,6.729999999999901
1.5962576866149902,1.3273706436157227,0.2386568784713745,6.739999999999901
1.2888011932373047,1.3273706436157227,0.2386568784713745,6.7499999999999005
1.2888011932373047,1.1703462600708008,-0.17373955249786377,6.7599999999999
1.0494065284729004,1.1703462600708008,-0.17373955249786377,6.7699999999999
1.0494065284729004,0.8661508560180664,-0.31653618812561035,6.7799999999999
-0.09808206558227539,0.8661508560180664,-0.31653618812561035,6.7899999999999
-0.09808206558227539,0.7291145324707031,-0.2669559717178345,6.7999999999998995
-1.1605637073516846,0.7291145324707031,-0.2669559717178345,6.809999999999899
-1.1605637073516846,0.7524557113647461,-0.11616790294647217,6.819999999999899
-2.240185499191284,0.7524557113647461,-0.11616790294647217,6.829999999999899
-2.240185499191284,0.8594598770141602,-0.18529081344604492,6.839999999999899
-2.806363582611084,0.8594598770141602,-0.18529081344604492,6.849999999999898
-2.806363582611084,0.8135957717895508,-0.71916264295578,6.859999999999898
-2.56671142578125,0.8135957717895508,-0.71916264295578,6.869999999999898
-2.56671142578125,0.4978828430175781,-1.1074570417404175,6.879999999999898
-1.6530067920684814,0.4978828430175781,-1.1074570417404175,6.8899999999998975
-1.6530067920684814,0.012721061706542969,-1.3106404542922974,6.899999999999897
-0.7657303810119629,0.012721061706542969,-1.3106404542922974,6.909999999999897
-0.7657303810119629,-0.38282299041748047,-1.1134884357452393,6.919999999999897
-0.2893824577331543,-0.38282299041748047,-1.1134884357452393,6.929999999999897
-0.2893824577331543,-0.5218524932861328,-0.7879400849342346,6.9399999999998965
0.06195068359375,-0.5218524932861328,-0.7879400849342346,6.949999999999896
0.06195068359375,-0.6370902061462402,-0.9835124611854553,6.959999999999896
0.5597596168518066,-0.6370902061462402,-0.9835124611854553,6.969999999999896
0.5597596168518066,-0.8595023155212402,-1.5528593063354492,6.979999999999896
0.8288173675537109,-0.8595023155212402,-1.5528593063354492,6.989999999999895
0.8288173675537109,-0.7848415374755859,-1.725892186164856,6.999999999999895
0.7241177558898926,-0.7848415374755859,-1.725892186164856,7.009999999999895
0.7241177558898926,-0.679175853729248,-1.541385293006897,7.019999999999895
0.24088239669799805,-0.679175853729248,-1.541385293006897,7.0299999999998946
0.24088239669799805,-0.33950042724609375,-0.9278584122657776,7.039999999999894
0.26224756240844727,-0.33950042724609375,-0.9278584122657776,7.049999999999894
0.26224756240844727,-0.19279098510742188,-0.22595089673995972,7.059999999999894
0.23576116561889648,-0.19279098510742188,-0.22595089673995972,7.069999999999894
0.23576116561889648,-0.05755043029785156,0.11230498552322388,7.0799999999998935
0.08923530578613281,-0.05755043029785156,0.11230498552322388,7.089999999999893
0.08923530578613281,-0.07921981811523438,-0.16797983646392822,7.099999999999893
0.40607213973999023,-0.07921981811523438,-0.16797983646392822,7.109999999999893
0.40607213973999023,-0.1115102767944336,-0.6732226610183716,7.119999999999893
0.41095972061157227,-0.1115102767944336,-0.6732226610183716,7.129999999999892
0.41095972061157227,-0.11941337585449219,-0.6117023229598999,7.139999999999892
0.9007182121276855,-0.11941337585449219,-0.6117023229598999,7.149999999999892
0.9007182121276855,0.27469825744628906,-1.59660804271698,7.159999999999892
0.9084262847900391,0.27469825744628906,-1.59660804271698,7.169999999999892
0.9084262847900391,0.5298194885253906,-1.8222379684448242,7.179999999999891
0.7812952995300293,0.5298194885253906,-1.8222379684448242,7.189999999999891
0.7812952995300293,0.7250537872314453,-1.5844587087631226,7.199999999999891
0.2955923080444336,0.7250537872314453,-1.5844587087631226,7.209999999999891
0.2955923080444336,0.786768913269043,-1.017513632774353,7.2199999999998905
-0.19950008392333984,0.786768913269043,-1.017513632774353,7.22999999999989
-0.19950008392333984,0.8658657073974609,-0.5707162022590637,7.23999999999989
-0.7338390350341797,0.8658657073974609,-0.5707162022590637,7.24999999999989
-0.7338390350341797,1.0752410888671875,-0.1838976889848709,7.25999999999989
-1.3384864330291748,1.0752410888671875,-0.1838976889848709,7.269999999999889
-1.3384864330291748,1.239938735961914,0.13033878803253174,7.279999999999889
-1.6507289409637451,1.239938735961914,0.13033878803253174,7.289999999999889
-1.6507289409637451,1.1460552215576172,0.4367225468158722,7.299999999999889
-1.661041259765625,1.1460552215576172,0.4367225468158722,7.309999999999889
-1.661041259765625,0.8677568435668945,0.75640469789505,7.319999999999888
-1.1817383766174316,0.8677568435668945,0.75640469789505,7.329999999999888
-1.1817383766174316,0.5816373825073242,0.7051413059234619,7.339999999999888
-0.8793156147003174,0.5816373825073242,0.7051413059234619,7.349999999999888
-0.8793156147003174,0.19826507568359375,0.2630254924297333,7.3599999999998875
-0.3351879119873047,0.19826507568359375,0.2630254924297333,7.369999999999887
-0.3351879119873047,-0.0945272445678711,-0.3708564341068268,7.379999999999887
0.07326126098632812,-0.0945272445678711,-0.3708564341068268,7.389999999999887
0.07326126098632812,-0.1425342559814453,-1.0040867328643799,7.399999999999887
0.2536640167236328,-0.1425342559814453,-1.0040867328643799,7.4099999999998865
0.2536640167236328,-0.5410041809082031,-1.584755301475525,7.419999999999886
1.0523924827575684,-0.5410041809082031,-1.584755301475525,7.429999999999886
1.0523924827575684,-0.4905586242675781,-1.935644268989563,7.439999999999886
1.6826915740966797,-0.4905586242675781,-1.935644268989563,7.449999999999886
1.6826915740966797,-0.12555217742919922,-1.3524903059005737,7.459999999999885
1.3037500381469727,-0.12555217742919922,-1.3524903059005737,7.469999999999885
1.3037500381469727,0.06576824188232422,-0.66196209192276,7.479999999999885
1.2263140678405762,0.06576824188232422,-0.66196209192276,7.489999999999885
1.2263140678405762,0.007175445556640625,-0.26818397641181946,7.4999999999998845
0.6748671531677246,0.007175445556640625,-0.26818397641181946,7.509999999999884
0.6748671531677246,-0.2858715057373047,0.3887888789176941,7.519999999999884
-0.034664154052734375,-0.2858715057373047,0.3887888789176941,7.529999999999884
-0.034664154052734375,-0.33450984954833984,0.8551762104034424,7.539999999999884
-0.7765867710113525,-0.33450984954833984,0.8551762104034424,7.5499999999998835
-0.7765867710113525,-0.47569751739501953,0.8391774892807007,7.559999999999883
-0.9089407920837402,-0.47569751739501953,0.8391774892807007,7.569999999999883
-0.9089407920837402,-0.20445632934570312,0.14471986889839172,7.579999999999883
-0.9805202484130859,-0.20445632934570312,0.14471986889839172,7.589999999999883
-0.9805202484130859,-0.028250694274902344,-0.5595697164535522,7.599999999999882
-1.1742208003997803,-0.028250694274902344,-0.5595697164535522,7.609999999999882
-1.1742208003997803,-0.12151527404785156,-0.4910416603088379,7.619999999999882
-0.9629004001617432,-0.12151527404785156,-0.4910416603088379,7.629999999999882
-0.9629004001617432,-0.3252115249633789,0.20563751459121704,7.6399999999998816
-0.5481224060058594,-0.3252115249633789,0.20563751459121704,7.649999999999881
-0.5481224060058594,-0.23453617095947266,0.6060853600502014,7.659999999999881
-0.3376917839050293,-0.23453617095947266,0.6060853600502014,7.669999999999881
-0.3376917839050293,0.16147899627685547,0.2535417973995209,7.679999999999881
-0.5373721122741699,0.16147899627685547,0.2535417973995209,7.6899999999998805
-0.5373721122741699,0.25330066680908203,-0.09796799719333649,7.69999999999988
-0.4871525764465332,0.25330066680908203,-0.09796799719333649,7.70999999999988
-0.4871525764465332,0.03926277160644531,-0.037659063935279846,7.71999999999988
-0.361295223236084,0.03926277160644531,-0.037659063935279846,7.72999999999988
-0.361295223236084,-0.3800783157348633,-0.1434628665447235,7.739999999999879
-0.4023585319519043,-0.3800783157348633,-0.1434628665447235,7.749999999999879
-0.4023585319519043,-0.5338373184204102,-0.5417440533638,7.759999999999879
-0.37363624572753906,-0.5338373184204102,-0.5417440533638,7.769999999999879
-0.37363624572753906,-0.4540739059448242,-0.6433308720588684,7.779999999999879
-0.5088953971862793,-0.4540739059448242,-0.6433308720588684,7.789999999999878
-0.5088953971862793,-0.3087482452392578,-0.5704580545425415,7.799999999999878
-0.28200244903564453,-0.3087482452392578,-0.5704580545425415,7.809999999999878
-0.28200244903564453,0.014861106872558594,-0.3930244445800781,7.819999999999878
-0.09317922592163086,0.014861106872558594,-0.3930244445800781,7.8299999999998775
-0.09317922592163086,0.48566341400146484,-0.6382550001144409,7.839999999999877
-0.3492445945739746,0.48566341400146484,-0.6382550001144409,7.849999999999877
-0.3492445945739746,0.7167415618896484,-0.5212482213973999,7.859999999999877
-0.6560637950897217,0.7167415618896484,-0.5212482213973999,7.869999999999877
-0.6560637950897217,0.8571014404296875,-0.2968205213546753,7.879999999999876
-0.958888053894043,0.8571014404296875,-0.2968205213546753,7.889999999999876
-0.958888053894043,0.6698122024536133,-0.04521174728870392,7.899999999999876
-1.0367348194122314,0.6698122024536133,-0.04521174728870392,7.909999999999876
-1.0367348194122314,0.5315465927124023,0.11819984018802643,7.919999999999876
-1.1767592430114746,0.5315465927124023,0.11819984018802643,7.929999999999875
-1.1767592430114746,0.4709491729736328,0.02509009838104248,7.939999999999875
-1.2284352779388428,0.4709491729736328,0.02509009838104248,7.949999999999875
-1.2284352779388428,0.3074607849121094,0.006682112812995911,7.959999999999875
-1.1623706817626953,0.3074607849121094,0.006682112812995911,7.9699999999998745
-1.1623706817626953,0.1078805923461914,0.0868445336818695,7.979999999999874
-1.1864781379699707,0.1078805923461914,0.0868445336818695,7.989999999999874
-1.1864781379699707,-0.11115360260009766,0.09612171351909637,7.999999999999874
-1.413219928741455,-0.11115360260009766,0.09612171351909637,8.009999999999874
