AccX,AccY,AccZ,SampleRate
2.706939697265625,1.489877700805664,-0.14729273319244385,0
2.9198098182678223,1.4311323165893555,-0.08466017246246338,0.01
3.130505323410034,1.4621963500976562,-0.5856459140777588,0.02
3.3171708583831787,1.7362947463989258,-0.7019808292388916,0.03
3.6144185066223145,1.6676931381225586,-0.7472543716430664,0.04
3.8908543586730957,1.2083044052124023,-0.6462137699127197,0.05
3.7102108001708984,1.0206365585327148,-0.7924337387084961,0.060000000000000005
3.092231273651123,1.2547883987426758,-0.9923698306083679,0.07
2.3336002826690674,1.8601408004760742,-1.2048664093017578,0.08
1.5830464363098145,2.108600616455078,-1.5410881042480469,0.09
1.2621487379074097,2.0778064727783203,-2.0618362426757812,0.09999999999999999
1.1213157176971436,2.1543874740600586,-2.781489133834839,0.10999999999999999
0.9280145168304443,2.2908544540405273,-3.0787479877471924,0.11999999999999998
0.7800226211547852,2.2670631408691406,-3.195080280303955,0.12999999999999998
0.65667724609375,2.4743967056274414,-3.771718978881836,0.13999999999999999
0.14832347631454468,3.1986303329467773,-3.429391860961914,0.15
-0.09013861417770386,3.5492734909057617,-3.198399782180786,0.16
-0.36025261878967285,3.55612850189209,-3.0819263458251953,0.17
-0.6249913573265076,3.636960983276367,-2.901867628097534,0.18000000000000002
-0.8789408802986145,3.8012332916259766,-2.441020965576172,0.19000000000000003
-1.1559969186782837,4.007110595703125,-1.8377479314804077,0.20000000000000004
-1.1647565364837646,4.051870346069336,-1.4464747905731201,0.21000000000000005
-1.1478228569030762,3.747677803039551,-1.4643352031707764,0.22000000000000006
-1.2436448335647583,2.9896240234375,-1.4994432926177979,0.23000000000000007
-1.4356913566589355,2.013151168823242,-1.79886794090271,0.24000000000000007
-1.7694330215454102,1.0786685943603516,-2.2410478591918945,0.25000000000000006
-1.9501839876174927,0.6298122406005859,-2.4031996726989746,0.26000000000000006
-2.0002236366271973,0.7023353576660156,-2.5531058311462402,0.2700000000000001
-1.490220308303833,-0.1971273422241211,-3.2333037853240967,0.2800000000000001
-0.9572643041610718,-0.2835531234741211,-3.6751787662506104,0.2900000000000001
-0.5849970579147339,-0.5639700889587402,-3.795938014984131,0.3000000000000001
-0.3035223186016083,-0.7579684257507324,-3.8880999088287354,0.3100000000000001
-0.1402181088924408,-1.1472015380859375,-3.9709157943725586,0.3200000000000001
-0.05803307890892029,-1.7298169136047363,-3.432162284851074,0.3300000000000001
-0.1164688766002655,-2.052334785461426,-3.2642149925231934,0.34000000000000014
-0.08488073945045471,-1.9831666946411133,-3.364014148712158,0.35000000000000014
-0.17908352613449097,-2.4303040504455566,-2.3973634243011475,0.36000000000000015
-0.1511659026145935,-2.3794069290161133,-2.4668123722076416,0.37000000000000016
-0.036828041076660156,-2.354731559753418,-3.0894720554351807,0.38000000000000017
-0.033976197242736816,-2.314864158630371,-3.0866587162017822,0.3900000000000002
0.025987684726715088,-2.2765092849731445,-3.1202878952026367,0.4000000000000002
0.3257301151752472,-2.2676377296447754,-3.159728765487671,0.4100000000000002
0.6941501498222351,-2.3062562942504883,-2.482976198196411,0.4200000000000002
0.995172917842865,-2.4560790061950684,-1.638859748840332,0.4300000000000002
1.196873664855957,-2.2929182052612305,-1.1332783699035645,0.4400000000000002
1.3726260662078857,-1.9252524375915527,-1.1332507133483887,0.45000000000000023
1.5224659442901611,-1.6748247146606445,-1.2700352668762207,0.46000000000000024
1.6512287855148315,-1.4271297454833984,-1.2421488761901855,0.47000000000000025
1.7491462230682373,-1.010319709777832,-0.7288846969604492,0.48000000000000026
1.6414870023727417,-0.5256586074829102,-0.4388542175292969,0.49000000000000027
1.605584979057312,0.016702651977539062,0.08321142196655273,0.5000000000000002
1.75479257106781,0.5599269866943359,0.5057291984558105,0.5100000000000002
1.9991908073425293,0.8910551071166992,0.6845269203186035,0.5200000000000002
2.380814552307129,1.4389419555664062,0.5638623237609863,0.5300000000000002
2.8073596954345703,2.1335716247558594,0.511448860168457,0.5400000000000003
3.059528350830078,2.8137903213500977,0.47021007537841797,0.5500000000000003
2.9679183959960938,3.1261110305786133,0.4656038284301758,0.5600000000000003
2.31844425201416,3.1994619369506836,0.10810995101928711,0.5700000000000003
1.853795051574707,3.321971893310547,0.1587362289428711,0.5800000000000003
1.2316547632217407,3.614415168762207,0.34340429306030273,0.5900000000000003
0.6479662656784058,4.177748680114746,0.4310297966003418,0.6000000000000003
0.3934968113899231,4.576258659362793,0.6460161209106445,0.6100000000000003
-0.14858901500701904,4.748600006103516,-0.5792627334594727,0.6200000000000003
-1.7505228519439697,4.010098934173584,-1.9741077423095703,0.6300000000000003
-3.0718953609466553,2.938777446746826,-3.3326215744018555,0.6400000000000003
-4.241944313049316,2.176826000213623,-5.160276889801025,0.6500000000000004
-5.228630065917969,2.161698818206787,-5.163722038269043,0.6600000000000004
-5.303544998168945,1.1747241020202637,-2.2709755897521973,0.6700000000000004
-4.505678176879883,-0.7477030754089355,-1.1329541206359863,0.6800000000000004
-2.8507981300354004,-2.0842690467834473,-3.2327067852020264,0.6900000000000004
-1.8862040042877197,-2.3744516372680664,-4.637598514556885,0.7000000000000004
-1.3343260288238525,-1.3689250946044922,-4.631030082702637,0.7100000000000004
-0.7096601724624634,0.12581634521484375,-4.12379264831543,0.7200000000000004
-0.177667498588562,1.5403542518615723,-3.6166203022003174,0.7300000000000004
0.13796526193618774,3.147286891937256,-5.039053440093994,0.7400000000000004
0.21990090608596802,4.788235664367676,-6.10823917388916,0.7500000000000004
0.21901708841323853,5.6483612060546875,-6.136658668518066,0.7600000000000005
0.48073810338974,6.391919136047363,-4.341070175170898,0.7700000000000005
1.1812349557876587,6.8921799659729,-1.9253771305084229,0.7800000000000005
2.3452138900756836,5.765246868133545,-1.2740750312805176,0.7900000000000005
2.663235664367676,3.9428844451904297,-2.4105160236358643,0.8000000000000005
1.6646173000335693,2.1411266326904297,-2.5081558227539062,0.8100000000000005
0.5754961371421814,0.8729496002197266,-2.6619789600372314,0.8200000000000005
-0.0672445297241211,-0.28278446197509766,-3.143305778503418,0.8300000000000005
-0.5705242156982422,-0.9895143508911133,-3.3418102264404297,0.8400000000000005
-0.4905054569244385,-2.05539608001709,-3.69006085395813,0.8500000000000005
-0.29450273513793945,-2.8247318267822266,-4.080619812011719,0.8600000000000005
0.14011645317077637,-3.426180839538574,-4.289281845092773,0.8700000000000006
0.34878110885620117,-3.5816855430603027,-4.0077924728393555,0.8800000000000006
0.5016538500785828,-3.4033780097961426,-4.040240287780762,0.8900000000000006
0.6306809782981873,-3.204400062561035,-3.817598581314087,0.9000000000000006
0.6237609386444092,-2.8544349670410156,-3.119438648223877,0.9100000000000006
0.6692113876342773,-2.4230451583862305,-2.550095319747925,0.9200000000000006
0.7453888654708862,-1.8850336074829102,-2.315232753753662,0.9300000000000006
0.8138343691825867,-1.418351173400879,-1.998653531074524,0.9400000000000006
0.8984310030937195,-0.8679800033569336,-1.7445951700210571,0.9500000000000006
0.9972023367881775,-0.3454427719116211,-1.6068930625915527,0.9600000000000006
1.1813163757324219,0.025995254516601562,-1.3356521129608154,0.9700000000000006
1.3621954917907715,0.16824626922607422,-0.8442795276641846,0.9800000000000006
1.5345195531845093,0.020010948181152344,-0.13764524459838867,0.9900000000000007
1.551340937614441,-0.23255062103271484,-0.10473799705505371,1.0000000000000007
1.5427794456481934,-0.09716606140136719,-0.5949230194091797,1.0100000000000007
1.7499935626983643,0.5646514892578125,-0.7284253835678101,1.0200000000000007
1.8802567720413208,1.453322410583496,-0.8447595834732056,1.0300000000000007
1.8957732915878296,2.2545909881591797,-0.8043652772903442,1.0400000000000007
1.9220229387283325,2.561861991882324,-0.4703251123428345,1.0500000000000007
2.0910732746124268,2.497584342956543,-0.1607983112335205,1.0600000000000007
2.4988462924957275,2.178887367248535,-0.4963104724884033,1.0700000000000007
2.52166748046875,2.1732559204101562,-0.4518873691558838,1.0800000000000007
3.040587902069092,1.811131477355957,-1.2553952932357788,1.0900000000000007
3.117887496948242,1.918595314025879,-1.0608386993408203,1.1000000000000008
2.899092435836792,2.222283363342285,-1.248551607131958,1.1100000000000008
2.5644419193267822,2.7433528900146484,-1.7110648155212402,1.1200000000000008
1.4663217067718506,3.7333812713623047,1.528933048248291,1.1300000000000008
0.8605309724807739,4.139531135559082,-0.8507959842681885,1.1400000000000008
0.9649819135665894,3.9139394760131836,-3.2921104431152344,1.1500000000000008
0.7935703992843628,3.4159975051879883,-3.5826683044433594,1.1600000000000008
0.3948824405670166,2.6255807876586914,-3.173609733581543,1.1700000000000008
0.04027271270751953,2.260194778442383,-3.2706408500671387,1.1800000000000008
0.007591366767883301,2.207552909851074,-3.4166393280029297,1.1900000000000008
0.17223846912384033,2.694561004638672,-4.317857265472412,1.2000000000000008
0.24937701225280762,3.353212356567383,-4.890542030334473,1.2100000000000009
-0.05141019821166992,4.103110313415527,-5.197530746459961,1.2200000000000009
-0.5492950677871704,4.7802734375,-5.310213565826416,1.2300000000000009
-1.6247458457946777,5.336738586425781,-4.454600811004639,1.2400000000000009
-2.6912577152252197,5.715323448181152,-3.1982476711273193,1.2500000000000009
-3.307638645172119,6.265732765197754,-2.472580909729004,1.260000000000001
-3.162262439727783,6.836586952209473,-1.311948537826538,1.270000000000001
-3.168311834335327,6.298693656921387,-0.2723095417022705,1.280000000000001
-2.5116782188415527,4.316512107849121,-0.6861987113952637,1.290000000000001
-1.9289923906326294,2.41300106048584,-0.7402429580688477,1.300000000000001
-1.7585258483886719,0.8176679611206055,-1.0025489330291748,1.310000000000001
-1.6845932006835938,-0.29647350311279297,-2.194692611694336,1.320000000000001
-1.4733027219772339,-1.2655558586120605,-2.776097536087036,1.330000000000001
-1.1973960399627686,-1.6002311706542969,-3.3997802734375,1.340000000000001
-0.815328061580658,-2.049920082092285,-4.306151390075684,1.350000000000001
-0.408040851354599,-2.0183887481689453,-4.812958717346191,1.360000000000001
-0.2962504029273987,-1.8763542175292969,-4.632225036621094,1.370000000000001
0.18081125617027283,-2.042318344116211,-4.570308685302734,1.380000000000001
0.35168907046318054,-2.275444984436035,-4.902116775512695,1.390000000000001
0.9066203236579895,-2.3284072875976562,-3.6380867958068848,1.400000000000001
0.5327710509300232,-1.4534378051757812,-2.4439961910247803,1.410000000000001
0.7434567213058472,-1.573969841003418,-2.9474432468414307,1.420000000000001
0.910258948802948,-2.4659910202026367,-3.188690662384033,1.430000000000001
1.0059585571289062,-3.364150047302246,-2.8534998893737793,1.440000000000001
0.8756703734397888,-4.118001937866211,-3.0265755653381348,1.450000000000001
0.8113174438476562,-4.804986953735352,-3.322946310043335,1.460000000000001
0.5342059135437012,-5.453815937042236,-3.3737666606903076,1.470000000000001
0.3128833770751953,-5.807133674621582,-3.3587353229522705,1.480000000000001
-0.0988813042640686,-5.641865253448486,-3.081890344619751,1.490000000000001
0.3595164716243744,-4.849968433380127,-2.3616158962249756,1.500000000000001
0.8805259466171265,-3.8512463569641113,-2.2277114391326904,1.5100000000000011
1.1918721199035645,-2.750786304473877,-2.3079211711883545,1.5200000000000011
1.0084922313690186,-0.10735034942626953,-1.1432533264160156,1.5300000000000011
0.735062837600708,2.3507232666015625,0.991175651550293,1.5400000000000011
1.0009113550186157,5.140485763549805,2.591733932495117,1.5500000000000012
1.690914273262024,7.64427375793457,2.9871625900268555,1.5600000000000012
1.8225252628326416,9.514167785644531,2.5853357315063477,1.5700000000000012
2.188075542449951,8.351463317871094,2.4626193046569824,1.5800000000000012
2.040872573852539,5.44755744934082,3.399338722229004,1.5900000000000012
1.8088722229003906,3.314603805541992,3.793609142303467,1.6000000000000012
1.7078337669372559,1.3543648719787598,3.2039895057678223,1.6100000000000012
1.9630486965179443,0.18563318252563477,0.8434128761291504,1.6200000000000012
2.366926670074463,-0.15646791458129883,-0.692965030670166,1.6300000000000012
2.3679614067077637,0.5522341728210449,-1.2844300270080566,1.6400000000000012
0.9961718320846558,1.973456859588623,-1.8062124252319336,1.6500000000000012
-0.008033514022827148,3.0247154235839844,-3.370896816253662,1.6600000000000013
-0.8404122591018677,3.9957308769226074,-5.781465530395508,1.6700000000000013
-2.240724563598633,4.671783924102783,-8.238141059875488,1.6800000000000013
-4.086185455322266,5.158054828643799,-8.504865646362305,1.6900000000000013
-9.363958358764648,5.113417625427246,-2.2224626541137695,1.7000000000000013
-12.403886795043945,2.7401599884033203,0.8889064788818359,1.7100000000000013
-9.116485595703125,1.1377882957458496,-0.7732110023498535,1.7200000000000013
-4.053189754486084,0.16683101654052734,-2.553260564804077,1.7300000000000013
-2.7980990409851074,0.13697433471679688,-4.282272815704346,1.7400000000000013
-1.7711697816848755,1.37437105178833,-4.028785228729248,1.7500000000000013
-0.530089259147644,2.1540722846984863,-4.787506103515625,1.7600000000000013
0.4738248586654663,2.9612154960632324,-5.125236511230469,1.7700000000000014
0.9789918661117554,3.3123364448547363,-5.31216287612915,1.7800000000000014
1.840493083000183,3.2562718391418457,-5.568812370300293,1.7900000000000014
2.5985107421875,2.957510471343994,-4.654560089111328,1.8000000000000014
3.217313766479492,2.756540298461914,-2.860053300857544,1.8100000000000014
3.6254372596740723,2.6020984649658203,-3.1581034660339355,1.8200000000000014
2.81502103805542,1.9143962860107422,-3.4099819660186768,1.8300000000000014
1.5997734069824219,0.7510852813720703,-3.006498336791992,1.8400000000000014
0.6574804186820984,-0.4345989227294922,-2.5584449768066406,1.8500000000000014
0.1361842155456543,-1.1590723991394043,-2.4510741233825684,1.8600000000000014
-0.06674373149871826,-1.8217101097106934,-3.1876888275146484,1.8700000000000014
-0.07547509670257568,-2.504873752593994,-4.047881126403809,1.8800000000000014
0.05379033088684082,-3.1658272743225098,-3.985969066619873,1.8900000000000015
0.4996525049209595,-3.7215561866760254,-4.1267409324646,1.9000000000000015
0.7272478342056274,-4.068850994110107,-3.4233524799346924,1.9100000000000015
0.5675492286682129,-3.8422412872314453,-3.0579211711883545,1.9200000000000015
0.5265389680862427,-3.2910594940185547,-2.577594757080078,1.9300000000000015
0.5886517763137817,-3.345646858215332,-2.4278931617736816,1.9400000000000015
1.1446709632873535,-1.9661974906921387,-2.0471763610839844,1.9500000000000015
1.272016167640686,-1.315417766571045,-1.7105727195739746,1.9600000000000015
1.2373857498168945,-0.5391302108764648,-1.3679107427597046,1.9700000000000015
1.114308476448059,0.08408451080322266,-1.0876622200012207,1.9800000000000015
1.0531339645385742,0.5049982070922852,-0.5797932147979736,1.9900000000000015
1.228912115097046,0.6121530532836914,-0.4478573799133301,2.0000000000000013
1.53773832321167,0.39249134063720703,-0.5544097423553467,2.010000000000001
1.8089877367019653,0.1339712142944336,-0.6392102241516113,2.020000000000001
2.1225874423980713,-0.12417984008789062,-0.703504204750061,2.0300000000000007
2.4955544471740723,0.10455703735351562,-0.5590603351593018,2.0400000000000005
2.608807325363159,0.942474365234375,-0.25006961822509766,2.0500000000000003
2.389106512069702,1.8791751861572266,-0.033833980560302734,2.06
2.005236864089966,2.6246795654296875,-0.3082883358001709,2.07
1.9713397026062012,2.8652114868164062,-0.807258129119873,2.0799999999999996
2.3505871295928955,2.9139785766601562,-0.9966305494308472,2.0899999999999994
2.723043918609619,2.9813928604125977,-0.9130234718322754,2.099999999999999
2.9483675956726074,2.652688980102539,-0.9183954000473022,2.109999999999999
2.900949001312256,2.5757246017456055,-1.4202361106872559,2.1199999999999988
2.2183351516723633,2.9870223999023438,-2.461012363433838,2.1299999999999986
1.0648006200790405,3.504122734069824,-3.0036985874176025,2.1399999999999983
-0.5157973766326904,3.778571128845215,-0.5290263891220093,2.149999999999998
-1.7099099159240723,4.025243759155273,0.3813140392303467,2.159999999999998
-1.3253705501556396,3.5256338119506836,-1.963590383529663,2.1699999999999977
-0.8453257083892822,2.627547264099121,-2.1575543880462646,2.1799999999999975
-0.05154871940612793,2.3917837142944336,-1.8665151596069336,2.1899999999999973
0.6221188306808472,2.700514793395996,-2.4930503368377686,2.199999999999997
1.4235851764678955,3.541670799255371,-4.519104957580566,2.209999999999997
1.450317144393921,4.628116607666016,-5.463071823120117,2.2199999999999966
1.029850959777832,5.118103981018066,-5.959794998168945,2.2299999999999964
0.18879544734954834,5.271448135375977,-5.712839126586914,2.239999999999996
-1.1225559711456299,5.303945541381836,-4.124955654144287,2.249999999999996
-2.411202907562256,5.31201171875,-2.659050464630127,2.259999999999996
-3.2287344932556152,5.668790817260742,-0.9870250225067139,2.2699999999999956
-3.156939744949341,5.591241836547852,0.03744077682495117,2.2799999999999954
-2.502620220184326,4.796797752380371,-0.11855602264404297,2.289999999999995
-2.2120399475097656,3.6185836791992188,-0.7987802028656006,2.299999999999995
-1.977041482925415,2.0669631958007812,-1.2862768173217773,2.3099999999999947
-1.7381012439727783,1.0088319778442383,-1.726710319519043,2.3199999999999945
-1.5555764436721802,-0.07757949829101562,-2.1312568187713623,2.3299999999999943
-1.1977145671844482,-0.9194240570068359,-2.6638731956481934,2.339999999999994
-0.7793278098106384,-1.6966156959533691,-3.8521084785461426,2.349999999999994
-0.7679781317710876,-1.797156810760498,-3.989868640899658,2.3599999999999937
-0.201252281665802,-2.1878628730773926,-4.984443664550781,2.3699999999999934
-0.25063881278038025,-2.119568347930908,-5.087159156799316,2.3799999999999932
-0.0015621483325958252,-2.436678409576416,-5.239385604858398,2.389999999999993
0.06515151262283325,-2.618809223175049,-4.2309770584106445,2.399999999999993
0.06747311353683472,-2.500554084777832,-3.4886202812194824,2.4099999999999926
-0.034492671489715576,-2.5624594688415527,-3.272503137588501,2.4199999999999924
-0.34004271030426025,-2.253587245941162,-3.692936897277832,2.429999999999992
-0.22792601585388184,-1.768691062927246,-3.6305007934570312,2.439999999999992
0.04042237997055054,-1.240157127380371,-3.447725534439087,2.4499999999999917
0.757056474685669,-3.1811580657958984,-3.5465848445892334,2.4599999999999915
0.9814875721931458,-4.921133041381836,-3.111603021621704,2.4699999999999913
0.6780523061752319,-5.766358375549316,-3.1195943355560303,2.479999999999991
-0.20106887817382812,-6.249186992645264,-3.1399691104888916,2.489999999999991
-0.9202737212181091,-5.963726997375488,-2.919076681137085,2.4999999999999907
-0.49047768115997314,-4.944070816040039,-1.7688674926757812,2.5099999999999905
0.29236334562301636,-3.6853275299072266,-1.1358075141906738,2.5199999999999902
0.7916176915168762,-2.221696376800537,-0.9917082786560059,2.52999999999999
0.8548686504364014,0.068023681640625,0.07309675216674805,2.53999999999999
1.172566533088684,3.666229248046875,2.7360939979553223,2.5499999999999896
2.495634078979492,5.1456298828125,2.8664326667785645,2.5599999999999894
3.3791604042053223,6.6387786865234375,2.5954651832580566,2.569999999999989
3.379326343536377,7.036023139953613,2.616861343383789,2.579999999999989
2.592564582824707,5.886844635009766,1.8983187675476074,2.5899999999999888
1.5713472366333008,4.401272773742676,2.461610794067383,2.5999999999999885
0.6443599462509155,3.6075267791748047,2.5180444717407227,2.6099999999999883
0.06744277477264404,3.9418888092041016,2.2230920791625977,2.619999999999988
-0.31475985050201416,4.905943870544434,1.8405356407165527,2.629999999999988
-0.35858607292175293,6.2089314460754395,1.242478847503662,2.6399999999999877
-0.8085838556289673,7.105656623840332,0.13160181045532227,2.6499999999999875
-1.9683926105499268,7.444811820983887,-1.244436264038086,2.6599999999999873
-3.478499412536621,6.222365379333496,-2.3524930477142334,2.669999999999987
-4.3797125816345215,3.629319190979004,-5.113455295562744,2.679999999999987
-5.4395952224731445,0.35791730880737305,-7.256944179534912,2.6899999999999866
-6.156955718994141,-2.200313091278076,-5.386427879333496,2.6999999999999864
-4.9471049308776855,-3.663722515106201,-3.7351999282836914,2.709999999999986
-3.347127914428711,-3.8231186866760254,-4.564573287963867,2.719999999999986
-2.1955578327178955,-3.237786293029785,-4.981584548950195,2.7299999999999858
-1.4353569746017456,-2.021420478820801,-4.166350364685059,2.7399999999999856
-0.7870794534683228,-0.13798141479492188,-5.377845287322998,2.7499999999999853
-0.7993524074554443,2.320561408996582,-6.1005144119262695,2.759999999999985
-0.9937171936035156,4.397449970245361,-7.283592700958252,2.769999999999985
-0.7294903993606567,5.763216018676758,-6.4395246505737305,2.7799999999999847
0.6887759566307068,6.081756591796875,-2.359358787536621,2.7899999999999845
2.264854669570923,5.349427223205566,-0.6633763313293457,2.7999999999999843
3.144958734512329,3.8595285415649414,-0.6000509262084961,2.809999999999984
2.477034330368042,2.3635330200195312,-1.9893667697906494,2.819999999999984
1.407350778579712,0.8581523895263672,-2.365755796432495,2.8299999999999836
0.8500797152519226,-0.3074312210083008,-2.3796887397766113,2.8399999999999834
0.47100305557250977,-1.2424993515014648,-2.807708263397217,2.849999999999983
0.44736289978027344,-1.9704780578613281,-3.4302148818969727,2.859999999999983
0.39203405380249023,-2.7513427734375,-3.76922345161438,2.869999999999983
0.32952022552490234,-3.3239059448242188,-3.5867419242858887,2.8799999999999826
0.3310633897781372,-3.866396427154541,-3.585841417312622,2.8899999999999824
0.5435431003570557,-3.9816904067993164,-3.640967607498169,2.899999999999982
0.9919016361236572,-3.6916513442993164,-3.590200185775757,2.909999999999982
1.3995625972747803,-3.198714256286621,-3.2072486877441406,2.9199999999999817
1.6768313646316528,-2.293196201324463,-2.490975856781006,2.9299999999999815
1.7756462097167969,-1.4773073196411133,-1.752645492553711,2.9399999999999813
1.8742982149124146,-0.686121940612793,-1.2821900844573975,2.949999999999981
1.9961189031600952,-0.3393878936767578,-1.2191410064697266,2.959999999999981
2.1355557441711426,-0.08766460418701172,-1.207480549812317,2.9699999999999807
2.177480697631836,0.03069305419921875,-1.1534844636917114,2.9799999999999804
2.094764232635498,0.1553506851196289,-1.0192008018493652,2.9899999999999802
1.7525173425674438,0.09827423095703125,-0.5438656806945801,2.99999999999998
1.2388440370559692,-0.048110008239746094,-0.10208797454833984,3.00999999999998
0.8055682182312012,0.10274887084960938,0.15576887130737305,3.0199999999999796
1.0680464506149292,0.6942911148071289,0.5609002113342285,3.0299999999999794
1.5125174522399902,1.509242057800293,0.8096489906311035,3.039999999999979
1.799858570098877,2.395785331726074,0.5531322956085205,3.049999999999979
2.053133726119995,2.8452987670898438,-0.31912946701049805,3.0599999999999787
2.4648525714874268,2.984311103820801,-1.4145429134368896,3.0699999999999785
3.0782909393310547,2.798975944519043,-1.8088593482971191,3.0799999999999783
3.7794137001037598,2.5095901489257812,-1.6583406925201416,3.089999999999978
4.111578464508057,2.3980960845947266,-1.5547641515731812,3.099999999999978
4.206701755523682,2.5501041412353516,-1.6856074333190918,3.1099999999999777
3.8192319869995117,3.0299072265625,-2.3029441833496094,3.1199999999999775
2.2061309814453125,3.689009666442871,-3.00795841217041,3.1299999999999772
0.5830056667327881,3.814164161682129,-2.955336809158325,3.139999999999977
-0.15142607688903809,3.383408546447754,-0.1603531837463379,3.149999999999977
-0.10382771492004395,3.2425270080566406,-1.3736079931259155,3.1599999999999766
-0.21108436584472656,3.001572608947754,-2.9089770317077637,3.1699999999999764
-0.7944085597991943,3.2164134979248047,-2.780597448348999,3.179999999999976
-1.251838207244873,3.722026824951172,-1.749189019203186,3.189999999999976
-1.2732771635055542,4.660881042480469,-2.3622491359710693,3.1999999999999758
-0.9894047975540161,4.911016464233398,-3.5117437839508057,3.2099999999999755
-1.430397629737854,4.8655900955200195,-4.563495635986328,3.2199999999999753
-2.6630663871765137,4.915262222290039,-4.809301376342773,3.229999999999975
-4.800762176513672,5.1160430908203125,-2.6034693717956543,3.239999999999975
-4.52147912979126,5.273737907409668,-2.1817941665649414,3.2499999999999747
-3.509927749633789,5.196723937988281,-1.9275565147399902,3.2599999999999745
-2.691713809967041,4.953374862670898,-0.7813107967376709,3.2699999999999743
-2.3843259811401367,4.450870513916016,-0.3622443675994873,3.279999999999974
-2.443215847015381,4.536602973937988,-0.5463001728057861,3.289999999999974
-1.694031834602356,1.7421112060546875,-1.1416983604431152,3.2999999999999736
-1.513911247253418,0.5366001129150391,-1.597151279449463,3.3099999999999734
-1.1848479509353638,-0.490572452545166,-2.3725690841674805,3.319999999999973
-0.6927950382232666,-1.612764835357666,-3.0180904865264893,3.329999999999973
-0.5646709203720093,-2.3495612144470215,-3.466024398803711,3.3399999999999728
-0.37225550413131714,-2.8528647422790527,-3.8592207431793213,3.3499999999999726
0.12104162573814392,-3.4184718132019043,-4.497892379760742,3.3599999999999723
0.4612378180027008,-3.543729782104492,-4.6815338134765625,3.369999999999972
0.43360191583633423,-3.4731521606445312,-4.782229423522949,3.379999999999972
0.7008860111236572,-3.512856960296631,-3.9794998168945312,3.3899999999999717
0.5436553359031677,-3.537996292114258,-4.20986270904541,3.3999999999999715
0.1559237539768219,-3.448246955871582,-3.8252646923065186,3.4099999999999713
-0.16991108655929565,-3.3210678100585938,-3.529057025909424,3.419999999999971
-0.6709538102149963,-3.160339832305908,-3.3093481063842773,3.429999999999971
-0.8261603713035583,-3.362053394317627,-2.8870458602905273,3.4399999999999706
-0.8577072024345398,-3.6933541297912598,-2.649996519088745,3.4499999999999704
-0.3106384873390198,-3.228470802307129,-1.9763679504394531,3.45999999999997
0.7537394165992737,-3.160022258758545,-2.01664400100708,3.46999999999997
1.38218355178833,-4.892285346984863,-2.7233026027679443,3.47999999999997
0.8792425394058228,-5.68295955657959,-2.156071901321411,3.4899999999999696
0.37714606523513794,-4.5976152420043945,-0.8047657012939453,3.4999999999999694
0.7027296423912048,-2.6893739700317383,-0.9378242492675781,3.509999999999969
1.0505003929138184,-1.0730280876159668,-0.8783674240112305,3.519999999999969
0.9850512742996216,1.8372631072998047,0.6166496276855469,3.5299999999999687
1.3585988283157349,4.547052383422852,2.544793128967285,3.5399999999999685
1.8449665307998657,7.213011741638184,4.342936038970947,3.5499999999999683
2.1749768257141113,8.514695167541504,2.5791730880737305,3.559999999999968
1.9402146339416504,6.70419979095459,2.6050872802734375,3.569999999999968
1.480907917022705,4.452777862548828,3.3503127098083496,3.5799999999999677
1.3225247859954834,2.133380889892578,3.433239459991455,3.5899999999999674
1.1737298965454102,1.3070602416992188,1.9593653678894043,3.5999999999999672
1.0443081855773926,1.5162324905395508,1.0501670837402344,3.609999999999967
0.9597010612487793,2.127946376800537,0.3840203285217285,3.619999999999967
0.5610787272453308,3.2829627990722656,-0.11951732635498047,3.6299999999999666
-0.31475067138671875,4.198889255523682,-1.5318307876586914,3.6399999999999664
-1.594622254371643,4.897075653076172,-3.3868489265441895,3.649999999999966
-3.1676323413848877,4.871661186218262,-4.323160648345947,3.659999999999966
-5.171362400054932,4.412883281707764,-5.582918643951416,3.6699999999999657
-7.203407287597656,3.931631565093994,-5.5831780433654785,3.6799999999999655
-9.42434024810791,2.2052383422851562,-3.2407894134521484,3.6899999999999653
-8.577457427978516,0.501162052154541,-2.4343185424804688,3.699999999999965
-4.897173881530762,-0.5169482231140137,-2.397789716720581,3.709999999999965
-3.3562138080596924,-0.7847495079040527,-3.3951256275177,3.7199999999999647
-2.4227681159973145,-0.19840049743652344,-3.6410598754882812,3.7299999999999645
-1.6712327003479004,0.9697046279907227,-4.420114517211914,3.7399999999999642
-0.863842248916626,2.097625255584717,-6.272561073303223,3.749999999999964
0.03946101665496826,2.7154641151428223,-6.236738204956055,3.759999999999964
0.9044726490974426,3.0107364654541016,-6.047000408172607,3.7699999999999636
1.7164254188537598,2.9314770698547363,-5.512866973876953,3.7799999999999634
2.4774422645568848,2.4787940979003906,-4.581507205963135,3.789999999999963
3.3557071685791016,2.1773452758789062,-2.1211962699890137,3.799999999999963
3.2988619804382324,1.775827407836914,-2.191370964050293,3.8099999999999627
2.1061830520629883,1.1601381301879883,-2.867382526397705,3.8199999999999625
1.1013590097427368,0.1505870819091797,-2.8346142768859863,3.8299999999999623
0.48718875646591187,-0.5480775833129883,-2.3590543270111084,3.839999999999962
0.14007019996643066,-1.1468968391418457,-2.4597315788269043,3.849999999999962
-0.14976608753204346,-1.7915630340576172,-3.1830601692199707,3.8599999999999617
-0.3114548921585083,-2.567049980163574,-3.5994629859924316,3.8699999999999615
-0.07900309562683105,-3.1675057411193848,-3.297208786010742,3.8799999999999613
0.18012464046478271,-3.6297216415405273,-3.268481969833374,3.889999999999961
0.49218273162841797,-3.813314437866211,-3.4820663928985596,3.899999999999961
0.7734453678131104,-3.517683982849121,-3.353156089782715,3.9099999999999606
1.1337181329727173,-2.8465614318847656,-2.698207139968872,3.9199999999999604
1.6635212898254395,-1.5645174980163574,-1.0608994960784912,3.92999999999996
1.7019059658050537,-0.9235305786132812,-0.6743061542510986,3.93999999999996
1.5956251621246338,-0.18818283081054688,-1.0810506343841553,3.9499999999999598
1.6080151796340942,0.26918792724609375,-0.8380534648895264,3.9599999999999596
1.6753690242767334,0.345733642578125,-0.7726294994354248,3.9699999999999593
1.8264554738998413,0.20285797119140625,-0.664435625076294,3.979999999999959
2.0068492889404297,0.019806861877441406,-0.3831498622894287,3.989999999999959
2.2200586795806885,-0.13328933715820312,0.03072524070739746,3.9999999999999587
2.295818328857422,-0.35091114044189453,0.1544034481048584,4.009999999999959
2.294661283493042,-0.5723390579223633,0.12695717811584473,4.019999999999959
2.3564095497131348,-0.23923206329345703,0.15219902992248535,4.0299999999999585
2.36594557762146,0.6406431198120117,0.20705246925354004,4.039999999999958
2.072563409805298,1.7768030166625977,0.10560011863708496,4.049999999999958
1.8027517795562744,2.4790849685668945,-0.12759017944335938,4.059999999999958
1.8969309329986572,2.8815040588378906,-0.6812452077865601,4.069999999999958
2.34421968460083,2.962948799133301,-1.016361951828003,4.079999999999957
2.8678789138793945,2.876523017883301,-1.006263256072998,4.089999999999957
3.361485242843628,2.7034034729003906,-0.6549218893051147,4.099999999999957
3.4846444129943848,2.5601205825805664,-0.8768085241317749,4.109999999999957
3.3435182571411133,2.915266990661621,-1.2401703596115112,4.119999999999957
2.1963930130004883,3.7404375076293945,-1.9243289232254028,4.129999999999956
0.5338752269744873,4.193540573120117,-2.4829726219177246,4.139999999999956
-0.2927858829498291,3.754706382751465,-2.5358004570007324,4.149999999999956
-1.083780288696289,3.0839452743530273,-0.19396913051605225,4.159999999999956
-2.020291566848755,2.6034622192382812,-1.2776373624801636,4.1699999999999555
-2.115419864654541,2.5230207443237305,-2.561781644821167,4.179999999999955
-1.8861863613128662,2.554056167602539,-2.2510995864868164,4.189999999999955
-1.135435938835144,2.9655847549438477,-2.021087169647217,4.199999999999955
-0.18932509422302246,3.576192855834961,-2.87406325340271,4.209999999999955
0.04747748374938965,4.444228172302246,-3.7368996143341064,4.2199999999999545
-0.6428924798965454,5.080504417419434,-4.7377753257751465,4.229999999999954
-1.7087329626083374,5.573219299316406,-4.016091823577881,4.239999999999954
-2.8451128005981445,5.722368240356445,-2.146393299102783,4.249999999999954
-3.0536952018737793,6.0816240310668945,-1.694490671157837,4.259999999999954
-2.3711185455322266,6.124004364013672,-0.9756126403808594,4.269999999999953
-1.9930189847946167,5.393077850341797,-0.23187541961669922,4.279999999999953
-1.5760163068771362,3.6437864303588867,-0.02617359161376953,4.289999999999953
-1.5233162641525269,2.202444076538086,-0.44673967361450195,4.299999999999953
-1.539147138595581,0.8741111755371094,-1.403313398361206,4.3099999999999525
-1.5062530040740967,-0.3517732620239258,-1.8800044059753418,4.319999999999952
-1.3685410022735596,-1.5149178504943848,-2.6314191818237305,4.329999999999952
-1.2217719554901123,-2.556122303009033,-3.072803258895874,4.339999999999952
-1.2143539190292358,-2.825706958770752,-3.3911144733428955,4.349999999999952
-0.9283565282821655,-3.163815498352051,-3.8975353240966797,4.3599999999999515
-0.4829453229904175,-3.8566927909851074,-4.8787713050842285,4.369999999999951
-0.1475784182548523,-4.004751205444336,-5.002044200897217,4.379999999999951
-0.03788080811500549,-3.673647880554199,-4.979459762573242,4.389999999999951
0.13242870569229126,-3.6276416778564453,-4.844461441040039,4.399999999999951
0.1832389235496521,-3.76016902923584,-4.722071647644043,4.40999999999995
-0.08941683173179626,-3.633882999420166,-3.4940927028656006,4.41999999999995
-0.2707434296607971,-3.06143856048584,-2.9726550579071045,4.42999999999995
-0.21559453010559082,-3.292485237121582,-3.132288932800293,4.43999999999995
0.40519553422927856,-2.685065269470215,-2.465545654296875,4.4499999999999496
1.0642108917236328,-4.388861179351807,-3.3292460441589355,4.459999999999949
0.7895116806030273,-5.819729804992676,-3.1603102684020996,4.469999999999949
0.1785920262336731,-6.409127235412598,-2.6847305297851562,4.479999999999949
-0.7729032039642334,-5.742773056030273,-1.3330159187316895,4.489999999999949
0.06748020648956299,-4.044948101043701,-0.36509037017822266,4.4999999999999485
0.7877817153930664,-2.108977794647217,-0.22295236587524414,4.509999999999948
0.8700054883956909,0.38153648376464844,0.30333518981933594,4.519999999999948
0.6280395984649658,4.296930313110352,3.3201441764831543,4.529999999999948
1.6971869468688965,5.71710205078125,3.8808112144470215,4.539999999999948
2.635470390319824,6.7960710525512695,3.118628978729248,4.549999999999947
2.725637912750244,6.975071907043457,2.8934803009033203,4.559999999999947
2.641563892364502,5.288904190063477,2.2156195640563965,4.569999999999947
2.374755859375,2.7198266983032227,2.748018741607666,4.579999999999947
2.1632161140441895,0.8134546279907227,2.554645538330078,4.589999999999947
1.9555888175964355,0.574671745300293,1.3616647720336914,4.599999999999946
1.514174222946167,1.5062284469604492,0.5181136131286621,4.609999999999946
1.3210608959197998,2.928187370300293,0.6784214973449707,4.619999999999946
0.7603379487991333,4.225574493408203,-0.17677068710327148,4.629999999999946
-0.36639654636383057,5.1410932540893555,-2.340421438217163,4.6399999999999455
-1.593701720237732,5.585263252258301,-4.351981163024902,4.649999999999945
-3.288097858428955,5.190799713134766,-6.207076072692871,4.659999999999945
-5.433488845825195,4.285788536071777,-6.902085781097412,4.669999999999945
-9.315321922302246,2.78023624420166,-4.6488566398620605,4.679999999999945
-10.91032600402832,0.30242156982421875,-1.4665031433105469,4.689999999999944
-9.130069732666016,-0.8007521629333496,-1.4041776657104492,4.699999999999944
-4.4483819007873535,-1.3577923774719238,-2.7264199256896973,4.709999999999944
-3.081723213195801,-0.5371227264404297,-3.4261064529418945,4.719999999999944
-2.198551654815674,1.1404070854187012,-3.4862725734710693,4.729999999999944
-1.434713363647461,3.076343059539795,-4.450578689575195,4.739999999999943
-0.5356826782226562,4.205238342285156,-5.663731575012207,4.749999999999943
0.6849485635757446,4.706146240234375,-5.5312018394470215,4.759999999999943
1.562403678894043,4.916993618011475,-4.759470462799072,4.769999999999943
2.3443939685821533,4.300625324249268,-3.9913735389709473,4.7799999999999425
3.119628429412842,3.1945981979370117,-1.970508337020874,4.789999999999942
3.008100986480713,2.3693227767944336,-1.9234700202941895,4.799999999999942
1.9101593494415283,1.2647466659545898,-3.1877670288085938,4.809999999999942
1.0634461641311646,0.07420635223388672,-3.185382843017578,4.819999999999942
0.6397488117218018,-1.0311450958251953,-2.4671261310577393,4.8299999999999415
0.2567046880722046,-1.5467453002929688,-2.280799627304077,4.839999999999941
-0.08534073829650879,-2.1065845489501953,-2.7833786010742188,4.849999999999941
-0.21745741367340088,-2.706596851348877,-3.235304355621338,4.859999999999941
0.23293203115463257,-3.3205084800720215,-4.264061450958252,4.869999999999941
-0.00499880313873291,-3.714768409729004,-3.005767345428467,4.87999999999994
0.1271665096282959,-3.8908557891845703,-2.2983808517456055,4.88999999999994
0.4489620327949524,-3.6433491706848145,-2.267444133758545,4.89999999999994
0.9095916748046875,-3.101168632507324,-2.3684744834899902,4.90999999999994
1.4615092277526855,-2.337747573852539,-1.9995819330215454,4.9199999999999395
1.7483561038970947,-1.5630879402160645,-1.2453112602233887,4.929999999999939
1.7820357084274292,-0.9763879776000977,-1.5009409189224243,4.939999999999939
1.7053760290145874,-0.39016056060791016,-1.6109049320220947,4.949999999999939
1.7179598808288574,-0.1075582504272461,-1.2214986085891724,4.959999999999939
1.5884625911712646,-0.07246112823486328,-0.8457262516021729,4.9699999999999385
1.5044234991073608,-0.23817157745361328,-0.5110552310943604,4.979999999999938
1.500400185585022,-0.40355968475341797,-0.08232426643371582,4.989999999999938
1.5528568029403687,-0.4267702102661133,0.2728757858276367,4.999999999999938
1.678619146347046,-0.35222339630126953,0.5856244564056396,5.009999999999938
1.8194174766540527,-0.1887979507446289,0.6590087413787842,5.019999999999937
2.1942296028137207,0.2935142517089844,0.319277286529541,5.029999999999937
2.464811325073242,1.0945243835449219,-0.0665128231048584,5.039999999999937
2.548156499862671,1.9243354797363281,-0.4695394039154053,5.049999999999937
2.5788516998291016,2.4426488876342773,-0.8958652019500732,5.0599999999999365
2.7020978927612305,2.752335548400879,-1.3055168390274048,5.069999999999936
3.007301092147827,2.7676782608032227,-1.4255328178405762,5.079999999999936
3.2838501930236816,2.790435791015625,-1.2024585008621216,5.089999999999936
3.3655056953430176,2.8128747940063477,-0.7340565919876099,5.099999999999936
3.2876169681549072,2.6971216201782227,-0.489105224609375,5.1099999999999355
2.7221806049346924,2.8494834899902344,-0.4507169723510742,5.119999999999935
0.9344611167907715,3.3922624588012695,-0.7068225145339966,5.129999999999935
0.0615534782409668,3.403972625732422,-1.0643105506896973,5.139999999999935
-0.0015933513641357422,3.2024946212768555,-2.2004473209381104,5.149999999999935
0.15682220458984375,2.5730419158935547,-1.514804482460022,5.159999999999934
-0.08625650405883789,2.0045089721679688,-0.9794334173202515,5.169999999999934
-0.06249833106994629,1.7360477447509766,-2.384821653366089,5.179999999999934
-0.12835299968719482,2.0332555770874023,-3.124685764312744,5.189999999999934
-0.5093556642532349,2.7655038833618164,-2.7345306873321533,5.199999999999934
-0.22787654399871826,3.3834915161132812,-3.6297640800476074,5.209999999999933
-0.31610727310180664,4.141264915466309,-3.753527879714966,5.219999999999933
-0.41654300689697266,4.193506240844727,-3.9639270305633545,5.229999999999933
-2.010180950164795,4.869312286376953,-3.3284668922424316,5.239999999999933
-3.6736912727355957,5.29377555847168,-2.016280174255371,5.2499999999999325
-4.449910640716553,5.806049346923828,-1.5712535381317139,5.259999999999932
-3.864877223968506,5.811657905578613,-0.7940049171447754,5.269999999999932
-3.100639581680298,5.256991386413574,0.47297048568725586,5.279999999999932
-2.9274673461914062,3.9256391525268555,0.8468413352966309,5.289999999999932
-2.5849802494049072,2.408010482788086,0.5388116836547852,5.299999999999931
-2.34277081489563,0.44918346405029297,-0.854423999786377,5.309999999999931
-1.850804328918457,-0.7502460479736328,-1.9939665794372559,5.319999999999931
-1.2844679355621338,-1.7963886260986328,-2.8517754077911377,5.329999999999931
-0.7704712152481079,-2.7285962104797363,-3.493135929107666,5.339999999999931
-0.3756263256072998,-3.040925979614258,-3.8821215629577637,5.34999999999993
0.21815218031406403,-3.6195907592773438,-4.038959503173828,5.35999999999993
0.47424638271331787,-3.63455867767334,-3.860764503479004,5.36999999999993
0.7011181116104126,-3.6450319290161133,-4.128528594970703,5.37999999999993
1.3475115299224854,-3.786398410797119,-4.045099258422852,5.3899999999999295
1.2676546573638916,-3.3313865661621094,-4.386867523193359,5.399999999999929
0.7850742340087891,-3.0577731132507324,-4.152008056640625,5.409999999999929
0.2708553075790405,-2.9728713035583496,-4.01682186126709,5.419999999999929
-0.1717192828655243,-3.1823410987854004,-2.8729960918426514,5.429999999999929
-0.365152508020401,-3.53861665725708,-2.3229713439941406,5.4399999999999284
-0.6398926377296448,-3.588228702545166,-2.3882522583007812,5.449999999999928
-0.6728717684745789,-3.6119766235351562,-2.4207308292388916,5.459999999999928
-0.5574756264686584,-3.3970417976379395,-2.3795318603515625,5.469999999999928
-0.3604823350906372,-3.8022379875183105,-2.646113634109497,5.479999999999928
-0.3033534288406372,-3.923086166381836,-1.599879264831543,5.489999999999927
-0.5318971872329712,-3.5193748474121094,-0.23608684539794922,5.499999999999927
0.22763127088546753,-1.8608574867248535,0.6103143692016602,5.509999999999927
0.7761639356613159,0.5601110458374023,0.8340063095092773,5.519999999999927
1.150281310081482,3.516939163208008,2.177907943725586,5.5299999999999265
2.2434892654418945,5.0727739334106445,2.7713284492492676,5.539999999999926
2.539907693862915,5.562752723693848,2.137552261352539,5.549999999999926
2.6892523765563965,5.371935844421387,2.7434816360473633,5.559999999999926
2.7056751251220703,4.26655387878418,1.670365810394287,5.569999999999926
2.4896764755249023,2.606599807739258,2.0415148735046387,5.5799999999999255
2.3533434867858887,1.305516242980957,2.573392391204834,5.589999999999925
2.1557393074035645,0.5422286987304688,2.2589025497436523,5.599999999999925
1.8629496097564697,0.4378232955932617,1.195955753326416,5.609999999999925
1.3473122119903564,1.090683937072754,0.8047113418579102,5.619999999999925
0.7147825956344604,2.254807472229004,0.656064510345459,5.629999999999924
-0.29508984088897705,3.159907341003418,-0.18234777450561523,5.639999999999924
-1.3203760385513306,4.057717323303223,-2.4120607376098633,5.649999999999924
-2.554778575897217,4.714072227478027,-4.026943206787109,5.659999999999924
-4.780045032501221,5.0731658935546875,-5.753265380859375,5.6699999999999235
-7.763962745666504,5.568977355957031,-5.468537330627441,5.679999999999923
-10.197646141052246,4.234963417053223,-3.03291916847229,5.689999999999923
-9.948066711425781,1.693253993988037,-1.804215908050537,5.699999999999923
-6.258307933807373,-0.4290008544921875,-2.4243462085723877,5.709999999999923
-3.4198806285858154,-1.0492610931396484,-2.812243938446045,5.7199999999999225
-2.138716697692871,-0.592216968536377,-3.3880722522735596,5.729999999999922
-1.4844906330108643,0.9917559623718262,-3.7160842418670654,5.739999999999922
-0.7487181425094604,2.5733466148376465,-4.620636940002441,5.749999999999922
0.3979226350784302,3.562039852142334,-5.5750908851623535,5.759999999999922
1.5245214700698853,4.119572162628174,-5.002485752105713,5.769999999999921
2.2232320308685303,4.053579330444336,-4.398564338684082,5.779999999999921
2.427964687347412,3.2498741149902344,-3.6924381256103516,5.789999999999921
2.6529767513275146,2.6975650787353516,-2.8047449588775635,5.799999999999921
2.37614107131958,2.0269651412963867,-2.653172731399536,5.809999999999921
1.7563233375549316,1.3737602233886719,-2.7263991832733154,5.81999999999992
0.8894235491752625,0.4493703842163086,-2.522948980331421,5.82999999999992
0.41226160526275635,-0.5370149612426758,-1.577958583831787,5.83999999999992
0.08814752101898193,-1.3157987594604492,-1.6063446998596191,5.84999999999992
-0.08357250690460205,-1.6256694793701172,-2.2122888565063477,5.8599999999999195
-0.11853563785552979,-2.1170334815979004,-2.9676918983459473,5.869999999999919
0.05594456195831299,-2.668412685394287,-3.4227800369262695,5.879999999999919
0.2585630416870117,-3.140932083129883,-3.668212413787842,5.889999999999919
0.21375226974487305,-3.3245644569396973,-3.063750743865967,5.899999999999919
0.46299630403518677,-3.2641077041625977,-2.5645320415496826,5.909999999999918
0.8683541417121887,-2.9107589721679688,-2.4262866973876953,5.919999999999918
1.209149718284607,-2.242891788482666,-2.1285266876220703,5.929999999999918
1.4727450609207153,-1.5310320854187012,-1.5232776403427124,5.939999999999918
1.5126969814300537,-0.8682212829589844,-1.0307915210723877,5.949999999999918
1.4691073894500732,-0.42511940002441406,-0.8013322353363037,5.959999999999917
1.471778392791748,-0.11513614654541016,-0.5939650535583496,5.969999999999917
1.52705979347229,-0.13813495635986328,-0.48919129371643066,5.979999999999917
1.6477254629135132,-0.016371726989746094,-0.5617916584014893,5.989999999999917
1.7627826929092407,-0.05663871765136719,-0.46112775802612305,5.9999999999999165
2.0386407375335693,-0.22745990753173828,-0.2695956230163574,6.009999999999916
2.291119337081909,-0.28441429138183594,-0.038474082946777344,6.019999999999916
2.4976935386657715,-0.3228034973144531,0.18044710159301758,6.029999999999916
2.5028235912323,-0.2611236572265625,0.24222326278686523,6.039999999999916
2.4121344089508057,-0.23845958709716797,0.17590832710266113,6.0499999999999154
2.3414554595947266,-0.05145549774169922,-0.13181698322296143,6.059999999999915
2.4120848178863525,0.17061519622802734,-0.6577973365783691,6.069999999999915
2.4554033279418945,0.6364555358886719,-1.0721479654312134,6.079999999999915
2.2176077365875244,1.4163789749145508,-0.9989155530929565,6.089999999999915
2.0797886848449707,1.8976688385009766,-0.999906599521637,6.099999999999914
2.212031364440918,1.9353246688842773,-1.5123929977416992,6.109999999999914
2.3545310497283936,1.7314586639404297,-2.0002059936523438,6.119999999999914
2.273291826248169,1.3560161590576172,-1.9642369747161865,6.129999999999914
2.154602527618408,1.1348152160644531,-1.0050585269927979,6.1399999999999135
1.4451775550842285,1.5872831344604492,0.23736917972564697,6.149999999999913
0.3166956901550293,2.8187007904052734,0.4904158115386963,6.159999999999913
-0.28656482696533203,4.103404998779297,0.14915215969085693,6.169999999999913
-0.5731875896453857,4.856574058532715,-0.5654299259185791,6.179999999999913
-0.13762402534484863,4.483781814575195,-0.48638761043548584,6.1899999999999125
0.6121566295623779,4.128227233886719,-2.647524356842041,6.199999999999912
0.9531009197235107,3.796168327331543,-3.670706272125244,6.209999999999912
1.1264662742614746,3.7764196395874023,-3.0901267528533936,6.219999999999912
0.7972167730331421,4.094969749450684,-3.2084898948669434,6.229999999999912
0.03563523292541504,4.485980033874512,-3.627078056335449,6.239999999999911
-0.5891618728637695,4.673349380493164,-3.063769578933716,6.249999999999911
-1.0924909114837646,4.3538055419921875,-2.9477014541625977,6.259999999999911
-2.1778345108032227,4.232949256896973,-2.7410643100738525,6.269999999999911
-3.1497585773468018,4.4063615798950195,-1.9920973777770996,6.2799999999999105
-4.169742584228516,4.497875213623047,-1.492480993270874,6.28999999999991
-4.0924201011657715,4.202363967895508,-1.8488672971725464,6.29999999999991
-2.731260299682617,3.6157588958740234,-2.01116943359375,6.30999999999991
-2.000182628631592,2.831096649169922,-0.9590106010437012,6.31999999999991
-1.8705676794052124,1.4910736083984375,-0.8081774711608887,6.3299999999999095
-1.9529083967208862,0.7115745544433594,-1.0646700859069824,6.339999999999909
-2.2014384269714355,-0.4124917984008789,-1.8601455688476562,6.349999999999909
-1.943793535232544,-1.3276615142822266,-2.0531067848205566,6.359999999999909
-1.4554157257080078,-1.6419486999511719,-1.797105073928833,6.369999999999909
-1.021435022354126,-2.0443520545959473,-2.446113348007202,6.379999999999908
-0.5564665198326111,-2.2298803329467773,-2.9225282669067383,6.389999999999908
-0.48793256282806396,-2.2736458778381348,-3.296907424926758,6.399999999999908
-0.400390625,-1.8282065391540527,-3.3417530059814453,6.409999999999908
-0.2412843108177185,-1.800947666168213,-3.6557559967041016,6.419999999999908
-0.2585887312889099,-1.7572712898254395,-3.323279857635498,6.429999999999907
0.03195136785507202,-1.915555477142334,-2.480889081954956,6.439999999999907
0.5673794150352478,-2.6829423904418945,-2.9101486206054688,6.449999999999907
0.536027193069458,-3.0102601051330566,-2.8320107460021973,6.459999999999907
0.20467475056648254,-3.317117214202881,-2.9354777336120605,6.4699999999999065
0.01851940155029297,-3.4720191955566406,-3.674342393875122,6.479999999999906
-0.11562329530715942,-3.662548065185547,-4.123166084289551,6.489999999999906
0.12918466329574585,-4.0068359375,-3.8754186630249023,6.499999999999906
0.23479300737380981,-4.3569841384887695,-3.368635892868042,6.509999999999906
0.2784501314163208,-4.288023948669434,-2.697054147720337,6.519999999999905
0.025072455406188965,-4.222200393676758,-2.049523115158081,6.529999999999905
-0.37350594997406006,-3.695779800415039,-0.9911842346191406,6.539999999999905
-0.15072762966156006,-3.1532158851623535,-0.5508942604064941,6.549999999999905
0.19972383975982666,-2.3617563247680664,-0.09781360626220703,6.559999999999905
0.4653446078300476,-1.2455716133117676,-0.3221473693847656,6.569999999999904
0.5356644988059998,0.3043966293334961,0.013249874114990234,6.579999999999904
0.6537556648254395,3.0663576126098633,2.441531181335449,6.589999999999904
1.4210398197174072,5.300555229187012,3.1862549781799316,6.599999999999904
2.78369140625,6.671355247497559,3.335752487182617,6.6099999999999035
3.3774352073669434,6.462082862854004,2.730090618133545,6.619999999999903
3.003415822982788,4.438663482666016,3.085960865020752,6.629999999999903
2.789003372192383,2.36346435546875,3.2780041694641113,6.639999999999903
2.389291763305664,0.8188076019287109,2.3410120010375977,6.649999999999903
2.505699634552002,-0.10912799835205078,0.6456680297851562,6.659999999999902
2.429220199584961,-0.4444756507873535,-0.9097614288330078,6.669999999999902
1.3802769184112549,0.2293405532836914,-1.4762670993804932,6.679999999999902
0.025482654571533203,1.7571659088134766,-1.8707849979400635,6.689999999999902
-0.601830244064331,2.8458900451660156,-2.8117055892944336,6.699999999999902
-2.609220504760742,4.328957557678223,-3.653502941131592,6.709999999999901
-5.591314792633057,6.086397171020508,-3.5609793663024902,6.719999999999901
-8.919793128967285,7.697187423706055,-1.3632256984710693,6.729999999999901
-10.252132415771484,6.7000837326049805,2.186279773712158,6.739999999999901
-5.991312026977539,2.446014404296875,0.0057849884033203125,6.7499999999999005
-3.78579044342041,0.14762306213378906,-1.9549689292907715,6.7599999999999
-2.0362095832824707,-0.9008407592773438,-3.734008550643921,6.7699999999999
-1.3420857191085815,-0.5456023216247559,-5.101454734802246,6.7799999999999
-0.7340672016143799,0.38703012466430664,-5.762815952301025,6.7899999999999
-0.2748757600784302,1.2760248184204102,-6.472825527191162,6.7999999999998995
-0.28234565258026123,1.252140998840332,-6.439657211303711,6.809999999999899
1.2547624111175537,2.535451889038086,-4.274572372436523,6.819999999999899
1.4508692026138306,2.55374813079834,-3.58305025100708,6.829999999999899
1.1869370937347412,2.4435806274414062,-3.6037850379943848,6.839999999999899
1.2438628673553467,1.7683467864990234,-3.477344512939453,6.849999999999898
1.5346683263778687,1.2763891220092773,-2.9741766452789307,6.859999999999898
1.6550095081329346,0.9213752746582031,-2.574167490005493,6.869999999999898
1.278092384338379,0.47996997833251953,-2.128777027130127,6.879999999999898
0.7851026654243469,-0.121978759765625,-1.8154191970825195,6.8899999999998975
0.41063934564590454,-0.4246711730957031,-2.5057249069213867,6.899999999999897
0.14764463901519775,-0.712773323059082,-3.015063762664795,6.909999999999897
0.014990091323852539,-0.9639725685119629,-3.10149884223938,6.919999999999897
-0.06174933910369873,-1.4709148406982422,-3.22822642326355,6.929999999999897
-0.12913131713867188,-1.8768434524536133,-3.4421801567077637,6.9399999999998965
-0.18620610237121582,-2.1418237686157227,-3.2720947265625,6.949999999999896
-0.11383748054504395,-2.1383323669433594,-2.7279696464538574,6.959999999999896
0.046504855155944824,-1.8035693168640137,-2.306654453277588,6.969999999999896
0.3846536874771118,-1.2957000732421875,-1.9645254611968994,6.979999999999896
0.7389307022094727,-0.7540702819824219,-1.7249658107757568,6.989999999999895
0.899402379989624,-0.36530303955078125,-1.6228057146072388,6.999999999999895
1.0978178977966309,-0.04042243957519531,-1.4908374547958374,7.009999999999895
1.3641750812530518,0.1864004135131836,-1.2794369459152222,7.019999999999895
1.611665964126587,0.37697887420654297,-0.878000020980835,7.0299999999998946
1.88431978225708,0.4374713897705078,-0.5915062427520752,7.039999999999894
2.1089465618133545,0.2738504409790039,-0.23086190223693848,7.049999999999894
2.1432416439056396,0.008191108703613281,0.06601643562316895,7.059999999999894
2.0184593200683594,-0.2973508834838867,0.11757755279541016,7.069999999999894
1.803069829940796,-0.46345996856689453,-0.27924418449401855,7.0799999999998935
1.7526003122329712,-0.4828052520751953,-0.789362907409668,7.089999999999893
1.7242366075515747,-0.27548885345458984,-1.2977895736694336,7.099999999999893
1.576310634613037,0.13286399841308594,-1.6430737972259521,7.109999999999893
1.4176440238952637,0.4170417785644531,-1.568371295928955,7.119999999999893
1.2965492010116577,0.7449636459350586,-1.1689807176589966,7.129999999999892
1.3544762134552002,0.8628377914428711,-0.5965317487716675,7.139999999999892
1.4017407894134521,1.062490463256836,-0.3921494483947754,7.149999999999892
1.3643487691879272,1.3290300369262695,-0.8077900409698486,7.159999999999892
1.39592707157135,1.5538444519042969,-1.5211665630340576,7.169999999999892
1.4673268795013428,1.6666040420532227,-1.7030069828033447,7.179999999999891
1.4622840881347656,1.889719009399414,-1.7869216203689575,7.189999999999891
1.228245735168457,2.355006217956543,-1.8155579566955566,7.199999999999891
0.9309520721435547,2.8814773559570312,-1.6002795696258545,7.209999999999891
0.5369867086410522,3.4965810775756836,-1.6375974416732788,7.2199999999998905
0.10859465599060059,3.887434959411621,-2.472590684890747,7.22999999999989
0.01749885082244873,3.8669166564941406,-3.1126608848571777,7.23999999999989
0.25765669345855713,3.5093297958374023,-1.449985384941101,7.24999999999989
0.21816802024841309,3.374713897705078,-1.4954330921173096,7.25999999999989
-0.2918128967285156,3.635003089904785,-2.6174674034118652,7.269999999999889
-1.122137188911438,3.5547924041748047,-2.6124675273895264,7.279999999999889
-1.8933874368667603,2.9757165908813477,-2.228639841079712,7.289999999999889
-2.199113607406616,2.5236053466796875,-2.1735339164733887,7.299999999999889
-2.7588837146759033,2.0796995162963867,-1.9326926469802856,7.309999999999889
-3.3077354431152344,1.460174560546875,-1.6319866180419922,7.319999999999888
-3.7113094329833984,1.4374256134033203,-1.5648012161254883,7.329999999999888
-3.286864757537842,1.5655860900878906,-1.5636138916015625,7.339999999999888
-2.561467170715332,1.9720306396484375,-1.8920135498046875,7.349999999999888
-1.7168610095977783,2.332186698913574,-2.047828435897827,7.3599999999998875
-0.9921509623527527,2.2230920791625977,-1.8586952686309814,7.369999999999887
-0.8460869789123535,1.6416864395141602,-1.9703905582427979,7.379999999999887
-0.917546808719635,0.8930263519287109,-2.184666872024536,7.389999999999887
-1.1405291557312012,0.0061168670654296875,-1.926084280014038,7.399999999999887
-1.263060212135315,-0.6943149566650391,-1.58992338180542,7.4099999999998865
-1.2940778732299805,-0.9122729301452637,-1.4713594913482666,7.419999999999886
-1.2583990097045898,-1.209242820739746,-2.1423988342285156,7.429999999999886
-1.1910209655761719,-1.2431964874267578,-2.6538021564483643,7.439999999999886
-1.262479543685913,-1.1934480667114258,-2.7331907749176025,7.449999999999886
-0.8475288152694702,-0.9272918701171875,-2.348571300506592,7.459999999999885
-0.5508006811141968,-1.2580852508544922,-2.580028772354126,7.469999999999885
-0.5587271451950073,-1.5550918579101562,-2.1583003997802734,7.479999999999885
-0.6839389801025391,-1.7699904441833496,-1.8898932933807373,7.489999999999885
-0.7880703210830688,-2.1206936836242676,-1.9859724044799805,7.4999999999998845
-0.8821682929992676,-2.282778263092041,-1.8744194507598877,7.509999999999884
-0.9113470315933228,-2.400692939758301,-1.870443344116211,7.519999999999884
-0.745785117149353,-2.237884998321533,-1.844270944595337,7.529999999999884
-0.5581448674201965,-2.002206802368164,-1.9879796504974365,7.539999999999884
-0.36217600107192993,-1.7438488006591797,-1.609464168548584,7.5499999999998835
-0.16614311933517456,-1.4138755798339844,-1.2867121696472168,7.559999999999883
-0.1173660159111023,-1.1801204681396484,-1.0715274810791016,7.569999999999883
0.04684832692146301,-1.0622692108154297,-0.8904719352722168,7.579999999999883
0.30872875452041626,-0.9037141799926758,-0.9092121124267578,7.589999999999883
0.38294753432273865,-0.9613637924194336,-0.8159809112548828,7.599999999999882
1.0281589031219482,-0.3824625015258789,-0.5384092330932617,7.609999999999882
1.1666901111602783,0.38266468048095703,-0.14670181274414062,7.619999999999882
1.3339403867721558,1.296158790588379,0.32242250442504883,7.629999999999882
1.4596753120422363,1.803304672241211,0.4696340560913086,7.6399999999998816
1.3728928565979004,1.8529176712036133,0.7504405975341797,7.649999999999881
1.3218727111816406,1.3828706741333008,0.21735906600952148,7.659999999999881
1.2007932662963867,0.7680950164794922,0.1791400909423828,7.669999999999881
1.32939612865448,0.2791719436645508,-0.33002138137817383,7.679999999999881
0.8149487972259521,0.4962587356567383,-0.9735231399536133,7.6899999999998805
0.8516647815704346,0.6382293701171875,-1.2130062580108643,7.69999999999988
0.7589749097824097,1.0268630981445312,-1.0597319602966309,7.70999999999988
0.7266433238983154,1.0317745208740234,-1.0705604553222656,7.71999999999988
0.45139890909194946,0.7051563262939453,-1.6401808261871338,7.72999999999988
0.4474142789840698,0.7128353118896484,-1.6535723209381104,7.739999999999879
-0.08538791537284851,-1.0113534927368164,-2.006209373474121,7.749999999999879
-1.3982653617858887,1.0168161392211914,-2.7516160011291504,7.759999999999879
-2.8070831298828125,2.8038768768310547,-2.90061092376709,7.769999999999879
-3.7599971294403076,4.080799102783203,-2.3600428104400635,7.779999999999879
-4.298337936401367,5.260524749755859,-1.0928802490234375,7.789999999999878
-4.476815223693848,5.74567985534668,0.4062814712524414,7.799999999999878
-3.9540646076202393,4.972347259521484,1.3867368698120117,7.809999999999878
-2.9627981185913086,3.091001510620117,1.2246723175048828,7.819999999999878
-1.924004077911377,1.2423067092895508,-0.5942473411560059,7.8299999999998775
-1.1644930839538574,0.41448974609375,-2.0564699172973633,7.839999999999877
-0.3337356448173523,-0.41910839080810547,-3.5820558071136475,7.849999999999877
0.6758279800415039,-0.787987232208252,-4.364562034606934,7.859999999999877
0.664308488368988,-0.7858405113220215,-4.369302749633789,7.869999999999877
2.0652616024017334,-0.1802682876586914,-5.192933559417725,7.879999999999876
1.775984525680542,0.6412172317504883,-4.837606906890869,7.889999999999876
1.5229153633117676,1.3184518814086914,-4.139589786529541,7.899999999999876
1.5672051906585693,1.282120704650879,-4.075736045837402,7.909999999999876
0.08674204349517822,1.918187141418457,-2.310699701309204,7.919999999999876
-0.6041931509971619,2.0165224075317383,-1.9600129127502441,7.929999999999875
-1.402890682220459,1.8868951797485352,-1.3275227546691895,7.939999999999875
-1.8993175029754639,1.6886262893676758,-1.094226360321045,7.949999999999875
-2.1028378009796143,1.6387414932250977,-1.0796089172363281,7.959999999999875
-2.307873010635376,1.396108627319336,-1.4144368171691895,7.9699999999998745
-2.3222360610961914,0.8731355667114258,-1.8311810493469238,7.979999999999874
-1.7734375,0.42269039154052734,-2.103869915008545,7.989999999999874
-1.2090812921524048,0.21665287017822266,-2.5187196731567383,7.999999999999874
