AccX,AccY,AccZ,SampleRate
-0.9878731966018677,5.649657726287842,-3.2833058834075928,0
-1.0830000638961792,4.501272678375244,-3.4325673580169678,0.01
-1.3144795894622803,3.3528552055358887,-3.767942190170288,0.02
-1.3453550338745117,2.500669002532959,-3.917541027069092,0.03
-1.0886906385421753,1.6868009567260742,-4.137638092041016,0.04
-0.8034285306930542,0.7956500053405762,-4.518978118896484,0.05
-0.40204548835754395,0.20374250411987305,-5.184745788574219,0.060000000000000005
-0.026343107223510742,-0.39687013626098633,-6.026349067687988,0.07
0.6554616689682007,-1.1078824996948242,-6.243480205535889,0.08
1.225081443786621,-1.2591137886047363,-6.0353569984436035,0.09
1.9506256580352783,-1.6121711730957031,-5.890627861022949,0.09999999999999999
2.173511505126953,-1.9313387870788574,-5.373546123504639,0.10999999999999999
2.051612377166748,-1.8257875442504883,-5.30470085144043,0.11999999999999998
1.8310613632202148,-1.6822409629821777,-5.4838972091674805,0.12999999999999998
1.451982021331787,-1.4229693412780762,-5.4031476974487305,0.13999999999999999
0.9638622999191284,-1.4225878715515137,-5.257268905639648,0.15
0.527951717376709,-1.5543007850646973,-4.62008810043335,0.16
0.39713698625564575,-1.6665606498718262,-3.8395423889160156,0.17
0.29205596446990967,-1.574162483215332,-3.3841991424560547,0.18000000000000002
0.517684817314148,-1.1590170860290527,-2.694883346557617,0.19000000000000003
1.2422760725021362,-0.5758767127990723,-2.303226947784424,0.20000000000000004
2.1612699031829834,-0.11498737335205078,-2.060178279876709,0.21000000000000005
3.206925868988037,0.6454243659973145,-1.8501715660095215,0.22000000000000006
3.9680981636047363,1.5811843872070312,-1.7896018028259277,0.23000000000000007
4.449198246002197,2.383758068084717,-1.9756693840026855,0.24000000000000007
4.7371625900268555,3.0565390586853027,-2.1181588172912598,0.25000000000000006
4.7910614013671875,3.646131992340088,-2.0189695358276367,0.26000000000000006
4.701241493225098,4.019099235534668,-1.6195292472839355,0.2700000000000001
4.525879859924316,4.519482135772705,-1.1553473472595215,0.2800000000000001
4.205983638763428,5.219674110412598,-0.6258926391601562,0.2900000000000001
3.753222942352295,5.971506595611572,-0.004550933837890625,0.3000000000000001
3.433124303817749,6.241386890411377,0.9465856552124023,0.3100000000000001
2.4938411712646484,5.232968807220459,1.321150302886963,0.3200000000000001
1.4407342672348022,4.020863056182861,0.509467601776123,0.3300000000000001
0.5171723365783691,3.3622779846191406,-0.16236066818237305,0.34000000000000014
0.027962088584899902,2.9882965087890625,-0.8567981719970703,0.35000000000000014
-0.533684492111206,3.2504239082336426,-2.400538444519043,0.36000000000000015
-1.2786226272583008,3.4155774116516113,-4.244009017944336,0.37000000000000016
-1.9204840660095215,3.4459915161132812,-4.722478866577148,0.38000000000000017
-1.929187297821045,3.9602255821228027,-5.922221660614014,0.3900000000000002
-1.734704613685608,5.1205339431762695,-8.131633758544922,0.4000000000000002
-1.5396841764450073,6.443923473358154,-8.355379104614258,0.4100000000000002
-2.952223777770996,7.200104713439941,-3.7315268516540527,0.4200000000000002
-3.1908974647521973,5.0683674812316895,-1.7803444862365723,0.4300000000000002
-1.2015142440795898,2.3911046981811523,-4.595797538757324,0.4400000000000002
-0.07302987575531006,1.1275420188903809,-6.920787811279297,0.45000000000000023
0.3413512706756592,0.6336908340454102,-7.049790382385254,0.46000000000000024
0.39936864376068115,0.9974584579467773,-6.515022277832031,0.47000000000000025
0.7061790227890015,1.909060001373291,-6.6299638748168945,0.48000000000000026
1.2524303197860718,2.463210105895996,-6.804125785827637,0.49000000000000027
1.6246323585510254,3.6837759017944336,-7.075052261352539,0.5000000000000002
1.8199527263641357,4.5853142738342285,-7.198343276977539,0.5100000000000002
2.023308038711548,5.584383487701416,-6.423544406890869,0.5200000000000002
2.19883131980896,6.502631187438965,-4.989984035491943,0.5300000000000002
2.58992600440979,6.898254871368408,-3.7051665782928467,0.5400000000000003
2.8937339782714844,6.200877666473389,-3.6382486820220947,0.5500000000000003
2.6229708194732666,4.317592620849609,-4.258578300476074,0.5600000000000003
1.929410457611084,3.13645076751709,-4.881160736083984,0.5700000000000003
1.518648624420166,1.857724666595459,-5.170517444610596,0.5800000000000003
1.2477378845214844,0.7244052886962891,-5.4471001625061035,0.5900000000000003
1.0900357961654663,-0.17901992797851562,-5.61644983291626,0.6000000000000003
1.0922821760177612,-1.0648021697998047,-5.897656440734863,0.6100000000000003
1.0488042831420898,-1.7135396003723145,-6.027060031890869,0.6200000000000003
1.0654679536819458,-1.9358224868774414,-6.01308012008667,0.6300000000000003
1.1714560985565186,-2.052987575531006,-6.160477161407471,0.6400000000000003
1.0508850812911987,-1.7042346000671387,-5.082794666290283,0.6500000000000004
1.0248863697052002,-1.3787822723388672,-4.327887535095215,0.6600000000000004
1.1376068592071533,-0.8899073600769043,-3.959376096725464,0.6700000000000004
1.3933982849121094,-0.3592386245727539,-3.8034725189208984,0.6800000000000004
1.739417552947998,0.09549379348754883,-3.673234462738037,0.6900000000000004
1.9162077903747559,0.6985011100769043,-3.3451595306396484,0.7000000000000004
2.1240930557250977,1.0091705322265625,-3.3209595680236816,0.7100000000000004
2.4831392765045166,1.253962516784668,-3.1418142318725586,0.7200000000000004
2.911299705505371,1.3017292022705078,-3.096357583999634,0.7300000000000004
3.1601767539978027,1.1955623626708984,-2.5713443756103516,0.7400000000000004
3.2070975303649902,1.1558399200439453,-2.4844255447387695,0.7500000000000004
3.3305721282958984,1.097320556640625,-1.2944283485412598,0.7600000000000005
3.264796733856201,1.2993993759155273,-1.7630648612976074,0.7700000000000005
3.0980935096740723,1.939748764038086,-2.3719661235809326,0.7800000000000005
2.9063215255737305,2.661696434020996,-2.3329269886016846,0.7900000000000005
2.621943950653076,3.3577747344970703,-1.829289436340332,0.8000000000000005
2.744732141494751,3.3640260696411133,-1.9955017566680908,0.8100000000000005
3.222918748855591,2.8836708068847656,-2.941375732421875,0.8200000000000005
3.763538360595703,2.6140575408935547,-3.466517210006714,0.8300000000000005
4.203001022338867,2.36385440826416,-3.821727991104126,0.8400000000000005
4.426088333129883,2.313351631164551,-3.744053840637207,0.8500000000000005
4.142709255218506,2.860921859741211,-4.298616886138916,0.8600000000000005
2.7316462993621826,4.220660209655762,-1.4454319477081299,0.8700000000000006
1.7313882112503052,5.010637283325195,-3.7904105186462402,0.8800000000000006
1.496804118156433,5.4552412033081055,-5.130186557769775,0.8900000000000006
0.949210524559021,5.637004852294922,-5.666286468505859,0.9000000000000006
-0.30028581619262695,5.515131950378418,-5.795830726623535,0.9100000000000006
-1.0140726566314697,5.298738479614258,-5.653194427490234,0.9200000000000006
-1.0340921878814697,5.586943626403809,-5.965550422668457,0.9300000000000006
0.032112836837768555,5.989751815795898,-7.596187591552734,0.9400000000000006
0.6995614767074585,6.559319496154785,-8.446945190429688,0.9500000000000006
0.6408236026763916,7.368313789367676,-8.928060531616211,0.9600000000000006
0.08993422985076904,8.127229690551758,-7.905372619628906,0.9700000000000006
-1.1715943813323975,8.449716567993164,-6.076712608337402,0.9800000000000006
-2.3719539642333984,9.060977935791016,-4.560368061065674,0.9900000000000007
-3.278229236602783,9.47081184387207,-2.5714035034179688,1.0000000000000007
-3.230008125305176,8.555088996887207,-2.070464611053467,1.0100000000000007
-2.3769521713256836,6.509688854217529,-2.981297254562378,1.0200000000000007
-1.9856178760528564,4.566016674041748,-3.3904900550842285,1.0300000000000007
-1.8139630556106567,2.307856559753418,-3.779602289199829,1.0400000000000007
-1.8885090351104736,0.8991117477416992,-4.155072212219238,1.0500000000000007
-1.8539551496505737,-0.11061573028564453,-4.5292158126831055,1.0600000000000007
-1.5819365978240967,-0.5764060020446777,-4.975161552429199,1.0700000000000007
-1.1023353338241577,-1.0208244323730469,-5.653159141540527,1.0800000000000007
-0.664201021194458,-1.3059515953063965,-5.979164123535156,1.0900000000000007
-0.15394914150238037,-1.2990446090698242,-6.110583782196045,1.1000000000000008
0.12161695957183838,-1.1883211135864258,-6.271268367767334,1.1100000000000008
0.2571752965450287,-0.8312029838562012,-6.202329635620117,1.1200000000000008
0.22729265689849854,-0.618687629699707,-5.751283168792725,1.1300000000000008
0.6937896013259888,-0.37658119201660156,-5.482866287231445,1.1400000000000008
1.1491796970367432,-0.33678102493286133,-5.864011287689209,1.1500000000000008
1.7840440273284912,-0.4378347396850586,-5.8063459396362305,1.1600000000000008
2.329820156097412,-1.3261003494262695,-6.090560436248779,1.1700000000000008
2.563627243041992,-2.593967914581299,-6.3198981285095215,1.1800000000000008
2.4315600395202637,-3.4870638847351074,-6.006246566772461,1.1900000000000008
1.9985203742980957,-4.195710182189941,-5.459017753601074,1.2000000000000008
1.2532658576965332,-4.35371208190918,-5.050385475158691,1.2100000000000009
0.6627447009086609,-4.07882833480835,-4.215206146240234,1.2200000000000009
1.064165472984314,-3.3876960277557373,-3.331026077270508,1.2300000000000009
1.5772719383239746,-2.4186573028564453,-3.0682783126831055,1.2400000000000009
1.8936928510665894,-1.2967023849487305,-3.255655288696289,1.2500000000000009
1.8570821285247803,0.5883946418762207,-2.5838279724121094,1.260000000000001
1.55509614944458,3.7551794052124023,-0.5969986915588379,1.270000000000001
2.1600112915039062,7.4966840744018555,1.0346221923828125,1.280000000000001
3.1609859466552734,9.546175003051758,0.36637210845947266,1.290000000000001
3.6631104946136475,11.247804641723633,0.5090656280517578,1.300000000000001
3.7794814109802246,10.188736915588379,0.611670970916748,1.310000000000001
3.1515848636627197,7.614863395690918,1.451490879058838,1.320000000000001
2.492311954498291,5.188625812530518,1.9483776092529297,1.330000000000001
2.523616313934326,2.668607711791992,1.2490010261535645,1.340000000000001
2.4377670288085938,1.1761150360107422,-0.26688146591186523,1.350000000000001
1.865447759628296,1.0372886657714844,-2.3111281394958496,1.360000000000001
1.3107185363769531,1.8556947708129883,-1.2565875053405762,1.370000000000001
1.0137046575546265,3.7031025886535645,-2.1779160499572754,1.380000000000001
0.24900519847869873,4.948817253112793,-4.050741672515869,1.390000000000001
-0.7854652404785156,4.952897548675537,-6.664351463317871,1.400000000000001
-1.8317828178405762,5.139142036437988,-9.313374519348145,1.410000000000001
-4.043030738830566,6.247955799102783,-10.468212127685547,1.420000000000001
-7.410248756408691,7.897347450256348,-6.749905586242676,1.430000000000001
-9.45882797241211,8.430988311767578,-2.209718704223633,1.440000000000001
-6.819902420043945,5.791761875152588,-2.401197910308838,1.450000000000001
-2.7937803268432617,3.2835874557495117,-3.9626612663269043,1.460000000000001
-1.7988526821136475,2.63670015335083,-5.387786865234375,1.470000000000001
-1.1819612979888916,2.6931405067443848,-5.525909900665283,1.480000000000001
-0.6105990409851074,3.128509521484375,-5.5206298828125,1.490000000000001
0.027074813842773438,3.7131733894348145,-6.503993511199951,1.500000000000001
0.5143814086914062,4.458157062530518,-7.326717376708984,1.5100000000000011
1.2630912065505981,4.8254008293151855,-7.6692728996276855,1.5200000000000011
2.1132473945617676,4.882467746734619,-6.8304338455200195,1.5300000000000011
3.555936813354492,4.57846736907959,-6.0633649826049805,1.5400000000000011
4.729888916015625,4.423555374145508,-4.819396018981934,1.5500000000000012
5.084105491638184,4.046326160430908,-4.744729042053223,1.5600000000000012
4.441301345825195,3.393404483795166,-4.64775276184082,1.5700000000000012
2.7750582695007324,1.7330703735351562,-4.871524333953857,1.5800000000000012
1.7737922668457031,0.7917094230651855,-4.649327754974365,1.5900000000000012
1.3039354085922241,0.009350776672363281,-4.4933881759643555,1.6000000000000012
1.0742909908294678,-0.7018370628356934,-4.590057849884033,1.6100000000000012
1.119814157485962,-1.3515214920043945,-5.076224327087402,1.6200000000000012
1.235178828239441,-1.759099006652832,-5.318179130554199,1.6300000000000012
1.7038501501083374,-2.1928858757019043,-5.571225166320801,1.6400000000000012
1.5240424871444702,-2.2722792625427246,-4.9482951164245605,1.6500000000000012
1.5119740962982178,-2.169065475463867,-4.749068260192871,1.6600000000000013
1.7539303302764893,-1.6183133125305176,-4.609532833099365,1.6700000000000013
2.032325029373169,-0.7542810440063477,-4.079370498657227,1.6800000000000013
2.102750778198242,-0.1433887481689453,-3.812748432159424,1.6900000000000013
2.044863700866699,0.5372705459594727,-3.66549015045166,1.7000000000000013
1.9901397228240967,0.8815560340881348,-3.6685054302215576,1.7100000000000013
1.9182095527648926,1.0765128135681152,-3.5087313652038574,1.7200000000000013
1.973425269126892,1.0629138946533203,-3.2029600143432617,1.7300000000000013
2.146656036376953,0.8841476440429688,-2.3770363330841064,1.7400000000000013
2.3215670585632324,0.6875009536743164,-1.9218854904174805,1.7500000000000013
2.372386932373047,0.6254301071166992,-2.025966167449951,1.7600000000000013
2.371180295944214,0.7747392654418945,-2.2956788539886475,1.7700000000000014
2.486729145050049,1.2102718353271484,-2.6671018600463867,1.7800000000000014
2.6303253173828125,1.9275188446044922,-2.9065957069396973,1.7900000000000014
2.7338147163391113,2.839350700378418,-3.111050605773926,1.8000000000000014
2.882354497909546,3.5670509338378906,-2.897080183029175,1.8100000000000014
3.1683008670806885,4.082136154174805,-2.6990814208984375,1.8200000000000014
3.3848648071289062,4.113415718078613,-2.848297119140625,1.8300000000000014
3.7297887802124023,4.038617134094238,-3.1329593658447266,1.8400000000000014
3.961094617843628,3.7506790161132812,-3.4954943656921387,1.8500000000000014
3.790497303009033,3.459946632385254,-3.5305230617523193,1.8600000000000014
3.1052041053771973,3.3604736328125,-4.045644760131836,1.8700000000000014
1.4597681760787964,3.8244171142578125,-4.51485013961792,1.8800000000000014
0.44580841064453125,3.9863414764404297,-4.2189621925354,1.8900000000000015
-0.49698901176452637,4.178110122680664,-1.7771859169006348,1.9000000000000015
-0.5368764400482178,4.013005256652832,-4.129933834075928,1.9100000000000015
-1.125565767288208,3.7244977951049805,-5.259286403656006,1.9200000000000015
-1.6989943981170654,3.5148515701293945,-5.725826263427734,1.9300000000000015
-1.4903178215026855,3.6469640731811523,-5.681163311004639,1.9400000000000015
0.2844487428665161,3.918400764465332,-6.191779613494873,1.9500000000000015
1.5538948774337769,5.006072998046875,-6.551116466522217,1.9600000000000015
1.9016574621200562,6.080803871154785,-7.60514497756958,1.9700000000000015
1.2913013696670532,7.262640953063965,-8.35307502746582,1.9800000000000015
0.3343029022216797,7.9731125831604,-6.812845230102539,1.9900000000000015
-1.4929094314575195,8.65057373046875,-4.348037242889404,2.0000000000000013
-3.0717055797576904,9.626166343688965,-1.4873104095458984,2.010000000000001
-3.013723611831665,9.310272216796875,-1.0831971168518066,2.020000000000001
-2.480750322341919,7.837731838226318,-2.081634998321533,2.0300000000000007
-2.223924160003662,6.078978061676025,-2.5891788005828857,2.0400000000000005
-1.9484710693359375,3.934640407562256,-2.853017807006836,2.0500000000000003
-1.8109352588653564,1.7336196899414062,-3.148411273956299,2.06
-1.670553207397461,0.5422801971435547,-3.4114086627960205,2.07
-1.4287216663360596,-0.3931417465209961,-4.180505752563477,2.0799999999999996
-1.0165629386901855,-1.1187043190002441,-4.908018589019775,2.0899999999999994
-0.8132319450378418,-1.7040743827819824,-5.937137603759766,2.099999999999999
-0.5049750804901123,-2.099574089050293,-6.831998348236084,2.109999999999999
-0.003095269203186035,-2.203157901763916,-7.227940559387207,2.1199999999999988
0.13274124264717102,-2.180880546569824,-7.416783332824707,2.1299999999999986
0.3393932580947876,-2.1746392250061035,-6.82647705078125,2.1399999999999983
0.5736082792282104,-1.8737750053405762,-5.031648635864258,2.149999999999998
0.9440737366676331,-1.7034006118774414,-5.359025001525879,2.159999999999998
1.7806994915008545,-1.5338106155395508,-5.6672773361206055,2.1699999999999977
2.3407175540924072,-2.755227565765381,-6.232742786407471,2.1799999999999975
2.294431686401367,-3.567415714263916,-5.730374336242676,2.1899999999999973
1.862265706062317,-4.325366020202637,-5.213192939758301,2.199999999999997
1.256363868713379,-4.826563835144043,-5.106362342834473,2.209999999999997
0.6516998410224915,-4.5733723640441895,-4.913488388061523,2.2199999999999966
0.18253862857818604,-4.0172119140625,-4.334770202636719,2.2299999999999964
0.8849148154258728,-2.783879518508911,-3.127476692199707,2.239999999999996
1.6830865144729614,-1.7690296173095703,-2.726147174835205,2.249999999999996
2.299659013748169,-0.5484910011291504,-2.6274290084838867,2.259999999999996
2.3360867500305176,1.639380931854248,-1.2038283348083496,2.2699999999999956
2.2625036239624023,4.517214775085449,2.7142176628112793,2.2799999999999954
3.16147518157959,7.262263774871826,1.3302974700927734,2.289999999999995
3.7308785915374756,10.065858840942383,0.6314949989318848,2.299999999999995
3.3929238319396973,11.14126968383789,1.4411354064941406,2.3099999999999947
3.446824073791504,11.171598434448242,1.4293031692504883,2.3199999999999945
2.15065336227417,6.505500793457031,1.4451045989990234,2.3299999999999943
1.980895757675171,4.389041423797607,2.310215950012207,2.339999999999994
1.868990182876587,3.3376612663269043,2.0233912467956543,2.349999999999994
1.2671289443969727,2.8767385482788086,-0.12394332885742188,2.3599999999999937
1.0313136577606201,2.6502394676208496,-0.6102285385131836,2.3699999999999934
0.8735992908477783,3.099925994873047,-1.4923200607299805,2.3799999999999932
-0.020871639251708984,3.8242735862731934,-3.74857759475708,2.389999999999993
-1.0006837844848633,4.141818523406982,-5.530891418457031,2.399999999999993
-1.8478329181671143,4.208764553070068,-7.871693134307861,2.4099999999999926
-3.342895746231079,4.647842884063721,-10.59496784210205,2.4199999999999924
-5.080681800842285,5.384059906005859,-10.206087112426758,2.429999999999992
-5.039938926696777,5.4408440589904785,-10.241657257080078,2.439999999999992
-8.077847480773926,6.963285446166992,-0.6852221488952637,2.4499999999999917
-4.442490100860596,4.803504467010498,-1.7695436477661133,2.4599999999999915
-2.351940155029297,3.269425392150879,-3.6350650787353516,2.4699999999999913
-1.4799845218658447,2.915778160095215,-4.1208038330078125,2.479999999999991
-0.7860028743743896,3.372946262359619,-4.84230899810791,2.489999999999991
0.022977828979492188,3.7557482719421387,-6.480936050415039,2.4999999999999907
1.0623983144760132,3.95633602142334,-7.352662563323975,2.5099999999999905
2.0798823833465576,3.9580087661743164,-7.0385050773620605,2.5199999999999902
3.432377338409424,3.885897636413574,-6.9126129150390625,2.52999999999999
4.662610054016113,3.4510011672973633,-6.129682540893555,2.53999999999999
5.348110198974609,3.3276095390319824,-4.584775924682617,2.5499999999999896
5.589144706726074,3.147632122039795,-4.461289405822754,2.5599999999999894
4.412773609161377,2.2124948501586914,-5.151134490966797,2.569999999999989
2.855459213256836,1.0351495742797852,-5.43151330947876,2.579999999999989
1.73332941532135,0.13578081130981445,-4.656611442565918,2.5899999999999888
0.8655270338058472,-0.5498628616333008,-4.3896565437316895,2.5999999999999885
0.5832390785217285,-1.0874357223510742,-4.7165350914001465,2.6099999999999883
0.5527629852294922,-1.7941956520080566,-5.184512615203857,2.619999999999988
0.3380821943283081,-2.2518348693847656,-4.271345138549805,2.629999999999988
0.485945463180542,-2.8824024200439453,-4.235931873321533,2.6399999999999877
0.7996689081192017,-2.95831298828125,-4.574966907501221,2.6499999999999875
1.1828203201293945,-2.7528510093688965,-4.900792121887207,2.6599999999999873
1.4856841564178467,-2.2115392684936523,-4.490072250366211,2.669999999999987
1.758216381072998,-1.3101792335510254,-3.9359946250915527,2.679999999999987
1.9836527109146118,-0.5586943626403809,-3.844137668609619,2.6899999999999866
2.0963168144226074,0.2418231964111328,-3.829113006591797,2.6999999999999864
2.135528087615967,0.840968132019043,-3.7634785175323486,2.709999999999986
2.0092015266418457,1.0973196029663086,-2.896193504333496,2.719999999999986
1.9038292169570923,1.0177440643310547,-2.2779347896575928,2.7299999999999858
1.9041798114776611,0.9137248992919922,-1.8734302520751953,2.7399999999999856
1.9435200691223145,0.8703145980834961,-1.7736835479736328,2.7499999999999853
2.4606432914733887,0.6359281539916992,-1.384305477142334,2.759999999999985
2.8951408863067627,0.7076568603515625,-1.3171539306640625,2.769999999999985
3.185047149658203,1.5401420593261719,-1.4032986164093018,2.7799999999999847
3.1807332038879395,2.533167839050293,-1.882164716720581,2.7899999999999845
3.115997314453125,3.567605972290039,-3.0231616497039795,2.7999999999999843
3.1098339557647705,4.158291816711426,-3.993804454803467,2.809999999999984
3.294579029083252,4.22012996673584,-3.9334607124328613,2.819999999999984
3.5662548542022705,4.001367568969727,-3.493985891342163,2.8299999999999836
3.925133228302002,3.579364776611328,-2.9586169719696045,2.8399999999999834
4.047030925750732,3.1962671279907227,-2.5234999656677246,2.849999999999983
3.775796890258789,3.1528987884521484,-2.6050362586975098,2.859999999999983
2.7169570922851562,4.130719184875488,-2.9319748878479004,2.869999999999983
1.3299167156219482,5.376038551330566,-3.2060718536376953,2.8799999999999826
1.0934386253356934,5.943239212036133,-1.9613540172576904,2.8899999999999824
1.4106968641281128,5.543269157409668,-3.9759957790374756,2.899999999999982
1.095194697380066,4.730024337768555,-5.202411651611328,2.909999999999982
0.3724346160888672,3.6394405364990234,-6.149919509887695,2.9199999999999817
-0.26119351387023926,3.0572900772094727,-6.839421272277832,2.9299999999999815
-0.7011854648590088,3.2433156967163086,-6.725162506103516,2.9399999999999813
-1.064697265625,4.358652114868164,-5.665038108825684,2.949999999999981
-0.8666872978210449,5.961250305175781,-4.488044261932373,2.959999999999981
-0.6981519460678101,6.663966178894043,-5.076156139373779,2.9699999999999807
-1.107155442237854,7.205514907836914,-5.877683639526367,2.9799999999999804
-2.510244607925415,7.537814140319824,-4.751147747039795,2.9899999999999802
-4.197628974914551,8.067411422729492,-2.788478136062622,2.99999999999998
-3.806912899017334,8.0326566696167,-2.052090644836426,3.00999999999998
-2.694824457168579,7.33104944229126,-1.7960729598999023,3.0199999999999796
-2.029599666595459,6.1306843757629395,-2.1064536571502686,3.0299999999999794
-1.32248055934906,4.205615520477295,-2.9924850463867188,3.039999999999979
-1.024695873260498,2.573838233947754,-3.643073081970215,3.049999999999979
-0.9632371664047241,0.5925917625427246,-3.988029718399048,3.0599999999999787
-0.7738549709320068,-0.9310894012451172,-4.350642681121826,3.0699999999999785
-0.4940671920776367,-1.687880516052246,-4.782501697540283,3.0799999999999783
-0.33424848318099976,-2.032623767852783,-5.61034631729126,3.089999999999978
-0.4705985188484192,-2.196716785430908,-6.049666404724121,3.099999999999978
-0.6156777739524841,-1.9498577117919922,-6.342714309692383,3.1099999999999777
-0.10703432559967041,-2.365154266357422,-6.686419486999512,3.1199999999999775
0.17915698885917664,-2.415070056915283,-6.005373001098633,3.1299999999999772
0.42365288734436035,-2.6629462242126465,-5.383628845214844,3.139999999999977
0.5487949848175049,-2.5952510833740234,-5.27411413192749,3.149999999999977
0.5901775360107422,-2.433464765548706,-5.263308525085449,3.1599999999999766
0.5758058428764343,-1.9901318550109863,-4.943861961364746,3.1699999999999764
0.7415130734443665,-0.9507303237915039,-5.126226425170898,3.179999999999976
1.5129435062408447,-0.9583520889282227,-5.134571075439453,3.189999999999976
2.80385684967041,-2.8103599548339844,-4.91702938079834,3.1999999999999758
3.1535580158233643,-4.157281875610352,-4.157572269439697,3.2099999999999755
2.8765268325805664,-4.782740592956543,-3.837090492248535,3.2199999999999753
1.6196045875549316,-4.00114631652832,-3.7692437171936035,3.229999999999975
1.4063640832901,-2.7169110774993896,-3.1258583068847656,3.239999999999975
1.4937690496444702,-2.792064905166626,-3.038968086242676,3.2499999999999747
1.8453035354614258,0.056000709533691406,-2.03652286529541,3.2599999999999745
1.574317455291748,1.9888334274291992,-0.6723685264587402,3.2699999999999743
1.3465344905853271,4.7779459953308105,1.4258947372436523,3.279999999999974
2.2582266330718994,6.852309226989746,1.2556424140930176,3.289999999999974
3.0998170375823975,9.203031539916992,0.7800760269165039,3.2999999999999736
3.345254421234131,10.097745895385742,0.9774761199951172,3.3099999999999734
3.320847988128662,8.448854446411133,1.56431245803833,3.319999999999973
2.992990493774414,6.505253791809082,2.160754680633545,3.329999999999973
2.4521002769470215,4.773032188415527,2.4729013442993164,3.3399999999999728
2.0770459175109863,3.0910301208496094,1.8960609436035156,3.3499999999999726
1.9010506868362427,1.1347432136535645,-0.22755908966064453,3.3599999999999723
1.284848928451538,0.43128490447998047,-2.2332916259765625,3.369999999999972
0.8422729969024658,1.1655521392822266,-2.192495346069336,3.379999999999972
0.496895432472229,2.226536750793457,-3.36739444732666,3.3899999999999717
-0.1174994707107544,2.7780447006225586,-4.663747787475586,3.3999999999999715
-1.2777847051620483,2.5534281730651855,-6.951873779296875,3.4099999999999713
-2.769530773162842,3.051187038421631,-10.46065902709961,3.419999999999971
-4.71259880065918,5.014186859130859,-11.471240997314453,3.429999999999971
-8.539670944213867,8.978053092956543,-5.012729644775391,3.4399999999999706
-10.495267868041992,9.532987594604492,-0.49874067306518555,3.4499999999999704
-9.454118728637695,7.252255439758301,-0.9344334602355957,3.45999999999997
-4.917173862457275,3.7787537574768066,-2.6066155433654785,3.46999999999997
-3.609053373336792,2.584876537322998,-4.243444442749023,3.47999999999997
-2.3707642555236816,2.3845033645629883,-4.000959873199463,3.4899999999999696
-1.239940881729126,2.228029727935791,-4.707867622375488,3.4999999999999694
-0.4847831726074219,2.7439804077148438,-5.976698875427246,3.509999999999969
0.6880655288696289,3.2378454208374023,-7.189206123352051,3.519999999999969
1.5503246784210205,4.013142108917236,-7.798215389251709,3.5299999999999687
2.9784765243530273,3.827958583831787,-7.417139053344727,3.5399999999999685
4.317744255065918,3.1632003784179688,-6.173613548278809,3.5499999999999683
5.447766304016113,2.620602607727051,-5.079474925994873,3.559999999999968
5.761355876922607,2.1996421813964844,-4.736967086791992,3.569999999999968
4.564992904663086,1.410135269165039,-4.6139678955078125,3.5799999999999677
2.877037525177002,0.322967529296875,-4.130422592163086,3.5899999999999674
1.4358220100402832,-0.2997565269470215,-3.8101420402526855,3.5999999999999672
0.6072918176651001,-0.790687084197998,-3.9852030277252197,3.609999999999967
0.6628884077072144,-1.5028042793273926,-4.6438069343566895,3.619999999999967
0.7061442136764526,-2.147763252258301,-4.570012092590332,3.6299999999999666
0.6816353797912598,-2.8117871284484863,-3.8249387741088867,3.6399999999999664
0.9493190050125122,-3.289888381958008,-3.7274951934814453,3.649999999999966
1.2620986700057983,-3.2921218872070312,-3.7901291847229004,3.659999999999966
1.5133826732635498,-2.7273025512695312,-3.7662014961242676,3.6699999999999657
1.771673321723938,-1.5433478355407715,-2.744621992111206,3.6799999999999655
2.07710599899292,-0.6883935928344727,-2.491482734680176,3.6899999999999653
2.404252290725708,0.2202930450439453,-2.5238795280456543,3.699999999999965
2.6045937538146973,0.9468908309936523,-2.4430992603302,3.709999999999965
2.641005516052246,1.2001399993896484,-2.4566328525543213,3.7199999999999647
2.6199347972869873,1.0847387313842773,-2.512558698654175,3.7299999999999645
2.5779924392700195,0.849818229675293,-2.3645718097686768,3.7399999999999642
2.5882492065429688,0.6541604995727539,-1.997788667678833,3.749999999999964
2.526498794555664,0.4947957992553711,-1.5151023864746094,3.759999999999964
2.4784982204437256,0.5667076110839844,-1.1432743072509766,3.7699999999999636
2.5275514125823975,1.0845203399658203,-1.0768218040466309,3.7799999999999634
2.768967390060425,2.011035919189453,-1.5606024265289307,3.789999999999963
3.055054187774658,2.95601749420166,-2.576606035232544,3.799999999999963
3.254307270050049,3.347456932067871,-3.109870672225952,3.8099999999999627
3.390540599822998,3.552170753479004,-3.2273993492126465,3.8199999999999625
3.4076156616210938,3.5327205657958984,-3.172332763671875,3.8299999999999623
3.8544135093688965,3.110645294189453,-3.2966489791870117,3.839999999999962
4.065439224243164,2.758816719055176,-2.6911802291870117,3.849999999999962
3.771820068359375,2.587678909301758,-1.5074875354766846,3.8599999999999617
2.7850160598754883,3.1333866119384766,-1.670067548751831,3.8699999999999615
0.5976095199584961,4.267939567565918,-2.718381404876709,3.8799999999999613
-0.2164156436920166,4.685306549072266,-3.617522716522217,3.889999999999961
-0.5116667747497559,4.235604286193848,-2.1169652938842773,3.899999999999961
-0.7546117305755615,3.366827964782715,-3.311363458633423,3.9099999999999606
-1.7147390842437744,2.5487937927246094,-5.114436149597168,3.9199999999999604
-2.198133945465088,2.7370548248291016,-5.132384300231934,3.92999999999996
-1.3225853443145752,3.6801700592041016,-4.892910003662109,3.93999999999996
0.39012694358825684,4.7332658767700195,-6.327157020568848,3.9499999999999598
0.6655644178390503,5.957609176635742,-7.083951473236084,3.9599999999999596
0.31148040294647217,6.611398696899414,-6.692391395568848,3.9699999999999593
-0.8184820413589478,7.1759843826293945,-4.918338775634766,3.979999999999959
-2.112854242324829,7.5299072265625,-2.8277053833007812,3.989999999999959
-3.328672170639038,8.420123100280762,-1.6629843711853027,3.9999999999999587
-3.63218355178833,8.87034797668457,-1.3497347831726074,4.009999999999959
-3.209439277648926,7.950649738311768,-0.8495669364929199,4.019999999999959
-2.832503318786621,6.0435662269592285,-0.9692254066467285,4.0299999999999585
-1.8593504428863525,3.4400582313537598,-1.7662549018859863,4.039999999999958
-1.458705186843872,1.959914207458496,-2.941671848297119,4.049999999999958
-1.145387887954712,-0.12471580505371094,-4.36790657043457,4.059999999999958
-0.766884446144104,-1.3119425773620605,-4.480727195739746,4.069999999999958
-0.35122907161712646,-2.312936782836914,-4.901264667510986,4.079999999999957
-0.3134458661079407,-2.291182518005371,-5.525619029998779,4.089999999999957
-0.03463023900985718,-2.7203311920166016,-5.661653518676758,4.099999999999957
0.1493752896785736,-2.449751853942871,-5.779529094696045,4.109999999999957
0.6371200084686279,-2.532273769378662,-5.662835121154785,4.119999999999957
1.4587163925170898,-2.713125228881836,-4.704628944396973,4.129999999999956
1.701846718788147,-2.6118850708007812,-5.158698558807373,4.139999999999956
1.298667311668396,-2.2146215438842773,-6.259899616241455,4.149999999999956
0.701894223690033,-1.7516279220581055,-5.244619846343994,4.159999999999956
0.5456742644309998,-1.6774449348449707,-4.533446311950684,4.1699999999999555
0.4340117275714874,-2.144132614135742,-4.408356666564941,4.179999999999955
0.9634592533111572,-2.738469123840332,-4.694034576416016,4.189999999999955
1.0202707052230835,-4.5749897956848145,-4.793107032775879,4.199999999999955
0.6132365465164185,-5.376114368438721,-4.177303314208984,4.209999999999955
-0.40139544010162354,-5.460375785827637,-3.812148094177246,4.2199999999999545
-0.26816248893737793,-4.716900825500488,-2.7710413932800293,4.229999999999954
0.6061393022537231,-3.752438545227051,-2.5265941619873047,4.239999999999954
1.1122844219207764,-3.019318103790283,-2.803245782852173,4.249999999999954
1.3470267057418823,-1.0148234367370605,-3.0301339626312256,4.259999999999954
1.0794358253479004,3.6053013801574707,-1.3534278869628906,4.269999999999953
0.4840174913406372,10.409509658813477,3.608701229095459,4.279999999999953
2.131256580352783,12.670585632324219,5.628244400024414,4.289999999999953
3.990067720413208,11.65951156616211,1.9704041481018066,4.299999999999953
3.717134475708008,9.672228813171387,1.7168951034545898,4.3099999999999525
3.5552473068237305,5.3667144775390625,2.1191492080688477,4.319999999999952
3.089000701904297,2.2997140884399414,1.073542594909668,4.329999999999952
3.0946297645568848,2.3447275161743164,1.0279741287231445,4.339999999999952
1.9220789670944214,1.945816993713379,-0.38622426986694336,4.349999999999952
1.012500524520874,3.884899616241455,0.5275230407714844,4.3599999999999515
0.45478153228759766,5.9272356033325195,1.0311641693115234,4.369999999999951
-0.528011679649353,7.233604907989502,-1.2390575408935547,4.379999999999951
-1.515851616859436,6.901198387145996,-3.817473888397217,4.389999999999951
-3.0201785564422607,4.704630374908447,-6.577775955200195,4.399999999999951
-4.958024978637695,3.412858486175537,-8.954392433166504,4.40999999999995
-7.464168071746826,2.777524948120117,-9.401201248168945,4.41999999999995
-7.215777397155762,1.730698585510254,-5.487685203552246,4.42999999999995
-4.92098331451416,0.31964731216430664,-4.33244514465332,4.43999999999995
-3.7234325408935547,0.35765933990478516,-4.548739433288574,4.4499999999999496
-2.49894380569458,1.1812000274658203,-4.6310319900512695,4.459999999999949
-2.0680689811706543,2.5094804763793945,-3.748807668685913,4.469999999999949
-1.848198652267456,4.036342144012451,-5.220260143280029,4.479999999999949
-1.2057583332061768,5.338470935821533,-7.05106782913208,4.489999999999949
0.16181087493896484,5.839904308319092,-7.348283767700195,4.4999999999999485
1.7099864482879639,5.83543586730957,-5.802125453948975,4.509999999999948
3.7275264263153076,4.874722480773926,-4.182456016540527,4.519999999999948
4.667717933654785,3.9820547103881836,-3.241117477416992,4.529999999999948
5.118136882781982,3.1120715141296387,-3.1543307304382324,4.539999999999948
4.692679405212402,2.217918872833252,-4.164651870727539,4.549999999999947
3.321071147918701,1.323531150817871,-4.641343593597412,4.559999999999947
2.544316053390503,0.22713613510131836,-4.5577898025512695,4.569999999999947
2.0091161727905273,-0.6301636695861816,-4.208439826965332,4.579999999999947
1.4699618816375732,-1.1628813743591309,-4.29603385925293,4.589999999999947
0.8982591032981873,-1.5679974555969238,-4.488659381866455,4.599999999999946
0.5273939371109009,-2.1117892265319824,-4.560649871826172,4.609999999999946
0.6505371332168579,-2.5300469398498535,-4.735382080078125,4.619999999999946
0.6092237234115601,-2.9037017822265625,-3.7936415672302246,4.629999999999946
0.639144778251648,-2.78080415725708,-3.6693789958953857,4.6399999999999455
0.915356457233429,-2.4442853927612305,-3.5622124671936035,4.649999999999945
1.2643448114395142,-1.9075088500976562,-3.197023391723633,4.659999999999945
1.549400806427002,-1.2383313179016113,-2.9582934379577637,4.669999999999945
1.7926013469696045,-0.5231881141662598,-2.8119077682495117,4.679999999999945
1.9881924390792847,0.08413028717041016,-2.8797812461853027,4.689999999999944
2.1903116703033447,0.6081151962280273,-2.8881115913391113,4.699999999999944
2.3314900398254395,0.7427845001220703,-2.2453219890594482,4.709999999999944
2.4441919326782227,0.6880416870117188,-1.5631911754608154,4.719999999999944
2.3863720893859863,0.5188302993774414,-1.2903766632080078,4.729999999999944
2.2362918853759766,0.4035625457763672,-1.3191807270050049,4.739999999999943
2.1018691062927246,0.53472900390625,-1.3360161781311035,4.749999999999943
2.1594126224517822,0.7891530990600586,-1.2278878688812256,4.759999999999943
2.248828887939453,1.3232650756835938,-1.2209274768829346,4.769999999999943
2.326838254928589,2.0539989471435547,-1.5325560569763184,4.7799999999999425
2.519857168197632,2.671257972717285,-2.0244827270507812,4.789999999999942
2.950680732727051,2.92901611328125,-2.0494487285614014,4.799999999999942
3.2399179935455322,3.1189041137695312,-2.0018274784088135,4.809999999999942
3.5592246055603027,3.0534467697143555,-2.2804322242736816,4.819999999999942
3.5966274738311768,2.9354496002197266,-2.7093536853790283,4.8299999999999415
3.3173956871032715,3.151118278503418,-3.2706332206726074,4.839999999999941
2.2663590908050537,4.0147809982299805,-3.716930627822876,4.849999999999941
0.9697027206420898,4.433958053588867,-3.786863088607788,4.859999999999941
0.4096262454986572,4.457900047302246,-3.5848305225372314,4.869999999999941
-2.532005310058594E-4,4.003170967102051,-3.7619614601135254,4.87999999999994
-0.7585480213165283,3.905172348022461,-1.216191053390503,4.88999999999994
0.513452410697937,3.8489084243774414,-2.403996467590332,4.89999999999994
1.2825298309326172,4.557924270629883,-4.235714435577393,4.90999999999994
1.571974277496338,5.328982353210449,-5.32681131362915,4.9199999999999395
1.591374158859253,5.779563903808594,-5.884849548339844,4.929999999999939
0.9674286842346191,6.063388824462891,-6.292593955993652,4.939999999999939
-0.041391968727111816,6.011857032775879,-5.713304042816162,4.949999999999939
-1.649247169494629,5.873719215393066,-4.938706398010254,4.959999999999939
-3.5811853408813477,6.001590728759766,-3.400554895401001,4.9699999999999385
-4.675808429718018,6.4008026123046875,-3.177340030670166,4.979999999999938
-3.8111958503723145,6.219388008117676,-2.1464285850524902,4.989999999999938
-2.695883274078369,5.451727867126465,-1.2188706398010254,4.999999999999938
-2.1965975761413574,4.335689067840576,-1.215282917022705,5.009999999999938
-1.63466477394104,2.6956024169921875,-1.698397159576416,5.019999999999937
-1.4671056270599365,1.219289779663086,-2.8851253986358643,5.029999999999937
-1.252604365348816,0.2930288314819336,-3.350144147872925,5.039999999999937
-1.0813443660736084,-0.5948381423950195,-4.066660404205322,5.049999999999937
-0.6860530376434326,-1.5013689994812012,-4.859917163848877,5.0599999999999365
-0.3675704598426819,-1.9146575927734375,-5.1141676902771,5.069999999999936
0.19383281469345093,-2.2158451080322266,-5.825344085693359,5.079999999999936
0.749764084815979,-2.6452035903930664,-5.832151412963867,5.089999999999936
0.8558817505836487,-2.6767477989196777,-5.72325325012207,5.099999999999936
0.880724310874939,-2.550029754638672,-5.18744421005249,5.1099999999999355
1.322460412979126,-2.5495376586914062,-5.23321533203125,5.119999999999935
1.2549474239349365,-2.2563729286193848,-5.058113098144531,5.129999999999935
0.8199563026428223,-1.9720864295959473,-4.7222113609313965,5.139999999999935
0.44448649883270264,-2.0208067893981934,-4.133376121520996,5.149999999999935
0.14231300354003906,-2.1426568031311035,-3.876864433288574,5.159999999999934
0.11643552780151367,-2.2978310585021973,-3.4526941776275635,5.169999999999934
0.19426286220550537,-2.4162211418151855,-3.357208490371704,5.179999999999934
0.552270770072937,-2.3165788650512695,-3.155600070953369,5.189999999999934
0.9250646829605103,-2.757004737854004,-3.4340462684631348,5.199999999999934
1.013396978378296,-3.2012012004852295,-3.5539186000823975,5.209999999999933
0.5844100713729858,-2.995206832885742,-2.548746109008789,5.219999999999933
0.9978588223457336,-2.415013313293457,-1.7558631896972656,5.229999999999933
1.4858243465423584,-1.2991199493408203,-1.1512155532836914,5.239999999999933
1.7572932243347168,-0.20571470260620117,-1.0012993812561035,5.2499999999999325
1.6682381629943848,2.5125951766967773,0.12015819549560547,5.259999999999932
2.222560167312622,5.017237663269043,0.5894818305969238,5.269999999999932
2.8119654655456543,7.733933925628662,0.760711669921875,5.279999999999932
3.0282199382781982,9.125060081481934,0.9086422920227051,5.289999999999932
3.141885280609131,7.5755534172058105,2.367995262145996,5.299999999999931
2.8177242279052734,5.685971260070801,3.432553291320801,5.309999999999931
2.498931407928467,3.894777774810791,3.915581226348877,5.319999999999931
2.00351881980896,2.191826343536377,2.9517951011657715,5.329999999999931
1.3477444648742676,0.7041735649108887,0.8248515129089355,5.339999999999931
0.6756445169448853,0.06225299835205078,-1.0708808898925781,5.34999999999993
-0.1303325891494751,0.7610158920288086,-1.745471477508545,5.35999999999993
-0.7893874645233154,1.703232765197754,-2.720846652984619,5.36999999999993
-1.3811994791030884,2.2893142700195312,-4.0337724685668945,5.37999999999993
-2.384192943572998,2.7899293899536133,-5.833590030670166,5.3899999999999295
-4.147058486938477,4.089134216308594,-8.563423156738281,5.399999999999929
-6.046454429626465,6.887074947357178,-8.695109367370605,5.409999999999929
-7.781065940856934,9.974081039428711,-3.038330078125,5.419999999999929
-7.867775917053223,9.834030151367188,-0.9190363883972168,5.429999999999929
-3.1768460273742676,5.120719909667969,-2.444171905517578,5.4399999999999284
-1.640712022781372,2.339362621307373,-3.454318046569824,5.449999999999928
-1.2981927394866943,1.6793889999389648,-5.427478790283203,5.459999999999928
-0.6316938400268555,1.8347396850585938,-6.514310836791992,5.469999999999928
0.514847993850708,2.272291660308838,-7.50752592086792,5.479999999999928
1.527815341949463,2.5566043853759766,-7.791595935821533,5.489999999999927
2.4002974033355713,3.4187417030334473,-7.0746588706970215,5.499999999999927
3.299389362335205,3.705418586730957,-5.568674564361572,5.509999999999927
3.9068751335144043,3.310410499572754,-4.558753967285156,5.519999999999927
4.302707195281982,3.1099820137023926,-3.810981512069702,5.5299999999999265
4.270028591156006,2.4845170974731445,-3.840237855911255,5.539999999999926
3.2830424308776855,1.9262151718139648,-3.6408660411834717,5.549999999999926
1.8765910863876343,0.923649787902832,-3.0499844551086426,5.559999999999926
1.1595866680145264,0.09869670867919922,-2.7897098064422607,5.569999999999926
0.8518798351287842,-0.49588441848754883,-3.06430983543396,5.5799999999999255
0.6250414848327637,-0.8335485458374023,-3.575676918029785,5.589999999999925
0.6038554906845093,-1.261305332183838,-3.8361780643463135,5.599999999999925
0.6432303190231323,-1.6223950386047363,-3.9591898918151855,5.609999999999925
0.7050254344940186,-1.9391722679138184,-3.774963855743408,5.619999999999925
0.9455921649932861,-2.0320520401000977,-3.549038887023926,5.629999999999924
1.4512109756469727,-1.836954116821289,-3.3984599113464355,5.639999999999924
1.8673593997955322,-1.3390727043151855,-3.1072535514831543,5.649999999999924
2.0817627906799316,-0.7321715354919434,-2.862657308578491,5.659999999999924
2.1162164211273193,-0.30620288848876953,-2.60088849067688,5.6699999999999235
2.191720485687256,-0.06877422332763672,-2.2970471382141113,5.679999999999923
2.176595687866211,0.03323936462402344,-2.013925075531006,5.689999999999923
2.2571194171905518,0.10616207122802734,-1.747103214263916,5.699999999999923
2.425874710083008,0.1083526611328125,-1.3035871982574463,5.709999999999923
2.6914515495300293,0.1202840805053711,-1.2004823684692383,5.7199999999999225
2.8646063804626465,0.1888580322265625,-1.3207387924194336,5.729999999999922
2.942803144454956,0.20435523986816406,-1.6004183292388916,5.739999999999922
2.8281025886535645,0.26870059967041016,-1.8673131465911865,5.749999999999922
2.6476564407348633,0.1916360855102539,-2.2391490936279297,5.759999999999922
2.4556291103363037,0.2593841552734375,-2.3798351287841797,5.769999999999921
2.099461555480957,0.5094814300537109,-2.2192561626434326,5.779999999999921
1.855390191078186,0.6451396942138672,-1.9224514961242676,5.789999999999921
1.6334888935089111,0.796208381652832,-1.6591838598251343,5.799999999999921
1.7790014743804932,0.980555534362793,-1.9269137382507324,5.809999999999921
2.17451810836792,1.2779417037963867,-2.3881375789642334,5.81999999999992
2.7689218521118164,1.6594085693359375,-2.2195756435394287,5.82999999999992
3.2797141075134277,2.0062990188598633,-1.695615530014038,5.83999999999992
3.4801297187805176,2.2684545516967773,-1.4684627056121826,5.84999999999992
3.4134438037872314,2.6697921752929688,-1.4920848608016968,5.8599999999999195
2.4829251766204834,3.816610336303711,-1.931086778640747,5.869999999999919
1.193645715713501,5.213653564453125,-2.6252517700195312,5.879999999999919
0.7571233510971069,5.704714775085449,-3.3126509189605713,5.889999999999919
1.166214942932129,5.244868278503418,-4.217817306518555,5.899999999999919
1.5299344062805176,4.867059707641602,-4.906021595001221,5.909999999999918
1.198258638381958,5.055813789367676,-3.0114336013793945,5.919999999999918
1.180145025253296,5.2374114990234375,-4.146659851074219,5.929999999999918
1.077431082725525,5.354448318481445,-5.86924934387207,5.939999999999918
0.39313971996307373,5.359051704406738,-5.634476184844971,5.949999999999918
-0.7515053749084473,5.1617584228515625,-4.7068562507629395,5.959999999999917
-1.3985316753387451,4.885654449462891,-3.987135410308838,5.969999999999917
-2.3786332607269287,4.721074104309082,-3.5967907905578613,5.979999999999917
-3.2322819232940674,4.8767900466918945,-3.193146228790283,5.989999999999917
-4.39752197265625,5.192962646484375,-2.6334939002990723,5.9999999999999165
-4.686342239379883,5.563876152038574,-2.5263967514038086,6.009999999999916
-3.8630449771881104,5.540979385375977,-1.9625966548919678,6.019999999999916
-3.088169574737549,4.603936195373535,-2.108889102935791,6.029999999999916
-2.1363115310668945,3.241885185241699,-1.6648883819580078,6.039999999999916
-1.4977549314498901,1.706892967224121,-1.910228967666626,6.0499999999999154
-1.2049509286880493,0.17132854461669922,-2.867835760116577,6.059999999999915
-1.0140228271484375,-0.8404364585876465,-3.8437108993530273,6.069999999999915
-0.42476963996887207,-1.3067736625671387,-3.8183276653289795,6.079999999999915
0.10966324806213379,-1.5070056915283203,-3.8988847732543945,6.089999999999915
0.5866883993148804,-2.0544962882995605,-4.774833679199219,6.099999999999914
0.7714771032333374,-1.8183588981628418,-5.075258255004883,6.109999999999914
1.0519728660583496,-1.8600945472717285,-5.37148380279541,6.119999999999914
1.1126443147659302,-1.8904638290405273,-4.959505081176758,6.129999999999914
1.0799428224563599,-1.788832187652588,-4.700257778167725,6.1399999999999135
1.0487875938415527,-1.5597081184387207,-4.434805393218994,6.149999999999913
0.9336810111999512,-1.9832496643066406,-4.119085788726807,6.159999999999913
0.5380725264549255,-2.2865214347839355,-3.6600303649902344,6.169999999999913
0.18253815174102783,-2.6273207664489746,-3.473127603530884,6.179999999999913
-0.09831297397613525,-2.9839746952056885,-3.738670587539673,6.1899999999999125
-0.02184152603149414,-3.167714834213257,-3.7722601890563965,6.199999999999912
0.028833508491516113,-3.1902778148651123,-3.7383437156677246,6.209999999999912
0.5214970111846924,-3.162766933441162,-3.4743967056274414,6.219999999999912
0.5391672849655151,-2.7670531272888184,-3.299663543701172,6.229999999999912
0.4363199472427368,-2.0840673446655273,-3.0700526237487793,6.239999999999911
0.3887805938720703,-1.3064732551574707,-2.57635498046875,6.249999999999911
0.5165578126907349,-0.2768263816833496,-1.6393260955810547,6.259999999999911
0.735682487487793,0.5522646903991699,-0.8227200508117676,6.269999999999911
1.118585228919983,1.6095671653747559,-0.06695127487182617,6.2799999999999105
1.6630454063415527,2.719153881072998,0.5767011642456055,6.28999999999991
2.3587942123413086,3.3927135467529297,0.5004363059997559,6.29999999999991
3.0775485038757324,3.60159969329834,0.12213897705078125,6.30999999999991
3.474417209625244,3.5972752571105957,-0.1777791976928711,6.31999999999991
3.2254879474639893,3.06113338470459,-0.5689487457275391,6.3299999999999095
2.722707748413086,2.3479866981506348,-0.017231464385986328,6.339999999999909
2.3891701698303223,1.8011932373046875,0.62554931640625,6.349999999999909
2.1131513118743896,1.4830031394958496,1.0072689056396484,6.359999999999909
1.560794711112976,1.2627449035644531,0.5638976097106934,6.369999999999909
0.45901572704315186,1.6427788734436035,-1.2797532081604004,6.379999999999908
-0.2184845209121704,1.9852914810180664,-1.1080851554870605,6.389999999999908
-0.9668875932693481,2.7830724716186523,-0.8398046493530273,6.399999999999908
-1.4926220178604126,3.3243308067321777,-0.9808487892150879,6.409999999999908
-2.0448451042175293,4.10023832321167,-2.6196234226226807,6.419999999999908
-3.32906174659729,5.177251815795898,-4.169265270233154,6.429999999999907
-6.261107921600342,6.7341814041137695,-5.165431022644043,6.439999999999907
-8.203319549560547,8.07325553894043,-4.072630882263184,6.449999999999907
-9.515464782714844,9.43150520324707,-1.7735791206359863,6.459999999999907
-7.726356506347656,8.356054306030273,0.35007476806640625,6.4699999999999065
-3.939863681793213,4.038067817687988,-2.031203269958496,6.479999999999906
-2.0408012866973877,0.6391878128051758,-3.727147102355957,6.489999999999906
-0.6875624656677246,-0.4529843330383301,-5.320255279541016,6.499999999999906
-0.14975130558013916,0.28029727935791016,-6.380807876586914,6.509999999999906
0.12607264518737793,1.2825565338134766,-5.9862775802612305,6.519999999999905
0.977840006351471,2.382871627807617,-5.443398952484131,6.529999999999905
1.9693615436553955,3.5537452697753906,-4.676228046417236,6.539999999999905
2.0940418243408203,4.5874433517456055,-5.234035968780518,6.549999999999905
1.8075584173202515,5.249595642089844,-6.377870559692383,6.559999999999905
1.6890383958816528,5.171146392822266,-6.318741321563721,6.569999999999904
1.6957470178604126,4.389573097229004,-4.483588695526123,6.579999999999904
1.2538872957229614,3.3052539825439453,-4.432055950164795,6.589999999999904
0.3559836149215698,2.217040538787842,-4.486154556274414,6.599999999999904
-0.7977970838546753,1.2137112617492676,-4.395160675048828,6.6099999999999035
-1.7416905164718628,0.4747638702392578,-4.334683895111084,6.619999999999903
-1.9082887172698975,0.16354846954345703,-4.761343002319336,6.629999999999903
-2.5488693714141846,0.17132043838500977,-4.922458648681641,6.639999999999903
-2.4223761558532715,-0.0746307373046875,-4.821183681488037,6.649999999999903
-2.0390896797180176,-0.23285961151123047,-4.621387958526611,6.659999999999902
-1.4258376359939575,0.0629420280456543,-5.484362602233887,6.669999999999902
-1.1430652141571045,0.44673681259155273,-5.511305332183838,6.679999999999902
-0.7175888419151306,0.7295818328857422,-5.020380020141602,6.689999999999902
-0.7435930371284485,0.685786247253418,-4.967369079589844,6.699999999999902
-0.08179070055484772,1.67775297164917,-4.96763801574707,6.709999999999901
0.4242684245109558,2.217503547668457,-5.032885551452637,6.719999999999901
0.2198258340358734,2.0563292503356934,-3.6509575843811035,6.729999999999901
0.08806896209716797,2.258667469024658,-4.084939956665039,6.739999999999901
0.3010643720626831,2.2156028747558594,-4.276171684265137,6.7499999999999005
0.42924001812934875,2.365993022918701,-4.274981498718262,6.7599999999999
0.5749301910400391,2.692223072052002,-4.360827445983887,6.7699999999999
0.3262108862400055,2.6676106452941895,-3.365215539932251,6.7799999999999
0.274053156375885,2.198319911956787,-2.625488042831421,6.7899999999999
-0.046128060668706894,1.1660704612731934,-1.8954424858093262,6.7999999999998995
-0.5052947998046875,0.02498626708984375,-1.865818738937378,6.809999999999899
-1.5334794521331787,-1.5251927375793457,-2.025031805038452,6.819999999999899
-2.0214266777038574,-2.4708657264709473,-3.192781448364258,6.829999999999899
-0.19774383306503296,-0.8587923049926758,-4.958766460418701,6.839999999999899
-0.4698525667190552,0.35985708236694336,-5.113359451293945,6.849999999999898
-0.7556158304214478,1.758636474609375,-2.7299203872680664,6.859999999999898
-0.7248812913894653,1.7411651611328125,-2.706967353820801,6.869999999999898
-0.858596920967102,4.471858024597168,-3.597978353500366,6.879999999999898
-0.41384485363960266,4.219054222106934,-2.2679433822631836,6.8899999999998975
0.07739230990409851,3.408505439758301,-2.578035354614258,6.899999999999897
0.5333952307701111,2.266263008117676,-3.1419320106506348,6.909999999999897
0.855246901512146,1.015080451965332,-3.223442792892456,6.919999999999897
0.9067646265029907,0.2602214813232422,-3.2924187183380127,6.929999999999897
0.9689539670944214,-0.30513811111450195,-3.4519567489624023,6.9399999999998965
0.9285251498222351,-0.49626636505126953,-3.7527620792388916,6.949999999999896
0.9009130597114563,-0.2666792869567871,-3.774733304977417,6.959999999999896
0.6483921408653259,0.2376117706298828,-2.9890635013580322,6.969999999999896
0.5016723275184631,0.8935308456420898,-2.5889832973480225,6.979999999999896
0.09311285614967346,1.222386360168457,-2.563214063644409,6.989999999999895
-0.2302769422531128,1.5866069793701172,-2.505380153656006,6.999999999999895
-0.827933132648468,2.0381031036376953,-2.309774160385132,7.009999999999895
-0.8400315642356873,2.038717269897461,-2.3095948696136475,7.019999999999895
-3.2048468589782715,3.5291223526000977,-1.801123857498169,7.0299999999998946
-4.514880657196045,3.9638891220092773,-1.8273236751556396,7.039999999999894
-4.464900970458984,3.3075084686279297,-2.528791666030884,7.049999999999894
-2.916851282119751,1.6589250564575195,-3.3704352378845215,7.059999999999894
-2.458163022994995,0.7613401412963867,-3.5803074836730957,7.069999999999894
-3.440741539001465,1.2337532043457031,-0.5994338989257812,7.0799999999998935
-4.11843729019165,1.9459342956542969,-0.7390990257263184,7.089999999999893
-4.504720687866211,2.530728340148926,-1.2595124244689941,7.099999999999893
-4.158436298370361,2.635472297668457,-1.3822040557861328,7.109999999999893
-3.868110418319702,2.209193229675293,-1.8846418857574463,7.119999999999893
-3.4293181896209717,1.4892807006835938,-1.8085765838623047,7.129999999999892
-2.978959798812866,0.7589664459228516,-1.363609790802002,7.139999999999892
-2.858203411102295,0.16161441802978516,-1.1224279403686523,7.149999999999892
-2.945918321609497,-0.30075550079345703,-1.077944278717041,7.159999999999892
-2.870406150817871,-0.33263635635375977,-1.4366416931152344,7.169999999999892
-2.910378932952881,-0.19393539428710938,-1.663003921508789,7.179999999999891
-3.080005407333374,0.007216453552246094,-1.1894259452819824,7.189999999999891
-3.4466943740844727,0.22519588470458984,-0.5808539390563965,7.199999999999891
-3.766010284423828,0.2920236587524414,-0.5176763534545898,7.209999999999891
-3.7962772846221924,0.2757301330566406,-0.5468168258666992,7.2199999999998905
-3.2833495140075684,0.24797534942626953,-0.5556163787841797,7.22999999999989
-2.5778989791870117,0.24465084075927734,-0.5358695983886719,7.23999999999989
-2.1141011714935303,0.20943355560302734,-0.8776645660400391,7.24999999999989
-1.7022730112075806,0.13848400115966797,-1.2048249244689941,7.25999999999989
-1.3558845520019531,0.11200141906738281,-1.3088922500610352,7.269999999999889
-1.145216464996338,0.0668039321899414,-1.2591497898101807,7.279999999999889
-1.090346336364746,-0.13576412200927734,-1.1421165466308594,7.289999999999889
-1.2017850875854492,-0.42189693450927734,-0.8374085426330566,7.299999999999889
-1.3970584869384766,-0.6144204139709473,-0.6581549644470215,7.309999999999889
-1.538083791732788,-0.6061444282531738,-0.6318626403808594,7.319999999999888
-1.6453452110290527,-0.49437904357910156,-0.6672544479370117,7.329999999999888
-1.8660221099853516,-0.24029541015625,-0.698857307434082,7.339999999999888
-2.0664219856262207,-0.005107879638671875,-0.751716136932373,7.349999999999888
-2.311068534851074,0.33356666564941406,-0.9052672386169434,7.3599999999998875
-2.5216422080993652,0.47626686096191406,-1.0731008052825928,7.369999999999887
-2.735734462738037,0.4643268585205078,-1.0816268920898438,7.379999999999887
-2.9289748668670654,0.38350486755371094,-0.9846992492675781,7.389999999999887
-2.996246814727783,0.3136758804321289,-0.6642851829528809,7.399999999999887
-3.140526056289673,0.3635673522949219,-0.6111869812011719,7.4099999999998865
-3.2543535232543945,0.49291229248046875,-0.4104118347167969,7.419999999999886
-3.083014488220215,0.6522731781005859,-0.32256412506103516,7.429999999999886
-2.8378467559814453,0.7242088317871094,-0.4808220863342285,7.439999999999886
-2.5165224075317383,0.5651254653930664,-0.6424078941345215,7.449999999999886
-2.235389232635498,0.3885154724121094,-0.9159417152404785,7.459999999999885
-2.0705673694610596,0.3321037292480469,-1.0104999542236328,7.469999999999885
-1.8759112358093262,0.04374408721923828,-1.13767409324646,7.479999999999885
-1.76479172706604,-0.8535480499267578,-1.2953617572784424,7.489999999999885
-1.8566513061523438,-1.0141258239746094,-1.376047134399414,7.4999999999998845
-2.0739598274230957,-0.22292518615722656,-1.2115979194641113,7.509999999999884
-2.010563373565674,1.1122045516967773,-0.5973677635192871,7.519999999999884
-1.9487719535827637,1.2723445892333984,-1.0794665813446045,7.529999999999884
-1.8796167373657227,1.334390640258789,-0.7778654098510742,7.539999999999884
-2.1879844665527344,1.327688217163086,-0.97906494140625,7.5499999999998835
-1.9776657819747925,1.7717552185058594,-0.6319799423217773,7.559999999999883
-1.7274320125579834,1.2805509567260742,-0.7598848342895508,7.569999999999883
-1.536400556564331,0.3741178512573242,-1.3236331939697266,7.579999999999883
-1.5843842029571533,-0.09190940856933594,-1.4747860431671143,7.589999999999883
-1.6465704441070557,-0.24355506896972656,-1.428969383239746,7.599999999999882
-1.5315314531326294,-0.19834423065185547,-1.2179806232452393,7.609999999999882
-1.4553439617156982,-0.05287742614746094,-1.1688203811645508,7.619999999999882
-1.4143526554107666,0.12517356872558594,-1.0573887825012207,7.629999999999882
-1.4158999919891357,0.3312101364135742,-0.9768590927124023,7.6399999999998816
-1.3975019454956055,0.45789432525634766,-0.9849319458007812,7.649999999999881
-1.4682475328445435,0.5151433944702148,-1.0627501010894775,7.659999999999881
-1.4565725326538086,0.5292892456054688,-1.1479074954986572,7.669999999999881
-1.4932706356048584,0.5676307678222656,-1.2524843215942383,7.679999999999881
-1.8078880310058594,0.46231842041015625,-1.076857328414917,7.6899999999998805
-2.1082534790039062,0.32335567474365234,-1.2097666263580322,7.69999999999988
-2.1709699630737305,0.26053810119628906,-1.370096206665039,7.70999999999988
-2.132239818572998,0.2765960693359375,-1.8267290592193604,7.71999999999988
-2.6797313690185547,0.2785511016845703,-1.3764324188232422,7.72999999999988
-3.6778082847595215,0.5233259201049805,-0.7396142482757568,7.739999999999879
-3.883298873901367,0.9864902496337891,-0.7238280773162842,7.749999999999879
-2.956804037094116,1.1259098052978516,-0.8708109855651855,7.759999999999879
-2.6200289726257324,0.913238525390625,-0.9964883327484131,7.769999999999879
-2.4261558055877686,0.5809268951416016,-1.2987546920776367,7.779999999999879
-2.3674802780151367,0.3783721923828125,-1.5589828491210938,7.789999999999878
-2.087521553039551,0.09778690338134766,-1.678070068359375,7.799999999999878
-1.6799952983856201,-0.21973705291748047,-1.601548433303833,7.809999999999878
-1.5552854537963867,-0.4858217239379883,-1.4897689819335938,7.819999999999878
-1.6947896480560303,-0.51885986328125,-1.361466407775879,7.8299999999998775
-1.974867820739746,-0.29328250885009766,-1.2054169178009033,7.839999999999877
-2.281494379043579,0.1331014633178711,-1.1759650707244873,7.849999999999877
-2.5299580097198486,0.8506498336791992,-1.110842227935791,7.859999999999877
-2.5910329818725586,1.397160530090332,-1.2009820938110352,7.869999999999877
-2.2269296646118164,1.3990669250488281,-0.9768011569976807,7.879999999999876
-1.8261024951934814,1.0724315643310547,-1.1911377906799316,7.889999999999876
-1.7412266731262207,0.5445165634155273,-1.169792652130127,7.899999999999876
-1.9013488292694092,0.1902303695678711,-1.1338844299316406,7.909999999999876
-2.186389923095703,0.04795646667480469,-1.333043098449707,7.919999999999876
-2.7035186290740967,0.2246866226196289,-1.1961164474487305,7.929999999999875
-3.093686580657959,0.39323902130126953,-0.7653591632843018,7.939999999999875
-3.017040252685547,0.5962686538696289,-0.8511595726013184,7.949999999999875
-2.897887945175171,0.8772506713867188,-0.8051755428314209,7.959999999999875
-2.860452175140381,1.0996036529541016,-0.7374083995819092,7.9699999999998745
-2.650265693664551,0.9950599670410156,-0.9877033233642578,7.979999999999874
-1.9299335479736328,0.3384523391723633,-1.0027868747711182,7.989999999999874
-1.4265096187591553,-0.3279609680175781,-1.053074598312378,7.999999999999874
