AccX,AccY,AccZ,SampleRate
2.303257942199707,0.47894859313964844,-2.951979875564575,0.01
2.2518796920776367,0.43653106689453125,-3.007251501083374,0.02
2.199091672897339,0.41298389434814453,-3.109055280685425,0.03
2.129899263381958,0.46096229553222656,-3.1393015384674072,0.04
2.100379228591919,0.5854415893554688,-3.112405776977539,0.05
2.192553758621216,0.726715087890625,-3.016388177871704,0.060000000000000005
2.2437286376953125,0.8129329681396484,-3.0522587299346924,0.07
2.279475450515747,0.8323659896850586,-3.0291740894317627,0.08
2.2965779304504395,0.8239936828613281,-2.817575693130493,0.09
2.420750617980957,0.8720893859863281,-2.3354170322418213,0.09999999999999999
2.497513771057129,0.859522819519043,-2.1345574855804443,0.10999999999999999
2.8877832889556885,0.7903432846069336,-1.8709056377410889,0.11999999999999998
3.192932605743408,0.8843936920166016,-1.7785050868988037,0.12999999999999998
3.4435184001922607,0.76300048828125,-2.2062253952026367,0.13999999999999999
3.7312405109405518,0.8684663772583008,-2.2792422771453857,0.15
3.9882309436798096,1.268406867980957,-2.206744432449341,0.16
4.422553062438965,1.5777301788330078,-1.8751027584075928,0.17
4.484724521636963,1.9733381271362305,-1.8444701433181763,0.18000000000000002
4.228541374206543,2.292473793029785,-2.189887046813965,0.19000000000000003
4.076550483703613,2.67453670501709,-2.1700186729431152,0.20000000000000004
3.9282031059265137,2.826162338256836,-2.280569553375244,0.21000000000000005
3.822725772857666,2.869797706604004,-2.364358901977539,0.22000000000000006
3.9770493507385254,2.928741455078125,-2.3267903327941895,0.23000000000000007
3.979907989501953,2.891932487487793,-2.4840006828308105,0.24000000000000007
3.8757715225219727,2.953707695007324,-2.5966715812683105,0.25000000000000006
3.733247756958008,2.969480514526367,-3.181166648864746,0.26000000000000006
3.7013354301452637,2.9855880737304688,-3.243946075439453,0.2700000000000001
3.219334125518799,2.6631832122802734,-4.346296310424805,0.2800000000000001
2.786118745803833,2.464883804321289,-4.827818870544434,0.2900000000000001
2.3684935569763184,2.2157888412475586,-4.967071056365967,0.3000000000000001
2.1218225955963135,2.0894126892089844,-5.015847682952881,0.3100000000000001
2.109628677368164,2.1414003372192383,-5.149075508117676,0.3200000000000001
2.034182548522949,1.8396949768066406,-5.00782585144043,0.3300000000000001
1.6211967468261719,1.9782886505126953,-5.254514694213867,0.34000000000000014
0.896722674369812,2.336726188659668,-5.4782514572143555,0.35000000000000014
0.6335815787315369,2.953266143798828,-5.088410377502441,0.36000000000000015
0.2134779691696167,3.5454654693603516,-4.585214614868164,0.37000000000000016
-0.09829139709472656,4.062061309814453,-3.6361985206604004,0.38000000000000017
-0.6297204494476318,4.407924652099609,-2.9257454872131348,0.3900000000000002
-0.8325169086456299,4.467216491699219,-3.0979769229888916,0.4000000000000002
-1.130336046218872,4.169248580932617,-3.465256690979004,0.4100000000000002
-1.2637767791748047,3.3733816146850586,-3.57669734954834,0.4200000000000002
-0.685144305229187,2.446660041809082,-3.8975558280944824,0.4300000000000002
-0.195470929145813,1.577521800994873,-3.9051246643066406,0.4400000000000002
0.13905179500579834,0.9019174575805664,-3.8145430088043213,0.45000000000000023
0.6012977361679077,0.6337862014770508,-3.8127315044403076,0.46000000000000024
1.0713109970092773,0.1690053939819336,-3.8007349967956543,0.47000000000000025
1.5351585149765015,-0.06809473037719727,-3.6295700073242188,0.48000000000000026
1.7107237577438354,-0.04136848449707031,-3.806030750274658,0.49000000000000027
1.823026180267334,2.923011779785156E-4,-4.228154182434082,0.5000000000000002
1.9878876209259033,-0.21251821517944336,-4.5609130859375,0.5100000000000002
2.0595452785491943,-0.35511159896850586,-4.581128120422363,0.5200000000000002
2.1642322540283203,-0.5130372047424316,-4.34947395324707,0.5300000000000002
2.1685800552368164,-0.49799680709838867,-4.098061561584473,0.5400000000000003
1.6894985437393188,-0.49381256103515625,-4.035923480987549,0.5500000000000003
1.3917782306671143,-0.6155166625976562,-3.8209152221679688,0.5600000000000003
1.012389898300171,-0.6964750289916992,-3.4176137447357178,0.5700000000000003
0.6728389263153076,-0.8090944290161133,-2.9749326705932617,0.5800000000000003
0.3188289403915405,-0.6910901069641113,-2.509148120880127,0.5900000000000003
0.5190520286560059,-0.883368968963623,-2.290750026702881,0.6000000000000003
0.755683422088623,-1.0201802253723145,-2.4119210243225098,0.6100000000000003
1.2200183868408203,-1.0553131103515625,-2.20229434967041,0.6200000000000003
1.750104308128357,-1.0030064582824707,-2.270392417907715,0.6300000000000003
2.0784897804260254,-0.7899508476257324,-2.2462258338928223,0.6400000000000003
2.7474286556243896,-0.658329963684082,-2.125187397003174,0.6500000000000004
3.098902940750122,-0.5204839706420898,-2.052436351776123,0.6600000000000004
3.614377975463867,-0.35724639892578125,-2.343259334564209,0.6700000000000004
4.073304653167725,-0.15900707244873047,-2.165367603302002,0.6800000000000004
4.160930633544922,0.304840087890625,-2.010880947113037,0.6900000000000004
3.67319655418396,1.0769128799438477,-1.654710292816162,0.7000000000000004
3.260807991027832,1.8322906494140625,-1.2703227996826172,0.7100000000000004
2.9398252964019775,2.608187198638916,-1.0147604942321777,0.7200000000000004
2.84377384185791,3.255235195159912,-0.7674555778503418,0.7300000000000004
2.5819287300109863,3.9538989067077637,-0.15937280654907227,0.7400000000000004
2.5264694690704346,4.528964519500732,0.37009096145629883,0.7500000000000004
2.332623243331909,4.740787029266357,0.9233431816101074,0.7600000000000005
2.260221004486084,3.947709083557129,1.5055217742919922,0.7700000000000005
1.9485217332839966,2.707362651824951,1.6685853004455566,0.7800000000000005
2.041344165802002,1.5112857818603516,1.1840014457702637,0.7900000000000005
2.0101394653320312,1.0585074424743652,-0.0876612663269043,0.8000000000000005
1.6663165092468262,1.695673942565918,-0.5872597694396973,0.8100000000000005
1.2586355209350586,2.304919719696045,-1.2297120094299316,0.8200000000000005
0.9912898540496826,1.8897552490234375,-2.417677402496338,0.8300000000000005
0.6765687465667725,0.7271428108215332,-3.8384344577789307,0.8400000000000005
0.6885150671005249,0.5835232734680176,-5.489729881286621,0.8500000000000005
0.8174903392791748,2.3461499214172363,-8.588227272033691,0.8600000000000005
0.22963154315948486,6.899936676025391,-10.960653305053711,0.8700000000000006
-1.0838911533355713,12.060762405395508,-8.529509544372559,0.8800000000000006
-3.937547206878662,11.639289855957031,-1.123591423034668,0.8900000000000006
-6.636591911315918,5.997596740722656,1.4114789962768555,0.9000000000000006
-3.097903251647949,2.01216983795166,-3.168705701828003,0.9100000000000006
-1.276627779006958,0.15573596954345703,-6.0456695556640625,0.9200000000000006
0.010486602783203125,-0.41817378997802734,-5.816518306732178,0.9300000000000006
0.8940311670303345,-0.17214632034301758,-4.325376987457275,0.9400000000000006
1.1653310060501099,0.417142391204834,-7.188472747802734,0.9500000000000006
1.5820643901824951,1.1274213790893555,-8.048877716064453,0.9600000000000006
2.7442736625671387,2.104452133178711,-7.307569980621338,0.9700000000000006
3.795635223388672,3.411696434020996,-5.9175944328308105,0.9800000000000006
4.954356670379639,3.7499337196350098,-3.7957358360290527,0.9900000000000007
5.711524963378906,3.984531879425049,-2.355283260345459,1.0000000000000007
6.147747993469238,4.013072967529297,-2.912950277328491,1.0100000000000007
5.741479873657227,3.4691553115844727,-3.3481388092041016,1.0200000000000007
3.810154914855957,1.9396719932556152,-4.403354644775391,1.0300000000000007
2.2003703117370605,0.7696738243103027,-4.732052803039551,1.0400000000000007
1.9068337678909302,-0.22252225875854492,-4.612640380859375,1.0500000000000007
1.7366719245910645,-0.888145923614502,-4.823667526245117,1.0600000000000007
1.4571133852005005,-1.5611639022827148,-4.994112491607666,1.0700000000000007
1.4507720470428467,-2.035513401031494,-4.9187116622924805,1.0800000000000007
1.5880316495895386,-2.224789619445801,-4.685154914855957,1.0900000000000007
1.672916054725647,-2.1550474166870117,-4.441087245941162,1.1000000000000008
1.7332468032836914,-1.7350187301635742,-3.8457508087158203,1.1100000000000008
1.6184664964675903,-1.18379545211792,-3.7706127166748047,1.1200000000000008
1.7006555795669556,-0.5152368545532227,-3.5779871940612793,1.1300000000000008
1.9135504961013794,0.04974651336669922,-3.2835240364074707,1.1400000000000008
2.010061264038086,0.2883729934692383,-3.044872283935547,1.1500000000000008
2.080045461654663,0.3672513961791992,-2.8056607246398926,1.1600000000000008
2.2211270332336426,0.3209867477416992,-2.7897415161132812,1.1700000000000008
2.3982295989990234,0.09058380126953125,-2.930753231048584,1.1800000000000008
2.4133787155151367,-0.0012617111206054688,-2.7771968841552734,1.1900000000000008
2.3931968212127686,-0.0038270950317382812,-2.7863168716430664,1.2000000000000008
2.3902883529663086,0.025522232055664062,-2.576627492904663,1.2100000000000009
2.456448554992676,0.108612060546875,-2.300475835800171,1.2200000000000009
2.3968186378479004,0.3842010498046875,-2.453148603439331,1.2300000000000009
2.440136432647705,0.8662576675415039,-2.6628482341766357,1.2400000000000009
2.5906524658203125,1.4870376586914062,-2.4548234939575195,1.2500000000000009
2.6003928184509277,1.4677371978759766,-2.4020814895629883,1.260000000000001
3.167703866958618,2.5845155715942383,-1.9259051084518433,1.270000000000001
3.5878024101257324,3.015873908996582,-2.1739494800567627,1.280000000000001
4.012024402618408,3.2097883224487305,-2.793180465698242,1.290000000000001
4.480714797973633,3.1880884170532227,-2.8399410247802734,1.300000000000001
4.900474548339844,3.027650833129883,-1.9846030473709106,1.310000000000001
5.132052898406982,2.605227470397949,-0.8750252723693848,1.320000000000001
4.788661003112793,2.486949920654297,-1.1287457942962646,1.330000000000001
4.779524803161621,2.478139877319336,-1.1113739013671875,1.340000000000001
2.9826197624206543,3.404054641723633,-2.8795547485351562,1.350000000000001
2.395364284515381,3.645453453063965,-3.1560099124908447,1.360000000000001
2.3485567569732666,3.6103429794311523,-3.644357204437256,1.370000000000001
2.2074780464172363,3.447810173034668,-4.406571865081787,1.380000000000001
2.110785484313965,2.8904476165771484,-4.737159729003906,1.390000000000001
1.9122368097305298,2.518418312072754,-4.98671817779541,1.400000000000001
1.6641881465911865,2.3301076889038086,-5.508961200714111,1.410000000000001
1.4696035385131836,2.5804996490478516,-5.723293781280518,1.420000000000001
1.5780237913131714,3.4188547134399414,-6.225948333740234,1.430000000000001
1.5180373191833496,4.550581932067871,-6.27964448928833,1.440000000000001
1.3103134632110596,4.873420715332031,-6.350132465362549,1.450000000000001
1.0034526586532593,5.271334648132324,-6.321531772613525,1.460000000000001
0.46653205156326294,6.097018241882324,-5.621766567230225,1.470000000000001
-0.9248623847961426,6.870294570922852,-4.098543167114258,1.480000000000001
-2.4936680793762207,7.475957870483398,-2.6130096912384033,1.490000000000001
-2.860675096511841,7.123237609863281,-2.518930196762085,1.500000000000001
-2.414555788040161,6.123298645019531,-2.661292791366577,1.5100000000000011
-1.6053526401519775,4.649301528930664,-2.6498501300811768,1.5200000000000011
-0.9537390470504761,2.8424720764160156,-2.963271141052246,1.5300000000000011
-0.7617688179016113,1.2387895584106445,-3.356179714202881,1.5400000000000011
-0.4678957462310791,0.08075428009033203,-3.8017005920410156,1.5500000000000012
-0.11322158575057983,-0.87689208984375,-4.378429889678955,1.5600000000000012
0.05184990167617798,-1.4117674827575684,-4.644968032836914,1.5700000000000012
0.39234989881515503,-1.6993026733398438,-4.912627696990967,1.5800000000000012
0.8281204104423523,-1.6656956672668457,-5.104742050170898,1.5900000000000012
1.3503870964050293,-1.6792373657226562,-4.58620023727417,1.6000000000000012
1.3425521850585938,-1.368300437927246,-4.607505798339844,1.6100000000000012
1.5079511404037476,-0.8310770988464355,-4.573779106140137,1.6200000000000012
1.523645043373108,-0.6653776168823242,-4.505496978759766,1.6300000000000012
1.7556490898132324,-0.776188850402832,-4.435587406158447,1.6400000000000012
1.6952345371246338,-0.9689493179321289,-4.470773696899414,1.6500000000000012
1.440850019454956,-1.3815579414367676,-4.409289360046387,1.6600000000000013
1.0760689973831177,-1.6623663902282715,-4.0591936111450195,1.6700000000000013
0.9492403864860535,-2.1946969032287598,-4.138210296630859,1.6800000000000013
1.010127305984497,-2.5287232398986816,-3.7377970218658447,1.6900000000000013
1.072108507156372,-2.9283108711242676,-3.503413677215576,1.7000000000000013
1.1095380783081055,-3.232034921646118,-3.421949625015259,1.7100000000000013
1.5193402767181396,-3.3258516788482666,-3.3313117027282715,1.7200000000000013
1.7812731266021729,-3.195098876953125,-3.2723124027252197,1.7300000000000013
1.8742611408233643,-2.79327392578125,-2.6010396480560303,1.7400000000000013
2.0464701652526855,-1.8535308837890625,-1.4349370002746582,1.7500000000000013
2.290173053741455,-0.6407260894775391,-1.2594256401062012,1.7600000000000013
2.6290807723999023,0.6356501579284668,-1.5290923118591309,1.7700000000000014
2.7981815338134766,1.813488483428955,-1.6365466117858887,1.7800000000000014
3.1286463737487793,3.0086145401000977,-1.723383903503418,1.7900000000000014
3.0952630043029785,4.63303279876709,-0.9267816543579102,1.8000000000000014
2.8340132236480713,5.4771952629089355,-0.6931929588317871,1.8100000000000014
2.3541953563690186,7.526045322418213,0.3159317970275879,1.8200000000000014
2.5307202339172363,7.799494743347168,1.3280324935913086,1.8300000000000014
2.561927556991577,7.811065196990967,1.321855068206787,1.8400000000000014
2.3985671997070312,5.638481140136719,3.3175902366638184,1.8500000000000014
2.1021571159362793,2.325564384460449,1.4324135780334473,1.8600000000000014
2.707643747329712,0.6518678665161133,-0.19127655029296875,1.8700000000000014
3.1914687156677246,-0.00905466079711914,-1.2956042289733887,1.8800000000000014
2.2232863903045654,1.483698844909668,-0.4624481201171875,1.8900000000000015
1.937867522239685,2.31600284576416,-1.2861323356628418,1.9000000000000015
1.5469022989273071,2.2413978576660156,-3.0501511096954346,1.9100000000000015
0.27751028537750244,2.5594043731689453,-5.30342435836792,1.9200000000000015
-0.8527504205703735,3.5778489112854004,-8.07079792022705,1.9300000000000015
-3.128321409225464,5.742838382720947,-8.719075202941895,1.9400000000000015
-5.899170398712158,7.415511131286621,-5.197077751159668,1.9500000000000015
-7.846257209777832,5.916731834411621,-2.6812496185302734,1.9600000000000015
-6.422569274902344,2.935091018676758,-2.9876747131347656,1.9700000000000015
-2.430400848388672,0.503455638885498,-4.182182312011719,1.9800000000000015
-1.667876124382019,-0.20330810546875,-5.220916271209717,1.9900000000000015
-0.828937292098999,-0.1691112518310547,-5.775451183319092,2.0000000000000013
-0.14068758487701416,0.507481575012207,-5.156731128692627,2.010000000000001
0.11062037944793701,1.5924859046936035,-5.44426155090332,2.020000000000001
0.3626251220703125,2.7179322242736816,-6.197660446166992,2.0300000000000007
1.092834711074829,4.168277740478516,-6.480791091918945,2.0400000000000005
2.373964309692383,4.581557750701904,-5.927865028381348,2.0500000000000003
3.844336986541748,4.556629180908203,-4.1491594314575195,2.06
4.850035667419434,4.248099327087402,-2.252922534942627,2.07
5.457986831665039,3.8732547760009766,-1.9674780368804932,2.0799999999999996
5.517405033111572,2.7415051460266113,-3.1749465465545654,2.0899999999999994
4.09489107131958,0.8297977447509766,-3.586920738220215,2.099999999999999
2.2700488567352295,-0.09449291229248047,-3.8209667205810547,2.109999999999999
1.526205062866211,-0.9277472496032715,-4.165016174316406,2.1199999999999988
1.2504663467407227,-1.8024053573608398,-4.476096153259277,2.1299999999999986
1.185614824295044,-2.503279685974121,-4.4562578201293945,2.1399999999999983
1.3168458938598633,-2.8918042182922363,-4.401878356933594,2.149999999999998
1.4541966915130615,-3.219871997833252,-3.197244644165039,2.159999999999998
1.2867461442947388,-2.9831814765930176,-3.4879989624023438,2.1699999999999977
1.5070958137512207,-2.419158458709717,-3.6123452186584473,2.1799999999999975
1.8821550607681274,-1.9294581413269043,-3.384350061416626,2.1899999999999973
2.1162614822387695,-1.281670093536377,-3.0106189250946045,2.199999999999997
2.2973172664642334,-0.6909012794494629,-2.414807081222534,2.209999999999997
2.523533344268799,-0.08400917053222656,-1.9135661125183105,2.2199999999999966
2.6925668716430664,0.22198200225830078,-1.7636327743530273,2.2299999999999964
2.7549681663513184,0.41754150390625,-1.9863686561584473,2.239999999999996
2.971383571624756,0.48745250701904297,-2.2326643466949463,2.249999999999996
3.2373082637786865,0.45302772521972656,-2.3340368270874023,2.259999999999996
3.4056763648986816,0.44017601013183594,-2.511446714401245,2.2699999999999956
3.349386692047119,0.5626726150512695,-2.689574718475342,2.2799999999999954
3.3160579204559326,0.800908088684082,-2.519946575164795,2.289999999999995
3.0364937782287598,1.4492874145507812,-2.0102720260620117,2.299999999999995
2.875113010406494,2.1593017578125,-1.4280682802200317,2.3099999999999947
2.787611722946167,2.780503273010254,-1.1395237445831299,2.3199999999999945
3.0493297576904297,3.1306209564208984,-1.4550889730453491,2.3299999999999943
3.8370606899261475,2.9429216384887695,-2.5571725368499756,2.339999999999994
4.4220194816589355,2.8506479263305664,-3.184572219848633,2.349999999999994
4.777637958526611,2.878525733947754,-3.3612887859344482,2.3599999999999937
4.697030067443848,3.065126419067383,-2.5290756225585938,2.3699999999999934
3.785613536834717,3.44085693359375,0.16227197647094727,2.3799999999999932
2.516737937927246,3.8942031860351562,-1.5536506175994873,2.389999999999993
1.602562427520752,4.92283821105957,-1.3456171751022339,2.399999999999993
1.1221569776535034,5.223608016967773,-1.2192692756652832,2.4099999999999926
0.7079730033874512,4.808603286743164,-2.504033088684082,2.4199999999999924
0.49805784225463867,3.749537467956543,-4.152183532714844,2.429999999999992
-0.0254518985748291,2.9772863388061523,-5.221394062042236,2.439999999999992
-0.36200523376464844,2.458806037902832,-5.316704750061035,2.4499999999999917
-0.5266003608703613,2.0452213287353516,-6.023259162902832,2.4599999999999915
0.046021461486816406,2.5601043701171875,-7.296011924743652,2.4699999999999913
0.6401751041412354,3.461406707763672,-7.699396133422852,2.479999999999991
0.6688030958175659,4.569161415100098,-6.851902961730957,2.489999999999991
0.1558471918106079,5.888026237487793,-5.691871166229248,2.4999999999999907
-0.6352930068969727,6.853045463562012,-3.311768054962158,2.5099999999999905
-1.4447641372680664,7.168918609619141,-2.559170722961426,2.5199999999999902
-2.0461084842681885,7.54241943359375,-1.9293584823608398,2.52999999999999
-2.255648612976074,7.406694412231445,-1.221193552017212,2.53999999999999
-2.2879889011383057,6.416909217834473,-1.178879737854004,2.5499999999999896
-2.114821195602417,4.611301422119141,-2.0271263122558594,2.5599999999999894
-1.8187975883483887,2.4975218772888184,-2.686911106109619,2.569999999999989
-1.1545549631118774,0.4524664878845215,-2.7047665119171143,2.579999999999989
-0.6658941507339478,-0.6330022811889648,-3.2715089321136475,2.5899999999999888
-0.2898372411727905,-1.513505458831787,-3.9880475997924805,2.5999999999999885
0.1770884394645691,-1.9041390419006348,-5.164798736572266,2.6099999999999883
0.8798462748527527,-2.2693686485290527,-5.977791786193848,2.619999999999988
1.6420624256134033,-2.5123581886291504,-5.7885589599609375,2.629999999999988
1.6463029384613037,-2.437593936920166,-5.873249530792236,2.6399999999999877
2.4322052001953125,-2.4375219345092773,-4.597987651824951,2.6499999999999875
2.0930356979370117,-2.1413402557373047,-4.958148956298828,2.6599999999999873
1.8600324392318726,-1.8910489082336426,-4.797305583953857,2.669999999999987
1.5858433246612549,-1.8803472518920898,-4.56241512298584,2.679999999999987
1.3266875743865967,-2.098886013031006,-4.157597541809082,2.6899999999999866
1.1996898651123047,-2.6241464614868164,-3.948235034942627,2.6999999999999864
1.1000092029571533,-3.042593002319336,-3.9494025707244873,2.709999999999986
0.9466585516929626,-3.493710517883301,-3.9614272117614746,2.719999999999986
0.9615042209625244,-4.08503532409668,-3.740119695663452,2.7299999999999858
0.7842879891395569,-4.233578681945801,-3.052689552307129,2.7399999999999856
0.7025094628334045,-3.8523061275482178,-2.4261980056762695,2.7499999999999853
1.2803152799606323,-3.1071643829345703,-2.1481313705444336,2.759999999999985
1.5947558879852295,-2.295024871826172,-2.2607667446136475,2.769999999999985
1.8569344282150269,-0.8749752044677734,-1.808333396911621,2.7799999999999847
1.9017349481582642,1.0408587455749512,-0.5358524322509766,2.7899999999999845
2.231947183609009,2.649132251739502,0.7839884757995605,2.7999999999999843
2.896946430206299,4.169299125671387,1.0943784713745117,2.809999999999984
3.3105764389038086,6.118473529815674,0.7717394828796387,2.819999999999984
3.4675965309143066,6.719967365264893,0.24230098724365234,2.8299999999999836
3.204572916030884,6.637831687927246,0.9052228927612305,2.8399999999999834
2.9474668502807617,5.49546480178833,1.3887219429016113,2.849999999999983
2.84110164642334,4.14675760269165,1.6223387718200684,2.859999999999983
2.8041462898254395,2.887260913848877,1.5565862655639648,2.869999999999983
2.95982027053833,1.3230514526367188,0.9200773239135742,2.8799999999999826
2.7897796630859375,0.8020033836364746,-0.6292452812194824,2.8899999999999824
2.1316545009613037,1.486250400543213,-1.0109858512878418,2.899999999999982
0.8632349967956543,2.722400665283203,-0.10396099090576172,2.909999999999982
0.14275026321411133,3.6454873085021973,-0.4814729690551758,2.9199999999999817
-0.8762767314910889,4.179475784301758,-1.2016510963439941,2.9299999999999815
-2.851714611053467,4.6903839111328125,-2.636763095855713,2.9399999999999813
-3.7320218086242676,5.465428829193115,-4.853071212768555,2.949999999999981
-4.384848117828369,6.785189628601074,-7.319969177246094,2.959999999999981
-5.932497501373291,7.995691776275635,-6.033823013305664,2.9699999999999807
-6.453489780426025,5.939878463745117,-4.604337692260742,2.9799999999999804
-3.4862592220306396,2.018026828765869,-4.694089412689209,2.9899999999999802
-2.507798194885254,-0.15211153030395508,-4.733621597290039,2.99999999999998
-2.0095229148864746,-0.6684408187866211,-5.830270290374756,3.00999999999998
-1.3664753437042236,-0.5408620834350586,-5.134687900543213,3.0199999999999796
-0.3679530620574951,-0.35117435455322266,-4.838748455047607,3.0299999999999794
0.2482304573059082,0.4453592300415039,-5.250994682312012,3.039999999999979
0.43795204162597656,1.9244952201843262,-6.651342391967773,3.049999999999979
0.7785874605178833,3.255331039428711,-7.693597793579102,3.0599999999999787
1.5274815559387207,3.8843564987182617,-7.308221817016602,3.0699999999999785
3.2791123390197754,4.058460235595703,-4.823153495788574,3.0799999999999783
4.460726737976074,4.07696008682251,-2.5117175579071045,3.089999999999978
5.081013202667236,3.858527183532715,-2.2122962474823,3.099999999999978
5.128225326538086,2.6867475509643555,-2.7273149490356445,3.1099999999999777
3.72375750541687,0.7973976135253906,-2.7906272411346436,3.1199999999999775
2.240039587020874,-0.4809684753417969,-2.7440249919891357,3.1299999999999772
1.3992846012115479,-1.5163354873657227,-3.3295211791992188,3.139999999999977
0.946891188621521,-2.304348945617676,-3.845466136932373,3.149999999999977
0.9644608497619629,-2.731800079345703,-3.9462461471557617,3.1599999999999766
1.344996690750122,-3.0916647911071777,-3.6431193351745605,3.1699999999999764
1.548107624053955,-2.9271998405456543,-3.511904239654541,3.179999999999976
1.8093771934509277,-2.7524776458740234,-3.4310503005981445,3.189999999999976
2.2357125282287598,-2.322266101837158,-3.13621187210083,3.1999999999999758
2.5588512420654297,-1.6064090728759766,-2.9859681129455566,3.2099999999999755
2.7653403282165527,-0.931943416595459,-2.715972900390625,3.2199999999999753
3.02956223487854,-0.28749656677246094,-2.282095193862915,3.229999999999975
3.311229705810547,0.16001415252685547,-2.1009230613708496,3.239999999999975
3.178342819213867,0.2912130355834961,-1.9702433347702026,3.2499999999999747
2.8898565769195557,0.30556392669677734,-1.8638273477554321,3.2599999999999745
2.624587059020996,0.3668670654296875,-1.5274937152862549,3.2699999999999743
2.533756971359253,0.4873228073120117,-1.117246150970459,3.279999999999974
2.4957449436187744,0.47145843505859375,-0.8797895908355713,3.289999999999974
2.416205644607544,0.6033964157104492,-0.7279906272888184,3.2999999999999736
2.393939256668091,0.8208179473876953,-0.6946837902069092,3.3099999999999734
2.0950987339019775,1.3293046951293945,-0.5743811130523682,3.319999999999973
1.8127996921539307,2.236114501953125,-0.2601449489593506,3.329999999999973
1.8198087215423584,2.8989715576171875,-0.07403707504272461,3.3399999999999728
2.2759759426116943,3.1092138290405273,-0.37006068229675293,3.3499999999999726
3.20450758934021,3.1917896270751953,-1.0274457931518555,3.3599999999999723
3.877403736114502,3.097245216369629,-1.6135998964309692,3.369999999999972
4.558948040008545,2.511538505554199,-1.928500771522522,3.379999999999972
4.816651821136475,2.1297292709350586,-1.5670058727264404,3.3899999999999717
4.189659118652344,2.1763267517089844,-1.3482674360275269,3.3999999999999715
2.8479483127593994,3.1649770736694336,-1.9252429008483887,3.4099999999999713
2.037574052810669,4.241850852966309,-2.695460319519043,3.419999999999971
1.7539112567901611,4.5562286376953125,-3.607200860977173,3.429999999999971
1.290955901145935,4.042294502258301,-4.500123977661133,3.4399999999999706
0.5682263374328613,3.5025634765625,-4.451012134552002,3.4499999999999704
-0.3698587417602539,3.2854385375976562,-4.296037673950195,3.45999999999997
-0.5799806118011475,3.589426040649414,-5.228180408477783,3.46999999999997
-0.1013023853302002,4.670924186706543,-6.816882133483887,3.47999999999997
0.032277584075927734,5.831803321838379,-6.433675765991211,3.4899999999999696
0.19109928607940674,6.507870674133301,-6.3506059646606445,3.4999999999999694
-0.4974081516265869,7.232781410217285,-5.366469383239746,3.509999999999969
-1.5936322212219238,7.544620513916016,-3.3620009422302246,3.519999999999969
-2.935120105743408,8.243810653686523,-2.17086124420166,3.5299999999999687
-3.819823741912842,7.9079742431640625,-0.26421308517456055,3.5399999999999685
-3.031142234802246,6.532915115356445,-0.35995006561279297,3.5499999999999683
-2.1243083477020264,5.056841850280762,-1.5112581253051758,3.559999999999968
-2.1983046531677246,5.157645225524902,-1.7005114555358887,3.569999999999968
-1.5179755687713623,0.8462133407592773,-2.8287782669067383,3.5799999999999677
-1.1700620651245117,-0.488156795501709,-3.6352574825286865,3.5899999999999674
-0.5458419322967529,-1.6352429389953613,-3.7633509635925293,3.5999999999999672
-0.6221688985824585,-1.5362114906311035,-3.916231632232666,3.609999999999967
0.15785205364227295,-2.5669145584106445,-5.135161876678467,3.619999999999967
0.33961033821105957,-2.3342490196228027,-5.199672698974609,3.6299999999999666
0.7089903354644775,-2.4407386779785156,-5.109341621398926,3.6399999999999664
1.0596239566802979,-2.395963191986084,-5.047712802886963,3.649999999999966
1.2075392007827759,-2.4449334144592285,-3.9766361713409424,3.659999999999966
1.3999934196472168,-2.2473578453063965,-4.156270980834961,3.6699999999999657
1.5892629623413086,-2.324735164642334,-4.582062721252441,3.6799999999999655
1.8078171014785767,-2.637404441833496,-4.713059902191162,3.6899999999999653
1.7364954948425293,-3.013302803039551,-4.8699951171875,3.699999999999965
1.5466774702072144,-3.5440454483032227,-4.7109198570251465,3.709999999999965
1.4124640226364136,-4.181721210479736,-4.485536575317383,3.7199999999999647
0.893553614616394,-4.493765830993652,-4.479125022888184,3.7299999999999645
0.5104055404663086,-4.751265525817871,-4.076687812805176,3.7399999999999642
-0.024564146995544434,-4.655503273010254,-3.3175692558288574,3.749999999999964
-0.051662564277648926,-4.057024955749512,-2.416337728500366,3.759999999999964
0.6712504625320435,-3.2816381454467773,-2.1006360054016113,3.7699999999999636
1.2769837379455566,-2.1619129180908203,-1.7187385559082031,3.7799999999999634
1.512455940246582,-0.7147965431213379,-1.000990390777588,3.789999999999963
1.60361647605896,1.4194016456604004,-0.1639413833618164,3.799999999999963
1.7346580028533936,3.446786880493164,1.216264247894287,3.8099999999999627
2.8722951412200928,6.105729103088379,1.993657112121582,3.8199999999999625
3.8940863609313965,7.467447280883789,1.8926377296447754,3.8299999999999623
4.151737213134766,7.776726245880127,0.858393669128418,3.839999999999962
3.3795642852783203,6.613319396972656,0.5924553871154785,3.849999999999962
2.6299827098846436,5.207779884338379,1.4736180305480957,3.8599999999999617
1.861682415008545,3.7930712699890137,2.370199680328369,3.8699999999999615
1.101614236831665,2.8755459785461426,2.507686138153076,3.8799999999999613
0.6440021991729736,2.6879773139953613,2.3118844032287598,3.889999999999961
0.08827805519104004,2.3358798027038574,1.6484317779541016,3.899999999999961
-0.39406776428222656,2.2377357482910156,0.8536529541015625,3.9099999999999606
-0.7202260494232178,2.6475467681884766,-0.30928945541381836,3.9199999999999604
-1.3216623067855835,3.2939696311950684,-2.7657229900360107,3.92999999999996
-2.162381887435913,3.9367923736572266,-5.10402774810791,3.93999999999996
-2.920889139175415,4.677478790283203,-7.714080810546875,3.9499999999999598
-4.353537559509277,5.6749114990234375,-9.25840950012207,3.9599999999999596
-5.661303997039795,6.3692545890808105,-7.8347907066345215,3.9699999999999593
-6.842268466949463,5.873777866363525,-3.618598699569702,3.979999999999959
-3.9617128372192383,2.8456292152404785,-1.5865020751953125,3.989999999999959
-2.3257713317871094,0.9449005126953125,-2.678618907928467,3.9999999999999587
-1.3018386363983154,-0.3180403709411621,-3.1868667602539062,4.009999999999959
-0.3645966053009033,-0.3017463684082031,-3.9155073165893555,4.019999999999959
0.3720569610595703,0.34202146530151367,-5.221222877502441,4.0299999999999585
0.8412377834320068,1.5151052474975586,-6.74755859375,4.039999999999958
1.2921265363693237,2.600564479827881,-7.325949668884277,4.049999999999958
2.3938686847686768,3.286616802215576,-6.830662727355957,4.059999999999958
3.7910385131835938,2.934967517852783,-5.524789810180664,4.069999999999958
5.050387859344482,2.6183977127075195,-2.7647407054901123,4.079999999999957
5.456461429595947,2.664714813232422,-1.0942764282226562,4.089999999999957
5.40138053894043,2.5173611640930176,-3.1342384815216064,4.099999999999957
3.773402214050293,1.4866137504577637,-4.331493377685547,4.109999999999957
1.8659324645996094,-0.14379024505615234,-3.735548973083496,4.119999999999957
1.0297530889511108,-1.1827101707458496,-2.9936068058013916,4.129999999999956
0.39055609703063965,-1.8494348526000977,-3.31325626373291,4.139999999999956
0.3005406856536865,-2.373472213745117,-3.5212016105651855,4.149999999999956
0.3593583106994629,-2.879828453063965,-3.626319646835327,4.159999999999956
0.4111025333404541,-3.274606227874756,-3.2787601947784424,4.1699999999999555
0.4002887010574341,-3.5007200241088867,-2.85784912109375,4.179999999999955
0.42199575901031494,-3.565366744995117,-2.7234010696411133,4.189999999999955
1.4153212308883667,-2.7991104125976562,-3.4640865325927734,4.199999999999955
1.8615061044692993,-2.078031539916992,-3.0516321659088135,4.209999999999955
2.225022792816162,-1.386244773864746,-2.5454349517822266,4.2199999999999545
2.5450429916381836,-0.6432924270629883,-2.2769198417663574,4.229999999999954
2.5899739265441895,-0.01076507568359375,-2.1838369369506836,4.239999999999954
2.578857183456421,0.38950347900390625,-1.8354116678237915,4.249999999999954
2.5853261947631836,0.5373325347900391,-1.354599952697754,4.259999999999954
2.5994436740875244,0.6756172180175781,-0.8654935359954834,4.269999999999953
2.6240644454956055,0.4241905212402344,-0.4195098876953125,4.279999999999953
2.5270025730133057,0.2794036865234375,-0.19891738891601562,4.289999999999953
2.6242451667785645,0.45098018646240234,-0.35465288162231445,4.299999999999953
2.816689968109131,1.3903303146362305,-0.8324284553527832,4.3099999999999525
2.632777452468872,2.684788703918457,-1.3100576400756836,4.319999999999952
2.4798049926757812,3.248140335083008,-1.7161922454833984,4.329999999999952
2.438049077987671,3.588418960571289,-2.0992603302001953,4.339999999999952
2.9259467124938965,3.7501344680786133,-1.772255778312683,4.349999999999952
3.662801742553711,3.6553287506103516,-1.3526453971862793,4.3599999999999515
4.217024803161621,3.4961700439453125,-1.2843934297561646,4.369999999999951
4.415813446044922,3.154679298400879,-1.2145228385925293,4.379999999999951
3.884967803955078,3.2491064071655273,-1.114850401878357,4.389999999999951
2.222980499267578,4.114916801452637,-1.4883594512939453,4.399999999999951
1.2673168182373047,4.2963151931762695,-2.162846088409424,4.40999999999995
1.2718607187271118,3.4292707443237305,-2.8494670391082764,4.41999999999995
0.8732086420059204,2.4231748580932617,-3.553044319152832,4.42999999999995
0.0012056827545166016,2.165541648864746,-3.533729314804077,4.43999999999995
-0.408782958984375,2.223849296569824,-3.4885497093200684,4.4499999999999496
-0.31011414527893066,3.1147022247314453,-4.506063938140869,4.459999999999949
0.056157827377319336,4.1441497802734375,-5.667891502380371,4.469999999999949
0.0566105842590332,5.541869163513184,-5.436095237731934,4.479999999999949
-0.14769721031188965,6.342018127441406,-5.9760894775390625,4.489999999999949
-1.4385945796966553,7.465590476989746,-5.181808948516846,4.4999999999999485
-2.8850531578063965,8.214057922363281,-3.4068620204925537,4.509999999999948
-4.35093355178833,8.831847190856934,-1.498497724533081,4.519999999999948
-4.164525508880615,8.801170349121094,-0.18703079223632812,4.529999999999948
-2.8043713569641113,7.464516639709473,0.23877191543579102,4.539999999999948
-2.2839205265045166,5.803759574890137,0.012990474700927734,4.549999999999947
-2.3882064819335938,5.901444435119629,-0.17528629302978516,4.559999999999947
-1.2266910076141357,1.673325538635254,-1.943495750427246,4.569999999999947
-0.9420990943908691,-0.1439685821533203,-2.40386962890625,4.579999999999947
-0.643543004989624,-1.3449158668518066,-3.4584968090057373,4.589999999999947
-0.31705933809280396,-2.2779712677001953,-4.520519256591797,4.599999999999946
-0.13396096229553223,-2.563985824584961,-5.485684871673584,4.609999999999946
0.3701725900173187,-2.770781993865967,-6.417192459106445,4.619999999999946
0.8356021046638489,-2.948875904083252,-6.351016044616699,4.629999999999946
0.812196671962738,-2.881741523742676,-6.435321807861328,4.6399999999999455
1.5659793615341187,-3.244084358215332,-5.442953586578369,4.649999999999945
2.1839730739593506,-3.6086812019348145,-3.379673957824707,4.659999999999945
2.2007579803466797,-3.7244372367858887,-4.400008201599121,4.669999999999945
1.537651777267456,-3.3762125968933105,-4.715008735656738,4.679999999999945
0.9162119626998901,-2.9811134338378906,-4.223968505859375,4.689999999999944
0.06961941719055176,-3.0141563415527344,-4.179532527923584,4.699999999999944
-0.3271150588989258,-3.325465440750122,-3.7143547534942627,4.709999999999944
-0.5255744457244873,-3.694361686706543,-3.4683990478515625,4.719999999999944
-0.6514910459518433,-4.292329788208008,-3.2906057834625244,4.729999999999944
-0.6322001218795776,-4.922358512878418,-2.826883316040039,4.739999999999943
-0.47824156284332275,-4.799053192138672,-2.296499729156494,4.749999999999943
0.6609181761741638,-4.142929553985596,-1.5669097900390625,4.759999999999943
1.503548502922058,-3.512808322906494,-1.5404911041259766,4.769999999999943
1.9559662342071533,-2.4475436210632324,-1.7192206382751465,4.7799999999999425
2.126453399658203,-0.1949138641357422,-1.4363689422607422,4.789999999999942
1.8102366924285889,4.383340358734131,0.9939451217651367,4.799999999999942
2.4884910583496094,7.298968315124512,3.0923051834106445,4.809999999999942
3.9917564392089844,10.304061889648438,4.190274238586426,4.819999999999942
4.861977577209473,11.020502090454102,1.9427156448364258,4.8299999999999415
3.677639961242676,8.712570190429688,2.079514503479004,4.839999999999941
2.826416015625,5.2090840339660645,3.102573871612549,4.849999999999941
1.7705384492874146,2.6338701248168945,1.85821533203125,4.859999999999941
1.1710171699523926,2.0203089714050293,0.8821754455566406,4.869999999999941
1.2330589294433594,2.509566307067871,0.6554083824157715,4.87999999999994
1.2386980056762695,3.5213427543640137,0.3633604049682617,4.88999999999994
0.6128599643707275,4.025899410247803,-1.1872038841247559,4.89999999999994
-0.9357935190200806,4.4265055656433105,-4.573328495025635,4.90999999999994
-2.166065216064453,3.8579916954040527,-7.089810371398926,4.9199999999999395
-3.8001582622528076,3.485128402709961,-9.146769523620605,4.929999999999939
-6.876145362854004,3.7666897773742676,-8.66070556640625,4.939999999999939
-9.598811149597168,2.5749449729919434,-4.125370979309082,4.949999999999939
-9.662656784057617,1.2549796104431152,-2.0858154296875,4.959999999999939
-7.3369855880737305,0.9070959091186523,-2.4742989540100098,4.9699999999999385
-3.934800624847412,1.3744449615478516,-3.6178019046783447,4.979999999999938
-2.619013786315918,1.9919419288635254,-3.9483799934387207,4.989999999999938
-1.4214677810668945,3.117079734802246,-3.9967522621154785,4.999999999999938
-0.19637107849121094,3.836632251739502,-5.833603382110596,5.009999999999938
0.905868411064148,4.262924671173096,-6.78112268447876,5.019999999999937
1.732907772064209,4.393552780151367,-6.286972522735596,5.029999999999937
2.6802732944488525,4.125819206237793,-5.622488498687744,5.039999999999937
3.4208154678344727,3.550713539123535,-4.706152439117432,5.049999999999937
4.154671669006348,2.7643375396728516,-3.623253107070923,5.0599999999999365
4.337016582489014,2.205202102661133,-2.998417854309082,5.069999999999936
3.7862954139709473,1.326653003692627,-3.421905040740967,5.079999999999936
2.8273911476135254,0.027937889099121094,-3.2453572750091553,5.089999999999936
1.9392417669296265,-0.788386344909668,-3.0963895320892334,5.099999999999936
1.4383076429367065,-1.2942962646484375,-3.2222495079040527,5.1099999999999355
1.0768420696258545,-1.895991325378418,-3.730010509490967,5.119999999999935
0.8281062245368958,-2.5135488510131836,-3.986050605773926,5.129999999999935
0.8049080967903137,-3.1492114067077637,-3.906416416168213,5.139999999999935
0.9035979509353638,-3.4934253692626953,-3.722874879837036,5.149999999999935
0.7241532802581787,-3.4123616218566895,-2.9537856578826904,5.159999999999934
0.9859936237335205,-2.951413631439209,-3.028899669647217,5.169999999999934
1.5711878538131714,-2.227677822113037,-2.798490524291992,5.179999999999934
1.974543571472168,-1.5438637733459473,-2.6272361278533936,5.189999999999934
1.9869935512542725,-0.9261364936828613,-2.1989874839782715,5.199999999999934
1.9225282669067383,-0.4001140594482422,-1.9760881662368774,5.209999999999933
1.9688668251037598,0.031373023986816406,-1.7172675132751465,5.219999999999933
2.0372629165649414,0.0027065277099609375,-1.6115550994873047,5.229999999999933
1.8636901378631592,0.31533050537109375,-1.1922633647918701,5.239999999999933
1.9365909099578857,0.17911148071289062,-0.8800408840179443,5.2499999999999325
2.043494701385498,-0.052023887634277344,-0.8166723251342773,5.259999999999932
2.119650363922119,-0.10037517547607422,-0.8925199508666992,5.269999999999932
2.1051340103149414,0.20528221130371094,-1.178843379020691,5.279999999999932
2.1500306129455566,0.7342929840087891,-1.2161860466003418,5.289999999999932
2.075007677078247,1.5014228820800781,-1.3811146020889282,5.299999999999931
2.134953737258911,2.1906442642211914,-1.6498652696609497,5.309999999999931
2.3134241104125977,2.734835624694824,-1.9313108921051025,5.319999999999931
2.7037675380706787,2.9688949584960938,-1.8905258178710938,5.329999999999931
3.325253486633301,3.048198699951172,-1.656049370765686,5.339999999999931
3.807689666748047,2.959864616394043,-1.648349642753601,5.34999999999993
4.098001003265381,3.1286420822143555,-1.7893682718276978,5.35999999999993
3.873417377471924,3.544339179992676,-1.950096607208252,5.36999999999993
3.2424864768981934,4.034538269042969,-2.398045778274536,5.37999999999993
2.1089696884155273,4.507839202880859,-2.849926710128784,5.3899999999999295
0.9502583742141724,4.373212814331055,-2.4249818325042725,5.399999999999929
0.4749453067779541,3.928471565246582,-2.111807107925415,5.409999999999929
0.2790653705596924,3.6360511779785156,-1.6953189373016357,5.419999999999929
-0.2729475498199463,3.2312517166137695,-3.6761250495910645,5.429999999999929
-1.1060154438018799,3.3887548446655273,-4.460027694702148,5.4399999999999284
-1.4965672492980957,3.4662904739379883,-4.532386779785156,5.449999999999928
-0.8917965888977051,4.046022415161133,-5.071181774139404,5.459999999999928
-0.4370884895324707,4.641751289367676,-4.362802505493164,5.469999999999928
-0.11598384380340576,4.625906944274902,-4.254140377044678,5.479999999999928
-0.5902732610702515,4.809663772583008,-4.217957496643066,5.489999999999927
-1.1744972467422485,4.962198257446289,-3.359229803085327,5.499999999999927
-2.063708782196045,5.039362907409668,-2.0453572273254395,5.509999999999927
-2.2240190505981445,4.990971565246582,-1.201939344406128,5.519999999999927
-1.8972288370132446,4.86500358581543,-1.018815040588379,5.5299999999999265
-1.3149479627609253,4.16978645324707,-1.1641225814819336,5.539999999999926
-0.8598356246948242,2.914968490600586,-1.4758868217468262,5.549999999999926
-0.5545673370361328,1.3450517654418945,-1.7332124710083008,5.559999999999926
-0.6607077121734619,0.1286163330078125,-2.8838956356048584,5.569999999999926
-0.5922614336013794,-0.9656624794006348,-3.5507755279541016,5.5799999999999255
-0.4733836054801941,-1.715975284576416,-3.8497347831726074,5.589999999999925
-0.23181825876235962,-2.021357536315918,-4.229482650756836,5.599999999999925
0.10422694683074951,-2.1778454780578613,-4.437984466552734,5.609999999999925
0.3318079710006714,-2.115907669067383,-4.449349403381348,5.619999999999925
0.31439971923828125,-2.0408620834350586,-4.546444892883301,5.629999999999924
0.39436933398246765,-1.615523338317871,-4.585108757019043,5.639999999999924
0.3855251669883728,-1.3724346160888672,-4.7709808349609375,5.649999999999924
0.5294276475906372,-1.736788272857666,-3.7022640705108643,5.659999999999924
0.46572956442832947,-1.9716863632202148,-3.510310173034668,5.6699999999999235
0.249681293964386,-2.2849559783935547,-3.4362123012542725,5.679999999999923
-0.021488487720489502,-2.702681541442871,-3.701540231704712,5.689999999999923
-0.10822832584381104,-3.376389265060425,-3.7527711391448975,5.699999999999923
-0.08727407455444336,-4.015368938446045,-3.7827227115631104,5.709999999999923
0.1868944764137268,-4.612673282623291,-3.710021495819092,5.7199999999999225
0.4324454665184021,-4.952496528625488,-3.5124034881591797,5.729999999999922
0.18652760982513428,-4.5731120109558105,-3.0347321033477783,5.739999999999922
0.7079374194145203,-3.7859671115875244,-2.391334295272827,5.749999999999922
1.1865240335464478,-2.9636616706848145,-1.7929320335388184,5.759999999999922
1.6692441701889038,-1.8405413627624512,-1.5485177040100098,5.769999999999921
1.7631970643997192,-0.1338968276977539,-0.8461251258850098,5.779999999999921
1.7608323097229004,2.2363100051879883,0.5846972465515137,5.789999999999921
2.157557249069214,4.658801555633545,1.769869327545166,5.799999999999921
2.207977056503296,6.63162088394165,1.3973164558410645,5.809999999999921
2.0957489013671875,8.30915641784668,1.5105900764465332,5.81999999999992
1.906225562095642,7.842841625213623,1.5729360580444336,5.82999999999992
2.3334755897521973,6.021007061004639,2.3116588592529297,5.83999999999992
2.7728776931762695,4.004110336303711,3.149561882019043,5.84999999999992
2.9345662593841553,2.892638683319092,2.942805767059326,5.8599999999999195
2.5819640159606934,2.6248316764831543,0.8290996551513672,5.869999999999919
2.5359978675842285,1.9482898712158203,-0.8547153472900391,5.879999999999919
2.4025020599365234,1.952545166015625,-1.5715703964233398,5.889999999999919
1.1343014240264893,2.546064853668213,-2.089714288711548,5.899999999999919
-0.36119961738586426,3.2906689643859863,-2.4346389770507812,5.909999999999918
-1.8466126918792725,4.06039571762085,-3.674622058868408,5.919999999999918
-3.345158576965332,4.647013187408447,-5.08688497543335,5.929999999999918
-6.210212707519531,5.481757640838623,-5.271002769470215,5.939999999999918
-8.121298789978027,5.378536701202393,-3.370415210723877,5.949999999999918
-8.237921714782715,2.8587756156921387,-2.107492208480835,5.959999999999917
-5.128077983856201,0.632021427154541,-3.6059048175811768,5.969999999999917
-2.647019863128662,-0.4349498748779297,-4.757349491119385,5.979999999999917
-1.9607305526733398,-0.28981733322143555,-5.818160057067871,5.989999999999917
-1.3617401123046875,0.8698830604553223,-4.880170822143555,5.9999999999999165
-0.5871214866638184,1.988386631011963,-3.814023971557617,6.009999999999916
0.1510181427001953,3.153609275817871,-4.811613082885742,6.019999999999916
0.6171467304229736,3.9170494079589844,-5.211737155914307,6.029999999999916
1.1981453895568848,4.1116557121276855,-5.122288703918457,6.039999999999916
1.1558406352996826,4.011137008666992,-5.010576248168945,6.0499999999999154
2.8884761333465576,3.0144004821777344,-4.192709922790527,6.059999999999915
3.577035903930664,2.4855751991271973,-3.699755907058716,6.069999999999915
3.574434280395508,2.0531649589538574,-3.412936210632324,6.079999999999915
2.6324336528778076,1.4667158126831055,-3.255654811859131,6.089999999999915
1.521903157234192,0.42272186279296875,-2.733779191970825,6.099999999999914
0.6143754720687866,-0.3533444404602051,-2.4527790546417236,6.109999999999914
0.34076249599456787,-1.1302132606506348,-2.834472417831421,6.119999999999914
0.43439531326293945,-1.6344218254089355,-3.0747432708740234,6.129999999999914
0.627342939376831,-2.1953587532043457,-3.219390869140625,6.1399999999999135
0.8793618679046631,-2.7472376823425293,-3.5360794067382812,6.149999999999913
1.0714988708496094,-2.9155092239379883,-3.4638900756835938,6.159999999999913
1.3561525344848633,-2.6309475898742676,-3.454188108444214,6.169999999999913
1.7018324136734009,-1.9376220703125,-3.344547986984253,6.179999999999913
1.7744364738464355,-1.308347225189209,-3.0159215927124023,6.1899999999999125
1.8306012153625488,-0.5672769546508789,-2.476466655731201,6.199999999999912
1.9226694107055664,-0.0693817138671875,-2.0569710731506348,6.209999999999912
2.091764211654663,0.2654399871826172,-1.69246244430542,6.219999999999912
2.2751588821411133,0.3386421203613281,-1.5372540950775146,6.229999999999912
2.2911593914031982,0.34877967834472656,-1.3030920028686523,6.239999999999911
2.234060287475586,0.3721017837524414,-1.173612117767334,6.249999999999911
2.2992382049560547,0.2711906433105469,-1.1068999767303467,6.259999999999911
2.299293279647827,0.020781517028808594,-1.12672758102417,6.269999999999911
2.3521547317504883,-0.3586149215698242,-1.0530312061309814,6.2799999999999105
2.257875919342041,-0.6448001861572266,-0.9436631202697754,6.28999999999991
2.184302806854248,-0.6339139938354492,-1.0865013599395752,6.29999999999991
2.1027679443359375,-0.39268016815185547,-1.3794910907745361,6.30999999999991
2.222343683242798,-0.02309131622314453,-1.611770510673523,6.31999999999991
2.1234967708587646,0.5089530944824219,-1.7259293794631958,6.3299999999999095
2.13124680519104,1.0529460906982422,-1.776942253112793,6.339999999999909
2.0974619388580322,1.7717313766479492,-1.7458831071853638,6.349999999999909
2.3775577545166016,2.421833038330078,-1.7495115995407104,6.359999999999909
2.6535208225250244,2.640056610107422,-1.9388082027435303,6.369999999999909
2.9485347270965576,2.6654977798461914,-2.203716278076172,6.379999999999908
3.1376874446868896,2.4612627029418945,-2.0649805068969727,6.389999999999908
2.8992629051208496,2.1965579986572266,-1.7607347965240479,6.399999999999908
2.2843990325927734,2.322373390197754,-1.2540984153747559,6.409999999999908
0.961283802986145,3.1333847045898438,-0.6890908479690552,6.419999999999908
-0.1616370677947998,3.8755674362182617,-0.4872727394104004,6.429999999999907
-0.39773011207580566,4.136205673217773,-0.9114639759063721,6.439999999999907
0.3152279853820801,3.795553207397461,-0.4607367515563965,6.449999999999907
0.9546177387237549,2.883951187133789,-2.2407073974609375,6.459999999999907
0.9713828563690186,2.2596445083618164,-3.4142298698425293,6.4699999999999065
1.1537747383117676,2.0838022232055664,-4.074408054351807,6.479999999999906
1.4309139251708984,2.2029428482055664,-4.811609268188477,6.489999999999906
2.048330783843994,2.598886489868164,-5.934443473815918,6.499999999999906
1.9057555198669434,3.5254106521606445,-6.728892803192139,6.509999999999906
1.0122177600860596,4.3198652267456055,-5.778839111328125,6.519999999999905
0.060440778732299805,4.591577529907227,-3.928581476211548,6.529999999999905
-1.0998914241790771,4.724042892456055,-3.4116337299346924,6.539999999999905
-2.2426891326904297,4.971288681030273,-2.9661545753479004,6.549999999999905
-3.547833204269409,5.434612274169922,-1.4576416015625,6.559999999999905
-4.201330184936523,5.818831443786621,-0.6217484474182129,6.569999999999904
-3.85532283782959,5.293713569641113,-0.7446799278259277,6.579999999999904
-3.261716842651367,4.335819244384766,-1.2930340766906738,6.589999999999904
-2.6254401206970215,2.6515731811523438,-1.7714505195617676,6.599999999999904
-2.0547375679016113,0.9120197296142578,-2.4209742546081543,6.6099999999999035
-1.6385438442230225,-0.5348978042602539,-2.8596034049987793,6.619999999999903
-1.119154691696167,-1.4330759048461914,-3.3892574310302734,6.629999999999903
-1.2119817733764648,-1.3537273406982422,-3.5272130966186523,6.639999999999903
-0.10700929164886475,-2.0574870109558105,-4.48124885559082,6.649999999999903
0.4112725853919983,-2.09423828125,-4.7439494132995605,6.659999999999902
0.5354855060577393,-1.565906047821045,-4.635644912719727,6.669999999999902
0.5878850221633911,-0.9926767349243164,-4.053524971008301,6.679999999999902
0.4405618906021118,-0.6531987190246582,-3.506655693054199,6.689999999999902
0.20818305015563965,-0.29048776626586914,-2.496574640274048,6.699999999999902
-0.03101271390914917,-0.09493207931518555,-2.7488157749176025,6.709999999999901
0.07918691635131836,-0.26043176651000977,-2.346691608428955,6.719999999999901
0.11353373527526855,-0.20831012725830078,-2.404271125793457,6.729999999999901
-0.10907614231109619,-0.42636728286743164,-2.322996139526367,6.739999999999901
-0.1711089015007019,-0.6260986328125,-2.9393742084503174,6.7499999999999005
-0.004402518272399902,-1.3267064094543457,-3.4388914108276367,6.7599999999999
0.42605841159820557,-2.182528495788574,-3.5968360900878906,6.7699999999999
0.47077757120132446,-2.2115283012390137,-3.555744171142578,6.7799999999999
0.647861123085022,-3.958003044128418,-3.64880108833313,6.7899999999999
0.3839793801307678,-3.8413846492767334,-2.584968328475952,6.7999999999998995
0.8043729662895203,-3.487064838409424,-2.367724657058716,6.809999999999899
1.1525025367736816,-2.907456874847412,-1.9858160018920898,6.819999999999899
1.5567591190338135,-2.2290306091308594,-1.59625244140625,6.829999999999899
1.6392972469329834,-1.0392389297485352,-1.153573989868164,6.839999999999899
1.6629855632781982,0.2206873893737793,-1.0458602905273438,6.849999999999898
1.6955361366271973,2.0988106727600098,-0.1854996681213379,6.859999999999898
2.369340419769287,3.709941864013672,1.2777247428894043,6.869999999999898
3.3825647830963135,4.262574672698975,1.121236801147461,6.879999999999898
3.5507655143737793,4.384347438812256,0.6053466796875,6.8899999999998975
3.107003927230835,3.938347816467285,0.21086883544921875,6.899999999999897
2.9429433345794678,3.237004280090332,0.17737627029418945,6.909999999999897
2.8094611167907715,2.4570670127868652,0.4532952308654785,6.919999999999897
2.66554856300354,1.6800642013549805,0.696831226348877,6.929999999999897
2.4884653091430664,1.194361686706543,0.8974509239196777,6.9399999999998965
1.9129092693328857,0.6543159484863281,-0.1884598731994629,6.949999999999896
0.8102207183837891,0.7653684616088867,-1.077178955078125,6.959999999999896
0.46578991413116455,1.6138348579406738,-1.2339229583740234,6.969999999999896
0.32283949851989746,2.424640655517578,-1.8080079555511475,6.979999999999896
-0.43941617012023926,3.0296664237976074,-3.281216859817505,6.989999999999895
-2.032033681869507,3.257429599761963,-4.658679008483887,6.999999999999895
-3.8406264781951904,3.773930072784424,-5.553065299987793,7.009999999999895
-5.532724380493164,4.947174549102783,-5.153235912322998,7.019999999999895
-6.209853172302246,6.1837077140808105,-3.445164203643799,7.0299999999998946
-6.353388786315918,7.691987991333008,-0.6375651359558105,7.039999999999894
-5.213037490844727,7.037651062011719,-0.9945945739746094,7.049999999999894
-2.9010722637176514,4.959891319274902,-2.2843244075775146,7.059999999999894
-1.371908187866211,3.6172375679016113,-3.252210855484009,7.069999999999894
-1.3617379665374756,3.6439390182495117,-3.281097650527954,7.0799999999998935
0.33977389335632324,2.8838305473327637,-4.914274215698242,7.089999999999893
1.1661330461502075,2.806297779083252,-4.90273904800415,7.099999999999893
1.9558659791946411,2.691171646118164,-4.694883823394775,7.109999999999893
2.3703231811523438,2.461048126220703,-5.732859134674072,7.119999999999893
2.84812593460083,2.2047266960144043,-5.688365936279297,7.129999999999892
3.2502236366271973,1.8414697647094727,-5.505388259887695,7.139999999999892
3.3982510566711426,1.5384187698364258,-5.423374176025391,7.149999999999892
3.372676372528076,0.9967732429504395,-4.478271484375,7.159999999999892
2.971045732498169,0.6751184463500977,-3.5103185176849365,7.169999999999892
1.320905327796936,0.46483469009399414,-4.691082000732422,7.179999999999891
0.5860469341278076,0.2931227684020996,-4.424295902252197,7.189999999999891
0.12538433074951172,0.1490187644958496,-4.0597076416015625,7.199999999999891
0.14534616470336914,0.11399126052856445,-4.004766464233398,7.209999999999891
-0.2633814811706543,0.29244422912597656,-4.3880085945129395,7.2199999999998905
-0.2362055778503418,0.2556314468383789,-4.326544761657715,7.22999999999989
-1.2165610790252686,1.2559890747070312,-3.9695992469787598,7.23999999999989
-0.8192794322967529,1.6429147720336914,-3.9714882373809814,7.24999999999989
0.6768683195114136,1.4291572570800781,-3.1424782276153564,7.25999999999989
0.9901514053344727,1.2859277725219727,-2.697098970413208,7.269999999999889
0.8714379072189331,1.0198326110839844,-2.873762369155884,7.279999999999889
0.8641612529754639,0.6432819366455078,-2.62825608253479,7.289999999999889
0.8972357511520386,0.4623250961303711,-3.356935501098633,7.299999999999889
1.2664332389831543,0.5936555862426758,-2.7222468852996826,7.309999999999889
0.8084195852279663,1.0695819854736328,-1.6404893398284912,7.319999999999888
0.47503674030303955,0.5837888717651367,-1.6401424407958984,7.329999999999888
0.29800522327423096,-1.0533380508422852,-1.71638822555542,7.339999999999888
1.5693509578704834,0.035592079162597656,-2.862875461578369,7.349999999999888
1.4116017818450928,1.0113344192504883,-3.3365461826324463,7.3599999999998875
1.306862711906433,1.3369970321655273,-2.354093313217163,7.369999999999887
1.348016381263733,1.7918024063110352,-2.1965503692626953,7.379999999999887
1.1897785663604736,2.085268020629883,-2.278208017349243,7.389999999999887
1.703768014907837,2.0499114990234375,-0.16723203659057617,7.399999999999887
2.445369005203247,1.8092966079711914,-0.6478972434997559,7.4099999999998865
2.711658239364624,1.328338623046875,-0.9084007740020752,7.419999999999886
1.1232770681381226,1.1164579391479492,-2.039473056793213,7.429999999999886
0.6409438848495483,0.7646360397338867,-2.5132269859313965,7.439999999999886
0.49080538749694824,0.5228557586669922,-2.9889392852783203,7.449999999999886
0.4074687957763672,0.20878314971923828,-3.61685848236084,7.459999999999885
0.40570521354675293,-0.3895540237426758,-4.040524482727051,7.469999999999885
0.3369344472885132,-0.9043660163879395,-4.549532413482666,7.479999999999885
-0.25473594665527344,-0.8660130500793457,-4.6804633140563965,7.489999999999885
-0.7203534841537476,-0.22173309326171875,-3.993187665939331,7.4999999999998845
-1.0287038087844849,0.6551542282104492,-2.7953319549560547,7.509999999999884
-1.2875303030014038,1.5379467010498047,-2.7053396701812744,7.519999999999884
-1.7427035570144653,2.3165531158447266,-3.9032325744628906,7.529999999999884
-0.39462554454803467,3.6347475051879883,-2.3976805210113525,7.539999999999884
-0.4205925464630127,3.8727846145629883,-5.135120391845703,7.5499999999998835
-0.08440744876861572,4.518974304199219,-1.383073091506958,7.559999999999883
0.3841164708137512,4.401374816894531,-1.2243614196777344,7.569999999999883
-0.040293335914611816,3.708188056945801,-1.679636001586914,7.579999999999883
-0.7278609275817871,2.8585267066955566,-2.011211633682251,7.589999999999883
-0.9057506322860718,2.3503212928771973,-2.314450979232788,7.599999999999882
-0.8636711835861206,2.343395233154297,-1.6345186233520508,7.609999999999882
-0.15841853618621826,2.482916831970215,-1.6465339660644531,7.619999999999882
0.028087615966796875,2.5059633255004883,-1.6310839653015137,7.629999999999882
0.34433209896087646,2.410856246948242,-1.9765710830688477,7.6399999999998816
0.752327561378479,2.0540013313293457,-2.025770902633667,7.649999999999881
0.758007287979126,1.5157051086425781,-1.9364442825317383,7.659999999999881
0.5818774104118347,0.9213905334472656,-2.188784599304199,7.669999999999881
0.24185192584991455,0.37361669540405273,-2.195185899734497,7.679999999999881
-0.1375821828842163,0.007720947265625,-2.232314109802246,7.6899999999998805
-0.5034540891647339,-0.25662803649902344,-2.0210273265838623,7.69999999999988
-0.5919002294540405,-0.2012181282043457,-1.7659811973571777,7.70999999999988
-0.7610833644866943,-0.22061586380004883,-1.813218593597412,7.71999999999988
-0.9314185380935669,-0.31882238388061523,-1.862718105316162,7.72999999999988
-1.183345079421997,-0.5309948921203613,-1.735546588897705,7.739999999999879
-1.1864558458328247,-0.615086555480957,-1.6932497024536133,7.749999999999879
-1.0199717283248901,-0.4444770812988281,-1.553853988647461,7.759999999999879
-0.9441903829574585,-0.29148435592651367,-1.4971981048583984,7.769999999999879
-0.9148222208023071,-0.16373729705810547,-1.4900527000427246,7.779999999999879
-0.8251559734344482,-0.10212182998657227,-1.5777878761291504,7.789999999999878
-0.6562926769256592,-0.04685831069946289,-1.5525245666503906,7.799999999999878
-0.23715054988861084,-0.0065402984619140625,-1.2770280838012695,7.809999999999878
-0.09126162528991699,0.18241024017333984,-1.5063247680664062,7.819999999999878
0.40352892875671387,-0.15224885940551758,-1.2828655242919922,7.8299999999998775
1.2645955085754395,0.6514272689819336,-0.5512909889221191,7.839999999999877
1.724535346031189,0.3931455612182617,-1.7123186588287354,7.849999999999877
2.1303658485412598,0.6805391311645508,-2.200794219970703,7.859999999999877
1.7923626899719238,1.4067020416259766,-2.2608907222747803,7.869999999999877
1.2595243453979492,2.3609018325805664,-1.951979160308838,7.879999999999876
0.19315099716186523,3.2219066619873047,-1.582866907119751,7.889999999999876
-0.5050194263458252,3.8701343536376953,-1.6621124744415283,7.899999999999876
-0.8002234697341919,4.112969398498535,-1.696815013885498,7.909999999999876
-0.3899587392807007,3.177286148071289,-1.4870388507843018,7.919999999999876
-0.29877758026123047,1.847752571105957,-1.5141019821166992,7.929999999999875
-0.3293116092681885,0.6198921203613281,-1.6979873180389404,7.939999999999875
-0.0449368953704834,-0.1008596420288086,-2.0459752082824707,7.949999999999875
0.2772064208984375,-0.5636482238769531,-2.4195151329040527,7.959999999999875
0.5043278336524963,-0.7778534889221191,-2.688704490661621,7.9699999999998745
0.2219831943511963,-0.4961857795715332,-2.4535329341888428,7.979999999999874
0.1817915439605713,0.03483295440673828,-1.4316420555114746,7.989999999999874
0.18070244789123535,0.7291908264160156,-2.044090986251831,7.999999999999874
0.04922187328338623,1.0159540176391602,-2.195028781890869,8.009999999999874
