AccX,AccY,AccZ,SampleRate
2.2719922065734863,0.9609794616699219,0.7527468204498291,0
2.361056327819824,1.0222187042236328,0.816939115524292,0.01
2.6280248165130615,1.0045051574707031,1.0833243131637573,0.02
3.0716075897216797,0.9246807098388672,1.4068571329116821,0.03
3.67913818359375,0.9530391693115234,1.6785120964050293,0.04
4.054962635040283,1.0201950073242188,1.5252156257629395,0.05
4.270231246948242,1.437434196472168,1.2118724584579468,0.060000000000000005
4.453572750091553,2.061465263366699,0.5535807609558105,0.07
4.740151405334473,2.7179012298583984,0.47410520911216736,0.08
4.8362345695495605,3.0019941329956055,0.6428874731063843,0.09
4.378777503967285,2.934873580932617,0.6176193952560425,0.09999999999999999
3.1654281616210938,2.873075485229492,0.48554378747940063,0.10999999999999999
1.5682896375656128,2.85933780670166,-0.024043649435043335,0.11999999999999998
-0.19871503114700317,2.910146713256836,-0.6887511014938354,0.12999999999999998
-0.22435921430587769,2.913066864013672,-0.6911166906356812,0.13999999999999999
-2.582796096801758,2.0444726943969727,-2.1191318035125732,0.15
-3.0482876300811768,1.065842628479004,-2.232243537902832,0.16
-3.356389045715332,0.16884136199951172,-1.8189313411712646,0.17
-3.1822729110717773,-0.35890674591064453,-1.2290596961975098,0.18000000000000002
-2.6091036796569824,-0.49048709869384766,-0.9003008008003235,0.19000000000000003
-1.8188674449920654,-0.2542381286621094,-0.3354429602622986,0.20000000000000004
-1.259448528289795,0.1558389663696289,0.11232852190732956,0.21000000000000005
-1.213039755821228,0.6916475296020508,0.332441508769989,0.22000000000000006
-1.3026305437088013,1.271331787109375,0.054245248436927795,0.23000000000000007
-1.2927922010421753,1.7774581909179688,-0.019710421562194824,0.24000000000000007
-1.3014864921569824,2.063671112060547,-0.07668018341064453,0.25000000000000006
-1.16408371925354,2.084440231323242,-0.0636235773563385,0.26000000000000006
-0.9649364352226257,1.9741840362548828,-0.08667898178100586,0.2700000000000001
-0.5381700992584229,1.3719778060913086,-0.18357861042022705,0.2800000000000001
-0.3125709295272827,0.5511035919189453,-0.0702328085899353,0.2900000000000001
-0.3667691946029663,-0.4599142074584961,-0.01926332712173462,0.3000000000000001
-0.47213542461395264,-1.5104503631591797,0.13440483808517456,0.3100000000000001
-0.7607990503311157,-2.4713668823242188,0.28009843826293945,0.3200000000000001
-0.8281148672103882,-3.072258949279785,0.30704033374786377,0.3300000000000001
-0.6913880109786987,-3.6006321907043457,0.4819127321243286,0.34000000000000014
-0.7168573141098022,-3.6267237663269043,0.569088339805603,0.35000000000000014
-0.5833334922790527,-3.3121256828308105,0.6869620084762573,0.36000000000000015
-0.6163344383239746,-2.6838536262512207,0.9489395618438721,0.37000000000000016
-0.48983287811279297,-2.120114326477051,1.0830070972442627,0.38000000000000017
-0.42525017261505127,-1.8263320922851562,1.152377963066101,0.3900000000000002
-0.3611946105957031,-1.6441621780395508,1.1553112268447876,0.4000000000000002
-0.2080228328704834,-1.774343490600586,1.1028640270233154,0.4100000000000002
0.04496932029724121,-2.21669340133667,1.1794800758361816,0.4200000000000002
0.07173728942871094,-2.6576366424560547,1.2683708667755127,0.4300000000000002
0.09697484970092773,-3.3678112030029297,1.547202467918396,0.4400000000000002
0.21709203720092773,-3.954361915588379,1.7174502611160278,0.45000000000000023
0.38347649574279785,-4.338142395019531,1.7524532079696655,0.46000000000000024
0.4600648880004883,-4.075978755950928,1.7773818969726562,0.47000000000000025
0.6125860214233398,-3.4644856452941895,1.687095046043396,0.48000000000000026
0.8855454921722412,-2.922372817993164,1.5746110677719116,0.49000000000000027
1.1492068767547607,-2.1715073585510254,1.9124966859817505,0.5000000000000002
1.2509765625,-1.5013270378112793,2.1481285095214844,0.5100000000000002
1.306915044784546,-0.5167150497436523,2.0958662033081055,0.5200000000000002
1.2610578536987305,0.9710292816162109,2.0341360569000244,0.5300000000000002
1.2118041515350342,2.3916025161743164,2.0510239601135254,0.5400000000000003
1.3318819999694824,3.5489206314086914,2.5881261825561523,0.5500000000000003
1.2555487155914307,4.3958892822265625,3.2440624237060547,0.5600000000000003
0.8944985866546631,4.47756290435791,3.197415828704834,0.5700000000000003
0.513939380645752,3.602147102355957,3.2325966358184814,0.5800000000000003
0.0889592170715332,2.019746780395508,3.385976791381836,0.5900000000000003
-0.25521302223205566,0.41756248474121094,3.0438835620880127,0.6000000000000003
-1.2816237211227417,-0.31692028045654297,2.1475088596343994,0.6100000000000003
-1.9036197662353516,0.8808259963989258,0.23980951309204102,0.6200000000000003
-1.6798107624053955,3.1678524017333984,0.15948843955993652,0.6300000000000003
0.35593128204345703,6.233640670776367,-0.2789727449417114,0.6400000000000003
1.7713427543640137,7.511996269226074,-0.929261326789856,0.6500000000000004
1.1544697284698486,6.088740348815918,-2.555701971054077,0.6600000000000004
-1.4693135023117065,2.2043771743774414,-3.6332178115844727,0.6700000000000004
-3.420179843902588,-1.2025814056396484,-4.007369041442871,0.6800000000000004
-3.660085916519165,-2.210019111633301,-3.3557515144348145,0.6900000000000004
-2.9954330921173096,-2.6154403686523438,-2.3102219104766846,0.7000000000000004
-2.3308093547821045,-2.016867160797119,-2.0030500888824463,0.7100000000000004
-1.8224552869796753,-1.0351123809814453,-1.7218680381774902,0.7200000000000004
-1.1255323886871338,-0.07476139068603516,-1.7775237560272217,0.7300000000000004
-0.26946282386779785,1.0053110122680664,-2.0001070499420166,0.7400000000000004
0.1963651180267334,1.368612289428711,-1.9050934314727783,0.7500000000000004
0.47731924057006836,1.0225114822387695,-1.7505252361297607,0.7600000000000005
0.38358497619628906,0.3503427505493164,-1.846962809562683,0.7700000000000005
0.2846677303314209,0.022541046142578125,-1.775116205215454,0.7800000000000005
-0.04395604133605957,0.10419750213623047,-1.5484364032745361,0.7900000000000005
-0.7373085021972656,-0.009171485900878906,-1.4039572477340698,0.8000000000000005
-1.3663004636764526,-0.3868684768676758,-1.1789007186889648,0.8100000000000005
-1.815834403038025,-1.0346136093139648,-0.8311498165130615,0.8200000000000005
-1.937500238418579,-1.7744908332824707,-0.7342720031738281,0.8300000000000005
-1.8257920742034912,-2.2504963874816895,-0.7638614773750305,0.8400000000000005
-1.5403110980987549,-2.2697253227233887,-0.7202887535095215,0.8500000000000005
-0.7888144254684448,-1.6748881340026855,-0.8596171140670776,0.8600000000000005
-0.2595384120941162,-0.8568305969238281,-0.9108377695083618,0.8700000000000006
0.43993306159973145,-0.42135143280029297,-0.7948748469352722,0.8800000000000006
1.237735629081726,-0.7985591888427734,-0.7423919439315796,0.8900000000000006
1.77288019657135,-1.4946632385253906,-0.7120848894119263,0.9000000000000006
1.8548325300216675,-2.1605467796325684,-0.5370374917984009,0.9100000000000006
1.8018492460250854,-2.7517642974853516,-0.29597869515419006,0.9200000000000006
1.5968458652496338,-2.9392518997192383,-0.0984087586402893,0.9300000000000006
1.3355116844177246,-2.9347453117370605,0.03785520792007446,0.9400000000000006
1.1495789289474487,-2.7360877990722656,0.14041590690612793,0.9500000000000006
0.9647332429885864,-2.4190359115600586,0.06485575437545776,0.9600000000000006
1.0101191997528076,-2.1671204566955566,0.06588882207870483,0.9700000000000006
0.9637137651443481,-2.058164596557617,0.01137608289718628,0.9800000000000006
0.9570530652999878,-1.9002685546875,-0.24991512298583984,0.9900000000000007
0.8600000143051147,-1.4442634582519531,-0.15174853801727295,1.0000000000000007
0.8316154479980469,-0.8027276992797852,0.09082463383674622,1.0100000000000007
0.6804397106170654,-0.3900108337402344,0.2677517235279083,1.0200000000000007
0.6998640298843384,-0.02653980255126953,0.4959704875946045,1.0300000000000007
0.977658748626709,0.40288639068603516,0.7223793268203735,1.0400000000000007
1.1814749240875244,0.7377786636352539,0.8238667845726013,1.0500000000000007
1.8296339511871338,1.1262941360473633,0.7723156809806824,1.0600000000000007
2.506398916244507,1.5948410034179688,0.6298104524612427,1.0700000000000007
3.267545223236084,2.1361331939697266,0.6536632776260376,1.0800000000000007
3.9077391624450684,2.5489768981933594,0.6037089824676514,1.0900000000000007
4.34841775894165,2.6055526733398438,0.8884155750274658,1.1000000000000008
4.278271198272705,2.3606367111206055,1.1837079524993896,1.1100000000000008
3.8367760181427,1.9099092483520508,1.4444831609725952,1.1200000000000008
2.7634406089782715,2.026945114135742,1.5684828758239746,1.1300000000000008
2.085456371307373,2.6643104553222656,-0.9014955759048462,1.1400000000000008
1.6661626100540161,3.5647125244140625,-2.658578634262085,1.1500000000000008
0.15201783180236816,3.689488410949707,-2.4602322578430176,1.1600000000000008
-1.0329433679580688,2.97829532623291,-1.7379398345947266,1.1700000000000008
-1.5223517417907715,1.7354373931884766,-1.8532801866531372,1.1800000000000008
-1.5334826707839966,1.184640884399414,-2.4222891330718994,1.1900000000000008
-1.7336452007293701,1.6436939239501953,-2.3704605102539062,1.2000000000000008
-1.9675824642181396,2.2232742309570312,-1.8332291841506958,1.2100000000000009
-2.1675238609313965,2.6258039474487305,-1.1454778909683228,1.2200000000000009
-1.9942028522491455,2.903531074523926,-1.2711924314498901,1.2300000000000009
-1.5732605457305908,3.133279800415039,-0.9970114231109619,1.2400000000000009
-1.3194485902786255,3.4923934936523438,-0.5112847685813904,1.2500000000000009
-1.124029278755188,3.822847366333008,-0.27406972646713257,1.260000000000001
-1.0177130699157715,3.84213924407959,-0.10429584980010986,1.270000000000001
-0.6264393329620361,3.11667537689209,-0.012159287929534912,1.280000000000001
-0.41899967193603516,2.3189754486083984,-0.3353182077407837,1.290000000000001
-0.4383962154388428,1.1924724578857422,-0.3681822419166565,1.300000000000001
-0.3069732189178467,0.08443546295166016,-0.26032233238220215,1.310000000000001
-0.2808499336242676,-1.001556396484375,-0.11040574312210083,1.320000000000001
-0.4350012540817261,-2.0673069953918457,-0.06807577610015869,1.330000000000001
-0.7159280776977539,-3.077075481414795,-0.08469855785369873,1.340000000000001
-0.8494242429733276,-3.5095009803771973,9.957551956176758E-4,1.350000000000001
-0.9116551876068115,-3.724412441253662,0.16121983528137207,1.360000000000001
-0.9184631109237671,-3.7198777198791504,0.26598072052001953,1.370000000000001
-1.2314822673797607,-3.537642002105713,0.3786119222640991,1.380000000000001
-1.7054749727249146,-3.2503256797790527,0.42951130867004395,1.390000000000001
-1.9465014934539795,-2.840719223022461,0.4036937952041626,1.400000000000001
-1.7808587551116943,-2.7581114768981934,0.4205291271209717,1.410000000000001
-1.5280920267105103,-2.790922164916992,0.6036074161529541,1.420000000000001
-0.9607661962509155,-3.017545700073242,0.7368308305740356,1.430000000000001
-0.6194641590118408,-3.4406914710998535,0.9460083246231079,1.440000000000001
-0.36910009384155273,-3.9248294830322266,1.0331668853759766,1.450000000000001
-0.1356182098388672,-4.477680206298828,0.993464469909668,1.460000000000001
0.00449371337890625,-4.79319429397583,0.9937582015991211,1.470000000000001
-0.05212807655334473,-4.696578025817871,1.1223876476287842,1.480000000000001
-0.03436160087585449,-4.242678642272949,1.384531855583191,1.490000000000001
0.17005491256713867,-3.667555809020996,1.617493987083435,1.500000000000001
0.6085250377655029,-2.840165138244629,1.363179326057434,1.5100000000000011
0.9367482662200928,-1.3259210586547852,0.6963280439376831,1.5200000000000011
1.206334114074707,0.05954170227050781,0.5999386310577393,1.5300000000000011
1.5458688735961914,1.5969924926757812,1.1628378629684448,1.5400000000000011
1.8091349601745605,2.807199478149414,1.8136030435562134,1.5500000000000012
1.8545324802398682,3.489992141723633,1.9761449098587036,1.5600000000000012
1.4750638008117676,3.6938724517822266,1.9498209953308105,1.5700000000000012
0.8756000995635986,3.096933364868164,2.3221240043640137,1.5800000000000012
0.48345160484313965,2.4031906127929688,2.964116334915161,1.5900000000000012
0.3200979232788086,1.6047515869140625,3.494568109512329,1.6000000000000012
-0.2226879596710205,1.2086009979248047,3.2762415409088135,1.6100000000000012
-1.2299772500991821,2.851344108581543,-0.1034536361694336,1.6200000000000012
-1.7873637676239014,6.113709449768066,-0.571617841720581,1.6300000000000012
-0.23158717155456543,10.574190139770508,0.8654708862304688,1.6400000000000012
1.5838212966918945,12.637275695800781,1.1173551082611084,1.6500000000000012
2.34177827835083,10.77821159362793,-0.34818029403686523,1.6600000000000013
-0.6848399639129639,3.6794347763061523,-2.0054357051849365,1.6700000000000013
-3.201138496398926,-2.4518895149230957,-3.6112565994262695,1.6800000000000013
-3.8538999557495117,-5.0826239585876465,-3.6755504608154297,1.6900000000000013
-3.013944149017334,-5.640085220336914,-2.351240634918213,1.7000000000000013
-1.5253773927688599,-5.269846439361572,-1.7954673767089844,1.7100000000000013
0.04947710037231445,-3.546236991882324,-1.8290724754333496,1.7200000000000013
1.2420389652252197,-1.3404102325439453,-2.1622812747955322,1.7300000000000013
1.8840961456298828,1.2474708557128906,-2.916264533996582,1.7400000000000013
1.753784418106079,3.1955909729003906,-3.006444215774536,1.7500000000000013
0.2415330410003662,3.405245780944824,-2.675013780593872,1.7600000000000013
-1.482292652130127,2.4579906463623047,-2.4788293838500977,1.7700000000000014
-2.546645164489746,1.1240758895874023,-2.126925468444824,1.7800000000000014
-2.95263409614563,0.0860433578491211,-1.8117928504943848,1.7900000000000014
-3.0093510150909424,-0.44066810607910156,-1.594771385192871,1.8000000000000014
-2.389737367630005,-0.9852323532104492,-1.5276116132736206,1.8100000000000014
-1.9555577039718628,-1.4744272232055664,-1.3684625625610352,1.8200000000000014
-1.9085969924926758,-1.4949455261230469,-1.295853614807129,1.8300000000000014
-1.234001636505127,-2.489105701446533,-1.0102200508117676,1.8400000000000014
-0.989888608455658,-2.708250045776367,-1.083999752998352,1.8500000000000014
-0.5417981147766113,-2.5214762687683105,-1.2856215238571167,1.8600000000000014
-0.07281804084777832,-2.0575623512268066,-1.3835303783416748,1.8700000000000014
-0.05367588996887207,-2.0690464973449707,-1.3180279731750488,1.8800000000000014
0.5450981855392456,-1.760396957397461,-0.9082841873168945,1.8900000000000015
1.0638751983642578,-2.346597671508789,-0.7745887041091919,1.9000000000000015
1.8486708402633667,-2.824122428894043,-0.7235531210899353,1.9100000000000015
1.8392901420593262,-2.7624449729919434,-0.4451771080493927,1.9200000000000015
1.7582932710647583,-2.5549802780151367,-0.10754644870758057,1.9300000000000015
1.4941308498382568,-2.168212890625,0.1490415334701538,1.9400000000000015
1.174820899963379,-1.8010907173156738,0.3557814359664917,1.9500000000000015
1.1543351411819458,-1.5686941146850586,0.47705453634262085,1.9600000000000015
1.0421688556671143,-1.2623767852783203,0.5085249543190002,1.9700000000000015
0.8872805833816528,-1.1094169616699219,0.4472768306732178,1.9800000000000015
0.8142319917678833,-1.183680534362793,0.37779057025909424,1.9900000000000015
0.7280322313308716,-1.1639909744262695,0.18476387858390808,2.0000000000000013
0.7977786064147949,-1.1747980117797852,0.22048547863960266,2.010000000000001
0.9805115461349487,-0.08595848083496094,0.44331422448158264,2.020000000000001
1.2958438396453857,0.6661968231201172,0.6841983795166016,2.0300000000000007
2.009084701538086,0.9555807113647461,0.8465856313705444,2.0400000000000005
2.0535788536071777,0.9501380920410156,0.8701380491256714,2.0500000000000003
3.3393967151641846,1.1474876403808594,1.3693434000015259,2.06
4.014962673187256,1.1927881240844727,1.6338810920715332,2.07
4.799064636230469,1.1958160400390625,1.442528247833252,2.0799999999999996
5.465644836425781,1.0222206115722656,1.2468663454055786,2.0899999999999994
5.72035026550293,0.9690256118774414,0.8778967261314392,2.099999999999999
4.807298183441162,1.3689069747924805,0.6748111248016357,2.109999999999999
2.6387243270874023,2.2862653732299805,-0.8264466524124146,2.1199999999999988
1.4269342422485352,3.0148849487304688,-2.9005305767059326,2.1299999999999986
-0.12340348958969116,3.6228370666503906,-2.824673891067505,2.1399999999999983
-1.924306869506836,3.2987537384033203,-2.3232312202453613,2.149999999999998
-2.98366379737854,2.150416374206543,-2.1181962490081787,2.159999999999998
-3.4185099601745605,1.409149169921875,-2.0835256576538086,2.1699999999999977
-3.5984885692596436,2.236382484436035,-2.0008397102355957,2.1799999999999975
-3.6931333541870117,2.249321937561035,-2.0342814922332764,2.1899999999999973
-2.715864658355713,4.155220031738281,-1.5970685482025146,2.199999999999997
-2.440434694290161,4.519427299499512,-1.12507164478302,2.209999999999997
-1.9209314584732056,4.636926651000977,-0.84931880235672,2.2199999999999966
-1.6006416082382202,4.893248558044434,-0.7793747186660767,2.2299999999999964
-1.4459223747253418,5.067828178405762,-0.7099041938781738,2.239999999999996
-1.1011645793914795,4.7608842849731445,-0.7932465076446533,2.249999999999996
-0.8733140826225281,3.7093944549560547,-0.6315469145774841,2.259999999999996
-0.5757462978363037,2.2627525329589844,-0.3886633515357971,2.2699999999999956
-0.5146051645278931,1.034210205078125,-0.2902470529079437,2.2799999999999954
-0.5643353462219238,1.0488367080688477,-0.34483978152275085,2.289999999999995
-0.7579025030136108,-1.3654680252075195,-0.12064093351364136,2.299999999999995
-0.897804856300354,-2.326964855194092,0.06333023309707642,2.3099999999999947
-1.0060571432113647,-3.1669411659240723,0.030640363693237305,2.3199999999999945
-1.2846722602844238,-3.6730499267578125,0.05913996696472168,2.3299999999999943
-1.08467435836792,-4.016487121582031,0.16417360305786133,2.339999999999994
-0.7117074728012085,-4.179157257080078,0.12305808067321777,2.349999999999994
-0.6470750570297241,-4.198918342590332,0.15645062923431396,2.3599999999999937
-0.7528883218765259,-4.105531692504883,0.10964763164520264,2.3699999999999934
-1.0155665874481201,-3.7192883491516113,0.19622039794921875,2.3799999999999932
-1.1772104501724243,-3.240581512451172,0.4728078842163086,2.389999999999993
-1.197791337966919,-3.0005526542663574,0.6181859970092773,2.399999999999993
-1.0737905502319336,-2.8421554565429688,0.5795912742614746,2.4099999999999926
-0.8974646329879761,-2.8913893699645996,0.691490650177002,2.4199999999999924
-0.789099931716919,-3.301301956176758,0.9676991701126099,2.429999999999992
-0.7250502109527588,-3.8135576248168945,1.131813645362854,2.439999999999992
-0.548187255859375,-4.371517181396484,1.2651516199111938,2.4499999999999917
-0.32278990745544434,-4.693201065063477,1.2542887926101685,2.4599999999999915
-0.32467174530029297,-4.690558433532715,1.24245285987854,2.4699999999999913
0.16989374160766602,-4.0454816818237305,1.5602402687072754,2.479999999999991
0.5382347106933594,-3.375260353088379,1.4633477926254272,2.489999999999991
0.8418948650360107,-2.116650104522705,1.093273639678955,2.4999999999999907
0.8600842952728271,-2.117231845855713,1.074022889137268,2.5099999999999905
1.105846881866455,1.484375,1.321303367614746,2.5199999999999902
1.2257227897644043,3.201139450073242,1.8272465467453003,2.52999999999999
1.5410902500152588,4.115263938903809,1.8958404064178467,2.53999999999999
1.3517310619354248,4.329563140869141,2.1758177280426025,2.5499999999999896
0.9884099960327148,4.229853630065918,3.026289463043213,2.5599999999999894
0.6522738933563232,3.6766157150268555,3.7234106063842773,2.569999999999989
0.6963136196136475,2.4455814361572266,4.088112831115723,2.579999999999989
0.6309411525726318,0.7047576904296875,4.346219062805176,2.5899999999999888
-0.717193603515625,-0.6808147430419922,1.3724572658538818,2.5999999999999885
-1.4518431425094604,0.5348224639892578,-1.9735091924667358,2.6099999999999883
-1.4447286128997803,3.974747657775879,-2.4820542335510254,2.619999999999988
0.2909672260284424,8.1145601272583,-1.4990177154541016,2.629999999999988
1.6881992816925049,10.117571830749512,-1.88392972946167,2.6399999999999877
1.3175177574157715,9.730169296264648,-3.485236167907715,2.6499999999999875
1.3117468357086182,9.733719825744629,-3.4928393363952637,2.6599999999999873
-3.538421154022217,-0.10972785949707031,-4.11807107925415,2.669999999999987
-3.3568215370178223,-2.3418850898742676,-2.576908588409424,2.679999999999987
-2.9501841068267822,-2.4926977157592773,-1.5754523277282715,2.6899999999999866
-2.010899066925049,-1.6774797439575195,-1.0886446237564087,2.6999999999999864
-0.8614448308944702,-0.45418357849121094,-0.9591468572616577,2.709999999999986
0.31882572174072266,0.2999897003173828,-1.1167904138565063,2.719999999999986
0.9195902347564697,0.30157470703125,-1.3998818397521973,2.7299999999999858
0.9661884307861328,-0.060835838317871094,-1.8331633806228638,2.7399999999999856
0.520200252532959,-0.5195579528808594,-2.038630247116089,2.7499999999999853
0.06891512870788574,-0.9336338043212891,-2.128979206085205,2.759999999999985
-0.8203600645065308,-0.6142082214355469,-1.9861830472946167,2.769999999999985
-1.458373785018921,-0.16622352600097656,-1.9723610877990723,2.7799999999999847
-1.7182023525238037,-0.18021869659423828,-1.8077472448349,2.7899999999999845
-1.8828458786010742,-0.6514196395874023,-1.5960330963134766,2.7999999999999843
-1.6426825523376465,-1.5886402130126953,-1.494621753692627,2.809999999999984
-1.4278723001480103,-2.3055944442749023,-1.4766603708267212,2.819999999999984
-1.158260703086853,-2.476593494415283,-1.5167521238327026,2.8299999999999836
-0.769739031791687,-2.1990432739257812,-1.3972524404525757,2.8399999999999834
-0.37932276725769043,-1.9999737739562988,-1.2089486122131348,2.849999999999983
0.20220768451690674,-1.9415245056152344,-1.0807877779006958,2.859999999999983
0.7506295442581177,-2.107351303100586,-0.9856722354888916,2.869999999999983
1.08403480052948,-2.3466367721557617,-0.4711637496948242,2.8799999999999826
1.3062312602996826,-2.396707057952881,-0.5449423789978027,2.8899999999999824
0.9545990228652954,-2.3111672401428223,-0.08781158924102783,2.899999999999982
0.9652892351150513,-2.2382936477661133,0.16570979356765747,2.909999999999982
0.883618950843811,-2.1369752883911133,0.23725157976150513,2.9199999999999817
0.9648716449737549,-2.263021469116211,0.32132571935653687,2.9299999999999815
1.156280755996704,-2.448333740234375,0.24534600973129272,2.9399999999999813
0.9413608312606812,-2.3507256507873535,0.26147449016571045,2.949999999999981
1.0202518701553345,-1.9970192909240723,0.28138166666030884,2.959999999999981
0.9339507818222046,-1.253006935119629,0.353118896484375,2.9699999999999807
1.2072172164916992,-0.2597465515136719,0.39690732955932617,2.9799999999999804
1.7379181385040283,0.4424715042114258,0.3628802001476288,2.9899999999999802
1.9587243795394897,0.9594888687133789,0.29239046573638916,2.99999999999998
2.043206214904785,1.2649917602539062,0.5571446418762207,3.00999999999998
2.3728890419006348,1.272841453552246,0.844794750213623,3.0199999999999796
2.798750400543213,1.1240854263305664,0.9543462991714478,3.0299999999999794
3.4618897438049316,0.8233432769775391,0.7917569875717163,3.039999999999979
4.258969783782959,0.7345170974731445,0.7223859429359436,3.049999999999979
4.959731101989746,0.9653863906860352,0.9320884943008423,3.0599999999999787
4.567148685455322,1.7982559204101562,1.1937081813812256,3.0699999999999785
3.2193121910095215,3.060675621032715,-0.25088638067245483,3.0799999999999783
2.605569839477539,4.037350654602051,-2.5261828899383545,3.089999999999978
1.6995875835418701,4.607006072998047,-3.0928854942321777,3.099999999999978
-0.11941921710968018,4.025206565856934,-2.56185245513916,3.1099999999999777
-1.4708809852600098,2.6728029251098633,-2.6996822357177734,3.1199999999999775
-1.846963882446289,1.895766258239746,-2.924084424972534,3.1299999999999772
-2.2400574684143066,2.1650991439819336,-2.656621217727661,3.139999999999977
-2.427610397338867,3.0843372344970703,-2.755520820617676,3.149999999999977
-2.553534984588623,4.0299787521362305,-2.145153760910034,3.1599999999999766
-2.6530840396881104,4.496246337890625,-1.4320155382156372,3.1699999999999764
-2.4384984970092773,4.514130592346191,-1.0036578178405762,3.179999999999976
-2.26928973197937,4.512499809265137,-0.469814658164978,3.189999999999976
-2.1636221408843994,4.7790327072143555,-0.09725290536880493,3.1999999999999758
-2.0949668884277344,4.672301292419434,0.010867297649383545,3.2099999999999755
-1.7603641748428345,3.988936424255371,0.2057894468307495,3.2199999999999753
-1.0602962970733643,2.9278602600097656,0.2852322459220886,3.229999999999975
-0.6485902070999146,1.8673133850097656,-0.0642162561416626,3.239999999999975
-0.23280644416809082,0.6402139663696289,-0.4223986864089966,3.2499999999999747
0.1254410743713379,-1.1159257888793945,-0.44638270139694214,3.2599999999999745
0.03420090675354004,-2.452979564666748,-0.3827823996543884,3.2699999999999743
-0.012746572494506836,-3.992342472076416,-0.29987823963165283,3.279999999999974
-0.021653175354003906,-5.095576286315918,-0.29276013374328613,3.289999999999974
-0.16236543655395508,-5.632840156555176,-0.28724002838134766,3.2999999999999736
-0.38704657554626465,-5.66385555267334,-0.1656256914138794,3.3099999999999734
-1.1512588262557983,-5.096585273742676,-0.1334075927734375,3.319999999999973
-1.901951789855957,-4.446188926696777,0.13867318630218506,3.329999999999973
-2.3351895809173584,-3.952932357788086,0.47267818450927734,3.3399999999999728
-2.6295716762542725,-3.5955886840820312,0.7062638998031616,3.3499999999999726
-2.463442087173462,-3.4493680000305176,0.7655434608459473,3.3599999999999723
-2.2490758895874023,-3.4003243446350098,0.6178984642028809,3.369999999999972
-1.851482629776001,-3.4743781089782715,0.5209593772888184,3.379999999999972
-1.366653323173523,-3.7146835327148438,0.742684006690979,3.3899999999999717
-0.7952381372451782,-4.023707866668701,1.1279798746109009,3.3999999999999715
-0.1776437759399414,-4.024287700653076,1.4345018863677979,3.4099999999999713
0.21048665046691895,-3.585366725921631,1.6672065258026123,3.419999999999971
0.5726914405822754,-3.0494232177734375,1.6775362491607666,3.429999999999971
0.9887259006500244,-2.4326605796813965,1.5841286182403564,3.4399999999999706
1.1852169036865234,-1.8540349006652832,1.7046642303466797,3.4499999999999704
1.259476900100708,-0.8338909149169922,1.9864559173583984,3.45999999999997
1.4202911853790283,0.6785202026367188,2.0033304691314697,3.46999999999997
1.4651715755462646,2.004831314086914,1.762772798538208,3.47999999999997
1.4379897117614746,3.302187919616699,1.6484408378601074,3.4899999999999696
1.3242058753967285,4.536409378051758,1.9838871955871582,3.4999999999999694
1.2716612815856934,4.893324851989746,2.300677537918091,3.509999999999969
1.1880080699920654,4.490758895874023,2.574078321456909,3.519999999999969
0.6703894138336182,3.5809059143066406,2.782123327255249,3.5299999999999687
-0.24465465545654297,2.5384521484375,2.9600670337677,3.5399999999999685
-0.23775243759155273,2.547327995300293,2.917022228240967,3.5499999999999683
-1.8483048677444458,5.402693748474121,0.2843506336212158,3.559999999999968
-1.521365761756897,8.769608497619629,0.58219313621521,3.569999999999968
0.903451681137085,11.637567520141602,0.6842925548553467,3.5799999999999677
2.2284462451934814,11.268413543701172,0.4058692455291748,3.5899999999999674
0.11655330657958984,6.41317081451416,-0.9158061742782593,3.5999999999999672
-2.7056992053985596,-0.16810131072998047,-2.58774733543396,3.609999999999967
-3.6492013931274414,-3.5892763137817383,-4.170841217041016,3.619999999999967
-3.3470571041107178,-4.386260986328125,-3.5719645023345947,3.6299999999999666
-1.727250099182129,-4.967683792114258,-2.1175131797790527,3.6399999999999664
-0.09327459335327148,-4.25705623626709,-1.5782312154769897,3.649999999999966
1.0789523124694824,-2.752925395965576,-1.8581714630126953,3.659999999999966
1.9722719192504883,-1.0178842544555664,-2.4680073261260986,3.6699999999999657
2.2086243629455566,0.6309881210327148,-2.892849922180176,3.6799999999999655
1.8962132930755615,1.1243572235107422,-2.9601783752441406,3.6899999999999653
0.6142885684967041,0.7054948806762695,-2.767214298248291,3.699999999999965
-0.5667111873626709,-0.26880836486816406,-2.186696767807007,3.709999999999965
-1.7296208143234253,-0.7726240158081055,-1.7176783084869385,3.7199999999999647
-2.1643621921539307,-1.0933008193969727,-1.6004180908203125,3.7299999999999645
-2.0138609409332275,-1.4290876388549805,-1.545386791229248,3.7399999999999642
-1.9702882766723633,-1.5676302909851074,-1.4427305459976196,3.749999999999964
-1.755244493484497,-1.7462472915649414,-1.2586983442306519,3.759999999999964
-1.475693941116333,-2.1828765869140625,-1.1186033487319946,3.7699999999999636
-1.3948113918304443,-2.7197275161743164,-1.0695728063583374,3.7799999999999634
-1.0306259393692017,-3.1332287788391113,-1.184997797012329,3.789999999999963
-0.5025548934936523,-3.123587131500244,-1.3369277715682983,3.799999999999963
-0.20480597019195557,-2.501026153564453,-1.3144257068634033,3.8099999999999627
-8.928775787353516E-4,-1.5920886993408203,-1.049463152885437,3.8199999999999625
0.2471916675567627,-1.3397655487060547,-0.7846843004226685,3.8299999999999623
0.5519992113113403,-1.5612363815307617,-0.5657699108123779,3.839999999999962
0.7673460245132446,-1.9733290672302246,-0.25379908084869385,3.849999999999962
0.886728048324585,-2.348419666290283,0.1625375747680664,3.8599999999999617
0.8720589876174927,-2.461905002593994,0.42865991592407227,3.8699999999999615
0.8006943464279175,-2.278383731842041,0.5773873925209045,3.8799999999999613
0.99733567237854,-1.9584922790527344,0.6751713156700134,3.889999999999961
1.3485143184661865,-1.5260601043701172,0.7172380089759827,3.899999999999961
1.655890941619873,-1.1365156173706055,0.7200825214385986,3.9099999999999606
1.8819531202316284,-0.8232898712158203,0.45179325342178345,3.9199999999999604
1.9083205461502075,-0.5192270278930664,0.2697139382362366,3.92999999999996
1.9464044570922852,-0.31282997131347656,0.18487268686294556,3.93999999999996
1.6199438571929932,0.09528255462646484,0.47729405760765076,3.9499999999999598
1.5178111791610718,0.5134916305541992,0.8918043375015259,3.9599999999999596
1.6976332664489746,1.0882749557495117,1.1012283563613892,3.9699999999999593
2.1469411849975586,1.8296175003051758,1.3637683391571045,3.979999999999959
2.624466896057129,2.1607065200805664,1.3227366209030151,3.989999999999959
3.061133861541748,2.2491378784179688,1.0468018054962158,3.9999999999999587
3.074537754058838,2.2476940155029297,1.0691502094268799,4.009999999999959
3.7114696502685547,2.103205680847168,1.0778015851974487,4.019999999999959
3.8049230575561523,1.9350614547729492,1.4057252407073975,4.0299999999999585
4.004299163818359,1.6450157165527344,1.4481483697891235,4.039999999999958
3.862215995788574,1.3074569702148438,1.5289080142974854,4.049999999999958
3.027923107147217,1.3246984481811523,1.583497405052185,4.059999999999958
3.013275623321533,1.3259468078613281,1.5903167724609375,4.069999999999958
0.23947066068649292,2.590547561645508,-3.073080062866211,4.079999999999957
-1.042698860168457,2.8376388549804688,-3.5847771167755127,4.089999999999957
-2.082698345184326,1.9925832748413086,-3.1731715202331543,4.099999999999957
-2.3042263984680176,1.070718765258789,-3.1325511932373047,4.109999999999957
-1.921662449836731,0.5632181167602539,-2.906954765319824,4.119999999999957
-1.5423554182052612,1.4895343780517578,-2.3860864639282227,4.129999999999956
-1.4019757509231567,3.417522430419922,-2.107156276702881,4.139999999999956
-1.6242518424987793,5.072587013244629,-2.1105785369873047,4.149999999999956
-1.9527356624603271,6.092516899108887,-1.6180499792099,4.159999999999956
-1.8977537155151367,6.2331132888793945,-1.1313283443450928,4.1699999999999555
-1.823294997215271,5.870865821838379,-0.7404779195785522,4.179999999999955
-1.9142076969146729,5.1901702880859375,-0.36876633763313293,4.189999999999955
-2.0954573154449463,4.191099166870117,-0.07514971494674683,4.199999999999955
-1.9218121767044067,2.823843002319336,0.030016183853149414,4.209999999999955
-1.401529312133789,1.201725959777832,0.14083099365234375,4.2199999999999545
-1.0330067873001099,-0.15967082977294922,0.015470445156097412,4.229999999999954
-0.6643458604812622,-1.7793798446655273,0.2659188508987427,4.239999999999954
-0.18065190315246582,-3.4035086631774902,0.328304648399353,4.249999999999954
0.05052447319030762,-4.610742568969727,0.07603371143341064,4.259999999999954
0.32506680488586426,-5.444521903991699,-0.11474847793579102,4.269999999999953
0.5803036689758301,-5.772339820861816,-0.21898043155670166,4.279999999999953
0.75789475440979,-5.751532554626465,-0.11930787563323975,4.289999999999953
0.5830872058868408,-5.431427478790283,0.08745849132537842,4.299999999999953
-0.11626935005187988,-4.765445232391357,0.28643977642059326,4.3099999999999525
-0.8164025545120239,-3.8922410011291504,0.5219330787658691,4.319999999999952
-1.3823539018630981,-3.0735764503479004,0.7027466297149658,4.329999999999952
-1.7168076038360596,-2.3505029678344727,0.7314393520355225,4.339999999999952
-1.7014234066009521,-2.1156973838806152,0.6450541019439697,4.349999999999952
-1.5084397792816162,-2.123260021209717,0.5759849548339844,4.3599999999999515
-1.319775104522705,-2.447218894958496,0.699636697769165,4.369999999999951
-1.2036020755767822,-3.0430374145507812,0.8128839731216431,4.379999999999951
-0.9376264810562134,-3.564225673675537,1.2852978706359863,4.389999999999951
-0.43849408626556396,-3.652050495147705,1.7479742765426636,4.399999999999951
-0.1646178960800171,-3.37153959274292,2.155749797821045,4.40999999999995
0.15189647674560547,-2.9550414085388184,2.250662326812744,4.41999999999995
0.5382373332977295,-2.3497815132141113,1.89027738571167,4.42999999999995
0.8019003868103027,-1.3064231872558594,1.6747833490371704,4.43999999999995
1.0706779956817627,0.04117393493652344,1.7264984846115112,4.4499999999999496
1.4024107456207275,1.7723960876464844,1.9021916389465332,4.459999999999949
1.627166748046875,2.926680564880371,2.1585354804992676,4.469999999999949
1.6715986728668213,3.8079729080200195,2.4975438117980957,4.479999999999949
1.371168613433838,4.129602432250977,2.6975693702697754,4.489999999999949
0.7223825454711914,3.9242382049560547,3.054119110107422,4.4999999999999485
0.2713794708251953,2.9423227310180664,3.510739326477051,4.509999999999948
0.19588088989257812,1.221165657043457,4.044617652893066,4.519999999999948
0.33437180519104004,-0.6275882720947266,4.132524490356445,4.529999999999948
0.553499698638916,-2.7961173057556152,3.7759408950805664,4.539999999999948
-0.4346116781234741,-2.556792736053467,-0.5514427423477173,4.549999999999947
-1.9839541912078857,-0.33127498626708984,-3.2680063247680664,4.559999999999947
-2.2807674407958984,3.7132434844970703,-3.924689769744873,4.569999999999947
-0.7313705682754517,10.04300308227539,-4.2121357917785645,4.579999999999947
1.2898805141448975,14.333625793457031,-3.2005438804626465,4.589999999999947
1.8376281261444092,15.7382173538208,-3.527418613433838,4.599999999999946
-1.8049676418304443,7.6661882400512695,-5.193853378295898,4.609999999999946
-3.24971866607666,-0.9721908569335938,-4.654874801635742,4.619999999999946
-2.6982569694519043,-5.990332126617432,-1.8343111276626587,4.629999999999946
-3.4752721786499023,-6.383723258972168,-0.869731068611145,4.6399999999999455
-2.386059522628784,-4.242697715759277,-0.46917879581451416,4.649999999999945
-0.5377168655395508,-2.156435966491699,-0.7181532382965088,4.659999999999945
0.8558530807495117,-1.0778350830078125,-1.6736195087432861,4.669999999999945
1.3529345989227295,0.09353923797607422,-2.2477517127990723,4.679999999999945
1.4316880702972412,1.0145959854125977,-2.552724599838257,4.689999999999944
0.8336186408996582,1.6447982788085938,-2.7090530395507812,4.699999999999944
-0.09208989143371582,1.9083471298217773,-2.6406593322753906,4.709999999999944
-1.0849429368972778,1.9719676971435547,-2.2066917419433594,4.719999999999944
-1.9310457706451416,1.720388412475586,-1.7157180309295654,4.729999999999944
-2.050459146499634,0.6601886749267578,-1.4728928804397583,4.739999999999943
-1.9120630025863647,-0.8442277908325195,-1.471365213394165,4.749999999999943
-1.7081422805786133,-2.2838993072509766,-1.2951838970184326,4.759999999999943
-1.2323036193847656,-3.073719024658203,-0.997899055480957,4.769999999999943
-0.5643986463546753,-3.5569615364074707,-0.7987221479415894,4.7799999999999425
-0.1911780834197998,-3.329733371734619,-0.710260808467865,4.789999999999942
0.509135365486145,-3.1373062133789062,-0.5635464787483215,4.799999999999942
1.2244175672531128,-3.158956527709961,-0.4241141676902771,4.809999999999942
1.6483386754989624,-3.2779293060302734,-0.3080955147743225,4.819999999999942
1.8959496021270752,-3.294032573699951,-0.19584870338439941,4.8299999999999415
1.9814342260360718,-3.0399465560913086,-0.11495423316955566,4.839999999999941
1.7503437995910645,-2.432420253753662,0.07023614645004272,4.849999999999941
1.3428540229797363,-1.6586527824401855,0.34296292066574097,4.859999999999941
1.0927211046218872,-1.1015548706054688,0.5218501091003418,4.869999999999941
0.8166860342025757,-0.7365694046020508,0.5886313915252686,4.87999999999994
0.8348989486694336,-0.651515007019043,0.4242156744003296,4.88999999999994
0.7867770195007324,-0.5897064208984375,0.28202423453330994,4.89999999999994
0.5545617341995239,-0.4816770553588867,0.09074258804321289,4.90999999999994
0.26547467708587646,-0.5528421401977539,-0.009119033813476562,4.9199999999999395
0.16109120845794678,-0.666630744934082,0.12477660179138184,4.929999999999939
-0.12564444541931152,-0.12618541717529297,0.5448430776596069,4.939999999999939
-0.11815530061721802,0.4722871780395508,0.9028482437133789,4.949999999999939
0.3673437833786011,0.9618339538574219,1.240113615989685,4.959999999999939
1.1234142780303955,1.147848129272461,1.5354151725769043,4.9699999999999385
2.3197860717773438,0.9363126754760742,1.7040927410125732,4.979999999999938
3.1626410484313965,0.6692390441894531,1.6462020874023438,4.989999999999938
4.217835903167725,0.4225921630859375,1.610627293586731,4.999999999999938
5.027165412902832,0.27976131439208984,1.4755058288574219,5.009999999999938
5.793094635009766,0.06325435638427734,1.4800399541854858,5.019999999999937
5.978208541870117,4.024505615234375E-4,0.9681552052497864,5.029999999999937
4.9063920974731445,0.39511966705322266,0.7955562472343445,5.039999999999937
2.8504083156585693,1.1013298034667969,-1.6665208339691162,5.049999999999937
0.9670107364654541,2.076815605163574,-3.871922492980957,5.0599999999999365
-0.735343337059021,2.9369707107543945,-3.7137434482574463,5.069999999999936
-2.4894895553588867,3.307781219482422,-3.9884285926818848,5.079999999999936
-3.5984139442443848,3.328428268432617,-3.3113701343536377,5.089999999999936
-3.543456554412842,3.3611793518066406,-2.769352912902832,5.099999999999936
-2.954380750656128,4.093107223510742,-2.2941808700561523,5.1099999999999355
-2.9395790100097656,5.36724853515625,-1.9175654649734497,5.119999999999935
-3.187189817428589,6.13138484954834,-1.7228670120239258,5.129999999999935
-3.235746383666992,6.306476593017578,-1.3770517110824585,5.139999999999935
-2.655857563018799,5.849885940551758,-1.0908952951431274,5.149999999999935
-2.2011559009552,5.348650932312012,-0.5338233113288879,5.159999999999934
-1.9152976274490356,4.7357177734375,-0.20778340101242065,5.169999999999934
-1.6463286876678467,3.5724878311157227,-0.14295780658721924,5.179999999999934
-1.0436220169067383,2.2944297790527344,-0.012066483497619629,5.189999999999934
-0.5635683536529541,0.923283576965332,-0.29935145378112793,5.199999999999934
-0.07167625427246094,-0.2938871383666992,-0.23721027374267578,5.209999999999933
0.30146026611328125,-1.5883421897888184,-0.11509227752685547,5.219999999999933
0.4249718189239502,-2.938053607940674,-0.06274080276489258,5.229999999999933
0.3354508876800537,-4.154788970947266,0.07596695423126221,5.239999999999933
0.0013382434844970703,-4.653946399688721,0.13431107997894287,5.2499999999999325
-0.14808011054992676,-4.963929653167725,0.14748334884643555,5.259999999999932
-0.2725677490234375,-5.0044732093811035,-0.11126542091369629,5.269999999999932
-0.22731566429138184,-5.045048713684082,-0.263088583946228,5.279999999999932
-0.7213058471679688,-4.624079704284668,-0.11915695667266846,5.289999999999932
-1.3930211067199707,-3.9236888885498047,0.17211878299713135,5.299999999999931
-1.5103306770324707,-3.6080822944641113,0.42786943912506104,5.309999999999931
-1.4168646335601807,-3.2707557678222656,0.9235960245132446,5.319999999999931
-1.3741040229797363,-3.2769384384155273,0.9002681970596313,5.329999999999931
-1.1490309238433838,-2.9338936805725098,1.3091816902160645,5.339999999999931
-1.0568567514419556,-2.9521613121032715,1.4097387790679932,5.34999999999993
-1.1038682460784912,-3.0683774948120117,1.6534146070480347,5.35999999999993
-0.9377273321151733,-3.157489776611328,1.5461411476135254,5.36999999999993
-0.5991637706756592,-2.962794303894043,1.314479947090149,5.37999999999993
-0.18299603462219238,-2.6181774139404297,1.202216386795044,5.3899999999999295
0.1807548999786377,-2.183478832244873,1.1798473596572876,5.399999999999929
0.3258826732635498,-1.6180438995361328,1.1110913753509521,5.409999999999929
0.4601325988769531,-0.586857795715332,1.3298426866531372,5.419999999999929
0.6557137966156006,0.2515230178833008,1.6717400550842285,5.429999999999929
0.7795851230621338,1.2633647918701172,1.9553340673446655,5.4399999999999284
0.7361068725585938,2.3147878646850586,2.049370765686035,5.449999999999928
0.6455717086791992,3.2442750930786133,1.8540319204330444,5.459999999999928
0.7053067684173584,3.854686737060547,1.9875723123550415,5.469999999999928
0.9625842571258545,3.8884029388427734,2.5670971870422363,5.479999999999928
1.2888128757476807,3.3196487426757812,2.9639978408813477,5.489999999999927
1.4966766834259033,2.0859413146972656,3.367339611053467,5.499999999999927
1.7323026657104492,0.27654075622558594,3.7223963737487793,5.509999999999927
1.8423199653625488,-1.561601161956787,3.604229688644409,5.519999999999927
1.2508516311645508,-1.9730238914489746,0.6535513401031494,5.5299999999999265
-0.7756181955337524,0.9840364456176758,-1.7642312049865723,5.539999999999926
-1.3678675889968872,4.88385009765625,-2.4716949462890625,5.549999999999926
-0.6525424718856812,9.664148330688477,-2.2570462226867676,5.559999999999926
0.30495738983154297,12.49403190612793,-0.9852942228317261,5.569999999999926
0.6917705535888672,11.828817367553711,-1.2617383003234863,5.5799999999999255
-2.596362352371216,5.152435302734375,-4.091543674468994,5.589999999999925
-3.638373851776123,-1.559737205505371,-5.523393630981445,5.599999999999925
-3.4786014556884766,-4.309964656829834,-4.042072772979736,5.609999999999925
-3.0042808055877686,-4.47231912612915,-2.0315773487091064,5.619999999999925
-1.7634258270263672,-3.040153980255127,-1.5101011991500854,5.629999999999924
-0.40894246101379395,-1.6084790229797363,-1.0681884288787842,5.639999999999924
0.43431520462036133,-0.6667022705078125,-1.1411142349243164,5.649999999999924
0.9229249954223633,0.019269943237304688,-1.840984582901001,5.659999999999924
0.8309004306793213,0.28896045684814453,-2.3634445667266846,5.6699999999999235
-0.016509294509887695,0.32161998748779297,-2.592719078063965,5.679999999999923
-1.3987065553665161,0.2594747543334961,-2.2048912048339844,5.689999999999923
-2.2575247287750244,0.05844593048095703,-1.7671619653701782,5.699999999999923
-2.4725308418273926,-0.28198814392089844,-1.4710997343063354,5.709999999999923
-2.4892938137054443,-0.390869140625,-1.4356491565704346,5.7199999999999225
-2.21335768699646,-0.5494880676269531,-1.4742178916931152,5.729999999999922
-1.6442146301269531,-1.0521373748779297,-1.339503526687622,5.739999999999922
-1.1275050640106201,-1.839238166809082,-1.373700737953186,5.749999999999922
-0.8071669340133667,-2.4645328521728516,-1.3378103971481323,5.759999999999922
-0.5310356616973877,-2.87959623336792,-1.3335903882980347,5.769999999999921
-0.08699536323547363,-2.923008918762207,-1.1818792819976807,5.779999999999921
0.41704416275024414,-2.6408824920654297,-1.0316541194915771,5.789999999999921
0.8919693231582642,-2.17482328414917,-0.8971887826919556,5.799999999999921
1.2084907293319702,-1.75724458694458,-0.7325576543807983,5.809999999999921
1.222007155418396,-1.7663397789001465,-0.6705011129379272,5.81999999999992
1.4069312810897827,-1.4742250442504883,-0.4680357873439789,5.82999999999992
1.1846376657485962,-1.2573881149291992,-0.0368993878364563,5.83999999999992
1.2745836973190308,-1.2614736557006836,0.19746416807174683,5.84999999999992
1.3382905721664429,-1.2729225158691406,0.38709884881973267,5.8599999999999195
1.4086779356002808,-1.2844247817993164,0.5850721001625061,5.869999999999919
1.51577889919281,-1.3317832946777344,0.6416425704956055,5.879999999999919
1.4514373540878296,-1.405533790588379,0.41234761476516724,5.889999999999919
1.3532618284225464,-1.3574552536010742,0.13557350635528564,5.899999999999919
1.0896096229553223,-1.1107149124145508,0.06075483560562134,5.909999999999918
0.9015090465545654,-0.6747188568115234,0.22055751085281372,5.919999999999918
0.8078099489212036,-0.18786907196044922,0.42165133357048035,5.929999999999918
0.891831636428833,0.22813129425048828,0.8224851489067078,5.939999999999918
1.1249936819076538,0.3392372131347656,0.8567827939987183,5.949999999999918
1.5617702007293701,0.42357826232910156,0.4715251326560974,5.959999999999917
2.2851221561431885,0.3903341293334961,0.4237530529499054,5.969999999999917
3.2367827892303467,0.2515096664428711,0.5935468077659607,5.979999999999917
3.8804235458374023,0.16947269439697266,0.735984206199646,5.989999999999917
4.196430683135986,0.20105838775634766,0.9301276206970215,5.9999999999999165
4.013594150543213,0.28606224060058594,0.8329181671142578,6.009999999999916
2.9444339275360107,0.802398681640625,1.1325801610946655,6.019999999999916
1.5473661422729492,1.4413862228393555,0.03834220767021179,6.029999999999916
0.6152553558349609,2.5891590118408203,-2.2884275913238525,6.039999999999916
-0.49972736835479736,3.8952131271362305,-2.532477617263794,6.0499999999999154
-1.8247716426849365,3.834695816040039,-3.263383150100708,6.059999999999915
-2.4985334873199463,2.838716506958008,-3.6854968070983887,6.069999999999915
-2.930767059326172,2.674441337585449,-3.2645130157470703,6.079999999999915
-2.8269851207733154,3.4731359481811523,-2.3976705074310303,6.089999999999915
-2.7261812686920166,4.680636405944824,-1.5744887590408325,6.099999999999914
-2.808022975921631,5.732766151428223,-1.2608548402786255,6.109999999999914
-3.023561477661133,6.4372968673706055,-1.0307655334472656,6.119999999999914
-2.8842034339904785,6.650202751159668,-0.7936784029006958,6.129999999999914
-2.5458545684814453,6.3951873779296875,-0.7307312488555908,6.1399999999999135
-2.1595311164855957,5.672462463378906,-0.42820629477500916,6.149999999999913
-1.404314637184143,4.601956367492676,-0.5219050645828247,6.159999999999913
-0.8335901498794556,3.1745567321777344,-0.5925194621086121,6.169999999999913
-0.19377446174621582,1.5530738830566406,-0.4635334014892578,6.179999999999913
0.2917947769165039,-0.09390640258789062,-0.126428484916687,6.1899999999999125
0.5401558876037598,-1.8967437744140625,-0.05818474292755127,6.199999999999912
0.6161227226257324,-3.3134288787841797,0.029436469078063965,6.209999999999912
0.6610610485076904,-4.67249059677124,0.2880568504333496,6.219999999999912
0.493009090423584,-5.513730049133301,0.34288108348846436,6.229999999999912
0.14056086540222168,-5.981115341186523,0.3122354745864868,6.239999999999911
-0.32257676124572754,-5.791983604431152,0.14251720905303955,6.249999999999911
-0.5049645900726318,-5.32135534286499,0.1756432056427002,6.259999999999911
-0.9786733388900757,-4.651218414306641,0.39732468128204346,6.269999999999911
-1.528119444847107,-3.6691298484802246,0.6370203495025635,6.2799999999999105
-1.8672590255737305,-2.6589975357055664,0.8003983497619629,6.28999999999991
-2.005573272705078,-1.9991660118103027,0.8791477680206299,6.29999999999991
-1.9067461490631104,-1.526926040649414,0.7981863021850586,6.30999999999991
-1.9312106370925903,-1.2047958374023438,0.9699146747589111,6.31999999999991
-1.843769907951355,-1.2876338958740234,1.1878360509872437,6.3299999999999095
-1.7109408378601074,-1.7361536026000977,1.2602554559707642,6.339999999999909
-1.4354465007781982,-2.2305097579956055,1.104673981666565,6.349999999999909
-1.0076528787612915,-2.463996410369873,0.8800712823867798,6.359999999999909
-0.5401773452758789,-2.449101448059082,0.788772702217102,6.369999999999909
-0.18759965896606445,-2.1981420516967773,1.0692665576934814,6.379999999999908
0.10106253623962402,-1.8771171569824219,1.2704925537109375,6.389999999999908
0.2309427261352539,-1.3409748077392578,1.2327736616134644,6.399999999999908
0.3013880252838135,-0.5759754180908203,0.9172735214233398,6.409999999999908
0.331082820892334,0.13991451263427734,0.8286968469619751,6.419999999999908
0.3780057430267334,0.7923240661621094,0.8811192512512207,6.429999999999907
0.3750438690185547,1.3306045532226562,0.8305832147598267,6.439999999999907
0.34923338890075684,1.610494613647461,0.7204959392547607,6.449999999999907
0.1253054141998291,1.8284120559692383,0.7711728811264038,6.459999999999907
-0.13510990142822266,1.93817138671875,1.2964210510253906,6.4699999999999065
-0.2477271556854248,1.9452323913574219,2.026078224182129,6.479999999999906
-0.24223589897155762,1.6964702606201172,2.5958826541900635,6.489999999999906
-0.4591798782348633,1.0254764556884766,2.9203696250915527,6.499999999999906
-0.6855348348617554,0.4625387191772461,2.872069835662842,6.509999999999906
-1.2753245830535889,0.8348188400268555,0.6975786685943604,6.519999999999905
-1.1865755319595337,2.9773311614990234,-0.6289056539535522,6.529999999999905
-1.0697453022003174,6.719585418701172,-1.529232382774353,6.539999999999905
-0.6069371700286865,10.010475158691406,-0.4310469627380371,6.549999999999905
0.21709012985229492,10.447067260742188,0.16794800758361816,6.559999999999905
-0.2528238296508789,7.472370147705078,-0.999553918838501,6.569999999999904
-2.133498430252075,1.02203369140625,-3.221313953399658,6.579999999999904
-2.5746307373046875,-2.4899535179138184,-4.106453895568848,6.589999999999904
-2.6985859870910645,-3.4507408142089844,-3.3448381423950195,6.599999999999904
-2.074605941772461,-3.466770648956299,-2.740753173828125,6.6099999999999035
-0.5611976385116577,-2.745408058166504,-2.6861581802368164,6.619999999999903
0.19556331634521484,-1.6846814155578613,-2.8680624961853027,6.629999999999903
0.5196378231048584,-0.46800994873046875,-2.8960018157958984,6.639999999999903
0.3840219974517822,0.4409618377685547,-2.832326650619507,6.649999999999903
0.08482718467712402,0.7266931533813477,-2.7615628242492676,6.659999999999902
-0.7325721979141235,0.4256610870361328,-2.3994030952453613,6.669999999999902
-1.6481698751449585,0.20643138885498047,-1.8294546604156494,6.679999999999902
-2.127641201019287,0.22225570678710938,-1.5659205913543701,6.689999999999902
-2.4400997161865234,0.1930866241455078,-1.299445390701294,6.699999999999902
-2.522857189178467,-0.05585193634033203,-1.1680667400360107,6.709999999999901
-2.504333257675171,-0.42957496643066406,-1.171438455581665,6.719999999999901
-2.1784470081329346,-0.7549991607666016,-1.2306771278381348,6.729999999999901
-1.5107513666152954,-0.9676780700683594,-1.2281265258789062,6.739999999999901
-0.9995015859603882,-0.9733180999755859,-1.3012117147445679,6.7499999999999005
-0.5467230081558228,-0.886631965637207,-1.4100873470306396,6.7599999999999
-0.18091833591461182,-0.7878818511962891,-1.2991995811462402,6.7699999999999
0.2139148712158203,-0.7274856567382812,-1.1080893278121948,6.7799999999999
0.6616027355194092,-0.8225498199462891,-0.9816091060638428,6.7899999999999
1.0858142375946045,-0.8697309494018555,-0.8614000082015991,6.7999999999998995
1.2619690895080566,-0.8906288146972656,-0.7429705858230591,6.809999999999899
1.2925934791564941,-0.9238090515136719,-0.5514680743217468,6.819999999999899
1.247128963470459,-1.0215911865234375,-0.399655282497406,6.829999999999899
1.150052547454834,-1.0906381607055664,-0.2960272431373596,6.839999999999899
1.1126186847686768,-1.0738210678100586,-0.1538669466972351,6.849999999999898
1.2076058387756348,-1.0336389541625977,-0.08318758010864258,6.859999999999898
1.3289575576782227,-1.0610246658325195,-0.05206364393234253,6.869999999999898
1.3785924911499023,-1.0406980514526367,-0.05670630931854248,6.879999999999898
1.4617021083831787,-1.1163606643676758,0.021476447582244873,6.8899999999998975
1.4246355295181274,-1.1537647247314453,0.1859874725341797,6.899999999999897
1.2287414073944092,-1.0689697265625,0.2473994493484497,6.909999999999897
1.0339828729629517,-0.8140354156494141,0.12945425510406494,6.919999999999897
0.9515106678009033,-0.529815673828125,0.23068279027938843,6.929999999999897
0.9584579467773438,-0.44820499420166016,0.09236311912536621,6.9399999999998965
1.122513771057129,-0.5978937149047852,-0.10051757097244263,6.949999999999896
1.41179621219635,-0.7802534103393555,-0.21224093437194824,6.959999999999896
1.6375006437301636,-1.0192480087280273,-0.12809813022613525,6.969999999999896
1.6476366519927979,-1.324554443359375,-0.21156907081604004,6.979999999999896
1.6443454027175903,-1.4761695861816406,-0.504827618598938,6.989999999999895
1.8257136344909668,-1.5032234191894531,-0.6533949375152588,6.999999999999895
2.158937454223633,-1.470261573791504,-0.5831617116928101,7.009999999999895
2.244852066040039,-1.2163619995117188,-0.39945101737976074,7.019999999999895
1.5741428136825562,-0.6073493957519531,0.1732160449028015,7.0299999999998946
-0.23070502281188965,0.5721845626831055,0.17168068885803223,7.039999999999894
-0.9112462997436523,1.6228761672973633,-2.1454477310180664,7.049999999999894
-0.896162211894989,3.1162309646606445,-2.7268455028533936,7.059999999999894
-1.1663541793823242,4.023895263671875,-3.5112452507019043,7.069999999999894
-2.048750400543213,5.022941589355469,-4.195061683654785,7.0799999999998935
-1.9130418300628662,5.635073661804199,-3.5422446727752686,7.089999999999893
-2.050405740737915,5.343843460083008,-2.348121166229248,7.099999999999893
-2.6135921478271484,4.851778030395508,-1.8053451776504517,7.109999999999893
-3.0499157905578613,4.279996871948242,-1.274897813796997,7.119999999999893
-3.3049230575561523,4.06074333190918,-0.8341572880744934,7.129999999999892
-2.8634955883026123,3.8701906204223633,-0.660617470741272,7.139999999999892
-2.098172187805176,3.519023895263672,-0.8009464740753174,7.149999999999892
-1.2129695415496826,3.0614681243896484,-0.8093830347061157,7.159999999999892
-0.5190761089324951,2.628978729248047,-0.7524486780166626,7.169999999999892
0.09057855606079102,2.029909133911133,-0.6789491772651672,7.179999999999891
0.3665192127227783,1.391026496887207,-0.37760162353515625,7.189999999999891
0.27916979789733887,0.7756729125976562,-0.23143351078033447,7.199999999999891
-0.09417963027954102,0.127471923828125,-0.1999683380126953,7.209999999999891
-0.7335003614425659,-0.6419916152954102,-0.09994959831237793,7.2199999999998905
-1.2003682851791382,-1.294173240661621,-0.0714108943939209,7.22999999999989
-1.4601136445999146,-1.933171272277832,-0.029906630516052246,7.23999999999989
-1.7266128063201904,-2.339935302734375,0.03938734531402588,7.24999999999989
-1.9067490100860596,-2.279078960418701,0.20483291149139404,7.25999999999989
-2.0391695499420166,-1.8759455680847168,0.20906424522399902,7.269999999999889
-2.2658743858337402,-1.187962532043457,0.20836412906646729,7.279999999999889
-2.21840500831604,-0.6929912567138672,0.20145165920257568,7.289999999999889
-2.1796531677246094,-0.23363971710205078,0.11730837821960449,7.299999999999889
-1.9492452144622803,-0.048325538635253906,0.1178058385848999,7.309999999999889
-1.6802698373794556,-0.14516639709472656,0.012603998184204102,7.319999999999888
-1.5218076705932617,-0.49456119537353516,-0.012432456016540527,7.329999999999888
-1.4422976970672607,-0.973698616027832,0.029350996017456055,7.339999999999888
-1.3799322843551636,-1.4196300506591797,0.12078845500946045,7.349999999999888
-1.5238711833953857,-1.8634085655212402,0.21564793586730957,7.3599999999998875
-1.558921456336975,-2.2192797660827637,0.23751699924468994,7.369999999999887
-1.5302140712738037,-2.430426597595215,0.34972476959228516,7.379999999999887
-1.4351625442504883,-2.442727565765381,0.22575843334197998,7.389999999999887
-1.3171663284301758,-2.0434184074401855,0.16933155059814453,7.399999999999887
-1.1963624954223633,-1.2138309478759766,-0.13966429233551025,7.4099999999998865
-1.0533156394958496,0.5075263977050781,-1.0743473768234253,7.419999999999886
-1.0392860174179077,2.7612228393554688,-1.591535210609436,7.429999999999886
-0.5010637044906616,4.068487167358398,-0.9297574162483215,7.439999999999886
-0.25449228286743164,4.060552597045898,-0.22359013557434082,7.449999999999886
0.3686258792877197,3.31427001953125,-0.5853915214538574,7.459999999999885
0.45960044860839844,2.7664613723754883,-1.3153557777404785,7.469999999999885
-0.04697990417480469,1.924464225769043,-1.7894911766052246,7.479999999999885
-0.6677566766738892,0.6250982284545898,-1.5767903327941895,7.489999999999885
-0.9618175029754639,-0.8275508880615234,-1.3646999597549438,7.4999999999998845
-1.1817936897277832,-2.091492176055908,-1.292873740196228,7.509999999999884
-1.5730617046356201,-2.6797776222229004,-1.3229233026504517,7.519999999999884
-1.8681584596633911,-2.252645492553711,-1.4430630207061768,7.529999999999884
-2.1462793350219727,-0.29347896575927734,-1.632326364517212,7.539999999999884
-2.181793451309204,1.7282886505126953,-1.5059335231781006,7.5499999999998835
-1.2960126399993896,1.7447452545166016,-1.0101107358932495,7.559999999999883
-0.6735670566558838,0.7273578643798828,-0.6510558724403381,7.569999999999883
-0.2596489191055298,0.29246044158935547,-0.7192755341529846,7.579999999999883
-0.0263746976852417,0.26466941833496094,-0.8086504340171814,7.589999999999883
-0.2752683162689209,-0.1249704360961914,-1.2837404012680054,7.599999999999882
-0.6904447078704834,-0.6863851547241211,-1.4996635913848877,7.609999999999882
-0.5398542881011963,-0.7182779312133789,-1.182979941368103,7.619999999999882
-0.07598650455474854,-0.3356294631958008,-0.8535768985748291,7.629999999999882
0.16856145858764648,0.09999942779541016,-0.8869580626487732,7.6399999999998816
0.018762826919555664,0.4696674346923828,-0.7757594585418701,7.649999999999881
-0.019321918487548828,0.5040225982666016,-0.9544951915740967,7.659999999999881
0.3895890712738037,0.3260631561279297,-1.3027949333190918,7.669999999999881
-0.0403437614440918,0.40770626068115234,-0.701654314994812,7.679999999999881
-0.24429261684417725,0.19247055053710938,-0.6788934469223022,7.6899999999998805
0.07712101936340332,0.18291759490966797,-0.8584155440330505,7.69999999999988
-0.26218104362487793,0.34044456481933594,-0.519566535949707,7.70999999999988
-0.15491318702697754,0.088409423828125,-0.7703456282615662,7.71999999999988
-0.10358452796936035,0.09083175659179688,-0.6005406975746155,7.72999999999988
-0.001180887222290039,0.014606475830078125,-0.5854241251945496,7.739999999999879
0.1858140230178833,0.06063079833984375,-0.5077279210090637,7.749999999999879
0.45128536224365234,0.1878213882446289,-0.4645267128944397,7.759999999999879
0.4788302183151245,0.28833866119384766,-0.5815263986587524,7.769999999999879
0.16410255432128906,0.4218177795410156,-0.6766270995140076,7.779999999999879
-0.1750255823135376,0.44738197326660156,-0.7013859748840332,7.789999999999878
-0.2846616506576538,0.32495594024658203,-0.709629476070404,7.799999999999878
-0.4994443655014038,0.16451358795166016,-0.6795989871025085,7.809999999999878
-0.3636918067932129,-0.09111309051513672,-0.5628501772880554,7.819999999999878
-0.10223114490509033,-0.2238931655883789,-0.43445396423339844,7.8299999999998775
-0.048451781272888184,-0.27744007110595703,-0.4078856110572815,7.839999999999877
0.5367445945739746,-0.4412860870361328,-0.37035810947418213,7.849999999999877
0.298630952835083,-0.1240386962890625,-0.425639271736145,7.859999999999877
0.4747387170791626,0.046779632568359375,-0.43107807636260986,7.869999999999877
0.6205583810806274,0.1576690673828125,-0.2768571376800537,7.879999999999876
0.6309815645217896,0.15593433380126953,-0.2789348363876343,7.889999999999876
0.9057327508926392,0.10854339599609375,-0.3721562623977661,7.899999999999876
0.4841270446777344,0.05404853820800781,-0.20773375034332275,7.909999999999876
0.35338032245635986,-0.11828804016113281,-0.28852951526641846,7.919999999999876
0.48094987869262695,-0.046718597412109375,-0.4248504042625427,7.929999999999875
0.10065186023712158,0.21883583068847656,-0.26405656337738037,7.939999999999875
-0.07421016693115234,0.31888484954833984,-0.35714560747146606,7.949999999999875
-0.19923067092895508,0.3117389678955078,-0.6944260001182556,7.959999999999875
0.051395297050476074,0.13818836212158203,-0.15232014656066895,7.9699999999998745
0.0782095193862915,0.011264801025390625,-0.1954725980758667,7.979999999999874
-0.011989593505859375,-0.04835033416748047,-0.30726826190948486,7.989999999999874
