AccX,AccY,AccZ,SampleRate
2.0103001594543457,-0.27614593505859375,0.4636240601539612,0
2.1692328453063965,-0.1900644302368164,0.5521680116653442,0.01
2.273059129714966,-0.26910972595214844,0.5905645489692688,0.02
2.4089884757995605,-0.4392518997192383,0.7634251117706299,0.03
2.4122846126556396,-0.4587745666503906,0.7505926489830017,0.04
2.3672804832458496,-0.29899120330810547,0.7211925983428955,0.05
2.388638973236084,-0.3021965026855469,0.7421910166740417,0.060000000000000005
2.437990188598633,0.11096954345703125,0.8606228232383728,0.07
2.5939040184020996,0.1744518280029297,0.9848480224609375,0.08
2.7392187118530273,0.22103500366210938,0.91770339012146,0.09
2.891094207763672,0.43746280670166016,0.8824387192726135,0.09999999999999999
3.3311498165130615,0.6538305282592773,1.0347411632537842,0.10999999999999999
3.7931461334228516,0.8369827270507812,1.1382901668548584,0.11999999999999998
4.215610027313232,1.145212173461914,1.201185703277588,0.12999999999999998
4.25917911529541,1.525721549987793,1.3030598163604736,0.13999999999999999
4.161708831787109,2.237006187438965,0.8971608877182007,0.15
4.158929347991943,2.9561548233032227,0.6740103960037231,0.16
4.026125907897949,3.252408981323242,0.6675206422805786,0.17
3.709519386291504,3.0512266159057617,0.5540868043899536,0.18000000000000002
2.7710604667663574,2.6970653533935547,0.49035316705703735,0.19000000000000003
1.3925347328186035,2.5272445678710938,0.2095421850681305,0.20000000000000004
-0.14544999599456787,2.690052032470703,-0.4362433850765228,0.21000000000000005
-1.640191912651062,2.591629981994629,-1.2026801109313965,0.22000000000000006
-2.5045342445373535,2.0407543182373047,-1.635144829750061,0.23000000000000007
-2.862574815750122,1.3229541778564453,-1.6326143741607666,0.24000000000000007
-2.919330358505249,0.37376880645751953,-1.4127007722854614,0.25000000000000006
-2.7494823932647705,-0.38513660430908203,-1.1550712585449219,0.26000000000000006
-2.2582762241363525,-0.7907314300537109,-0.611443817615509,0.2700000000000001
-1.1322071552276611,-1.0413789749145508,-0.21870677173137665,0.2800000000000001
-0.6171751022338867,-0.7108020782470703,-0.008298888802528381,0.2900000000000001
-0.5612242221832275,-0.49440574645996094,0.3192101716995239,0.3000000000000001
-0.6638611555099487,-0.2609262466430664,0.46621450781822205,0.3100000000000001
-0.7620741128921509,0.21894359588623047,-0.020670883357524872,0.3200000000000001
-0.7570880651473999,0.5090656280517578,-0.16263650357723236,0.3300000000000001
-0.9037068486213684,0.7664546966552734,-0.21910715103149414,0.34000000000000014
-0.6899112462997437,0.7114801406860352,-0.07860255241394043,0.35000000000000014
-0.6436808109283447,0.8763885498046875,-0.24292680621147156,0.36000000000000015
-0.7206225395202637,0.7062959671020508,-0.19230961799621582,0.37000000000000016
-0.6432198286056519,0.3239402770996094,-0.18355172872543335,0.38000000000000017
-0.755092978477478,-0.2269601821899414,0.013911724090576172,0.3900000000000002
-0.822447657585144,-0.9795417785644531,0.07950931787490845,0.4000000000000002
-0.7085144519805908,-1.9002561569213867,0.22862470149993896,0.4100000000000002
-0.7886743545532227,-2.2779154777526855,0.48945724964141846,0.4200000000000002
-0.7198203802108765,-2.5249485969543457,0.7476987838745117,0.4300000000000002
-0.5504442453384399,-2.6657752990722656,0.9169498085975647,0.4400000000000002
-0.476767897605896,-2.5719852447509766,0.9213186502456665,0.45000000000000023
-0.22843503952026367,-2.3926877975463867,0.9724801778793335,0.46000000000000024
0.0438838005065918,-2.1424641609191895,1.1975692510604858,0.47000000000000025
0.20122051239013672,-2.0991973876953125,1.1996500492095947,0.48000000000000026
0.35854172706604004,-2.047696590423584,1.125935673713684,0.49000000000000027
0.49266958236694336,-2.234363555908203,1.0267634391784668,0.5000000000000002
0.6406874656677246,-2.6876702308654785,1.294312596321106,0.5100000000000002
0.6913282871246338,-3.0871706008911133,1.5215831995010376,0.5200000000000002
0.5861215591430664,-3.3401694297790527,1.6984219551086426,0.5300000000000002
0.5079934597015381,-3.3032917976379395,1.8510674238204956,0.5400000000000003
0.4906184673309326,-3.0692009925842285,2.009028911590576,0.5500000000000003
0.5630714893341064,-2.5055370330810547,1.9768654108047485,0.5600000000000003
0.9240045547485352,-2.088095188140869,1.9189389944076538,0.5700000000000003
1.0436623096466064,-1.5552854537963867,1.7605395317077637,0.5800000000000003
1.184415578842163,-0.8519525527954102,1.9590051174163818,0.5900000000000003
1.420586347579956,-0.34371185302734375,2.1659746170043945,0.6000000000000003
1.6550629138946533,0.15424060821533203,2.3474345207214355,0.6100000000000003
1.7607345581054688,0.6847305297851562,2.409379005432129,0.6200000000000003
1.7227542400360107,1.1536731719970703,2.538566827774048,0.6300000000000003
1.5274577140808105,1.4935874938964844,2.6627228260040283,0.6400000000000003
1.1822516918182373,1.750025749206543,2.9661171436309814,0.6500000000000004
0.9619061946868896,1.8710174560546875,3.1801018714904785,0.6600000000000004
0.6352987289428711,2.060765266418457,3.4509806632995605,0.6700000000000004
0.2095346450805664,2.2162370681762695,3.505417823791504,0.6800000000000004
-0.478603720664978,2.327127456665039,2.7904529571533203,0.6900000000000004
-1.3695378303527832,3.6563711166381836,-6.450414657592773E-4,0.7000000000000004
-1.7718548774719238,6.3717041015625,-0.398761510848999,0.7100000000000004
-0.9495084285736084,8.655369758605957,0.30429720878601074,0.7200000000000004
1.3930902481079102,9.553828239440918,1.3852428197860718,0.7300000000000004
2.2423171997070312,7.1832780838012695,-0.10404539108276367,0.7400000000000004
-0.23668146133422852,1.2086877822875977,-2.38273024559021,0.7500000000000004
-2.2892510890960693,-2.139737129211426,-3.111302375793457,0.7600000000000005
-3.060960054397583,-2.969578266143799,-2.4560136795043945,0.7700000000000005
-2.353749990463257,-3.252537727355957,-1.7749061584472656,0.7800000000000005
-1.0831705331802368,-3.1541318893432617,-1.7242193222045898,0.7900000000000005
0.0887458324432373,-2.967456817626953,-2.052539825439453,0.8000000000000005
0.7314441204071045,-2.3983750343322754,-2.379369020462036,0.8100000000000005
0.9215981960296631,-1.4311833381652832,-2.683868885040283,0.8200000000000005
0.45232057571411133,-0.31157875061035156,-2.9728689193725586,0.8300000000000005
-0.15309381484985352,0.2040262222290039,-2.754014015197754,0.8400000000000005
-0.8937362432479858,0.25173282623291016,-2.1832993030548096,0.8500000000000005
-1.257889986038208,-0.2325420379638672,-1.6988584995269775,0.8600000000000005
-1.4122421741485596,-0.6450471878051758,-1.4106638431549072,0.8700000000000006
-1.5304229259490967,-0.5653181076049805,-1.2421903610229492,0.8800000000000006
-1.7791295051574707,-0.40631580352783203,-1.0937168598175049,0.8900000000000006
-1.792101263999939,-0.605046272277832,-0.78363037109375,0.9000000000000006
-1.6294704675674438,-1.0837535858154297,-0.5836316347122192,0.9100000000000006
-1.6092866659164429,-1.09515380859375,-0.5335290431976318,0.9200000000000006
-1.1202328205108643,-2.03841495513916,-0.5223655104637146,0.9300000000000006
-0.6713181734085083,-2.105128288269043,-0.5850109457969666,0.9400000000000006
-0.0952920913696289,-1.8590927124023438,-0.6803290843963623,0.9500000000000006
0.4150972366333008,-1.6151838302612305,-0.8425465822219849,0.9600000000000006
0.6969921588897705,-1.2168006896972656,-0.9262807965278625,0.9700000000000006
1.1250600814819336,-1.0737543106079102,-0.8451902866363525,0.9800000000000006
1.5929546356201172,-1.2306976318359375,-0.7668858766555786,0.9900000000000007
2.024976968765259,-1.4836235046386719,-0.7741007804870605,1.0000000000000007
1.9883067607879639,-1.803889274597168,-0.2971991300582886,1.0100000000000007
2.0194337368011475,-1.9907021522521973,-0.1934605836868286,1.0200000000000007
1.92159104347229,-2.1195034980773926,-0.07256889343261719,1.0300000000000007
1.6148737668991089,-1.9074702262878418,0.07788407802581787,1.0400000000000007
1.4232456684112549,-1.682210922241211,0.3179165720939636,1.0500000000000007
1.3199464082717896,-1.3762311935424805,0.5726680755615234,1.0600000000000007
1.426461100578308,-1.1806468963623047,0.7017816305160522,1.0700000000000007
1.4797022342681885,-1.0784540176391602,0.6678004264831543,1.0800000000000007
1.610115885734558,-1.0190610885620117,0.5686118602752686,1.0900000000000007
1.4290188550949097,-0.7819404602050781,0.3165707588195801,1.1000000000000008
1.3567484617233276,-0.6450614929199219,0.20989522337913513,1.1100000000000008
1.2756844758987427,-0.45975494384765625,0.29419180750846863,1.1200000000000008
1.1271737813949585,-0.2789325714111328,0.5593898296356201,1.1300000000000008
1.2091002464294434,0.14176368713378906,0.36889633536338806,1.1400000000000008
1.5663326978683472,0.857783317565918,0.25253596901893616,1.1500000000000008
2.359565258026123,1.3406801223754883,0.575584352016449,1.1600000000000008
3.3895630836486816,1.3037052154541016,0.8342640399932861,1.1700000000000008
4.250922679901123,1.1657066345214844,0.8391240239143372,1.1800000000000008
4.679245948791504,0.9476308822631836,1.0767056941986084,1.1900000000000008
4.9672441482543945,0.9555158615112305,0.883764922618866,1.2000000000000008
4.879801273345947,1.0696487426757812,1.1264569759368896,1.2100000000000009
4.339516639709473,1.6420726776123047,0.7222116589546204,1.2200000000000009
3.7698376178741455,2.7017412185668945,-1.5948729515075684,1.2300000000000009
3.074434280395508,3.4730987548828125,-2.7382872104644775,1.2400000000000009
1.1564359664916992,3.5419301986694336,-1.6317718029022217,1.2500000000000009
-0.6686395406723022,2.884183883666992,-1.3806886672973633,1.260000000000001
-1.7081408500671387,1.890416145324707,-2.161777973175049,1.270000000000001
-2.724234104156494,1.8678159713745117,-1.4695292711257935,1.280000000000001
-3.519331455230713,2.4229955673217773,-1.4640697240829468,1.290000000000001
-3.762346029281616,2.995396614074707,-1.5939116477966309,1.300000000000001
-3.638869524002075,3.4820499420166016,-1.620774507522583,1.310000000000001
-2.939974308013916,3.4811201095581055,-1.7064183950424194,1.320000000000001
-2.3531389236450195,3.3382568359375,-1.6028963327407837,1.330000000000001
-1.4488215446472168,3.2253074645996094,-1.0193537473678589,1.340000000000001
-0.3894960880279541,3.1346073150634766,-0.6050543189048767,1.350000000000001
-0.09242987632751465,3.4583091735839844,0.5832736492156982,1.360000000000001
0.7450962066650391,3.0199098587036133,-0.1604287326335907,1.370000000000001
0.7013344764709473,3.033130645751953,-0.221414715051651,1.380000000000001
-0.035748958587646484,1.804459571838379,-0.436141699552536,1.390000000000001
-0.7654883861541748,1.0123968124389648,-0.46161600947380066,1.400000000000001
-0.7935783863067627,1.022695541381836,-0.5104511976242065,1.410000000000001
-0.6494195461273193,-0.6981840133666992,-0.4262877404689789,1.420000000000001
-0.9104305505752563,-1.550804615020752,-0.3462129235267639,1.430000000000001
-0.8697311878204346,-2.4242687225341797,-0.1748073697090149,1.440000000000001
-1.176242709159851,-3.1271791458129883,-0.12310916185379028,1.450000000000001
-1.3698036670684814,-3.713517665863037,-0.01847851276397705,1.460000000000001
-1.4148142337799072,-4.044824123382568,0.10672938823699951,1.470000000000001
-1.3184305429458618,-4.090632915496826,0.2142096757888794,1.480000000000001
-1.3107011318206787,-3.918728828430176,0.26930761337280273,1.490000000000001
-1.205275297164917,-3.7878799438476562,0.3361700773239136,1.500000000000001
-0.828279972076416,-3.69985294342041,0.7868189811706543,1.5100000000000011
-0.6797498464584351,-3.431596279144287,1.174148440361023,1.5200000000000011
-0.37690794467926025,-3.313340187072754,1.3382965326309204,1.5300000000000011
-0.08259153366088867,-3.4067740440368652,1.4161913394927979,1.5400000000000011
0.06990408897399902,-3.6374716758728027,1.4514169692993164,1.5500000000000012
0.08497810363769531,-3.8375277519226074,1.4804878234863281,1.5600000000000012
0.0829010009765625,-4.033114910125732,1.4652070999145508,1.5700000000000012
0.1848602294921875,-3.895638942718506,1.3603055477142334,1.5800000000000012
0.31811976432800293,-3.4844303131103516,1.3338160514831543,1.5900000000000012
0.43699216842651367,-2.897030830383301,1.4012175798416138,1.6000000000000012
0.5558393001556396,-1.780813217163086,1.6378376483917236,1.6100000000000012
0.7069230079650879,-0.7768974304199219,1.7501593828201294,1.6200000000000012
0.8538222312927246,0.3300619125366211,1.5246220827102661,1.6300000000000012
1.208190679550171,1.3810272216796875,1.310731291770935,1.6400000000000012
1.2765238285064697,2.3373184204101562,1.6834286451339722,1.6500000000000012
1.1426417827606201,3.0669994354248047,2.449582815170288,1.6600000000000013
1.0678818225860596,3.325545310974121,3.0279154777526855,1.6700000000000013
1.1645660400390625,3.035724639892578,3.1340222358703613,1.6800000000000013
1.1220219135284424,2.395444869995117,3.2590346336364746,1.6900000000000013
0.8196585178375244,1.4692964553833008,3.492043972015381,1.7000000000000013
-0.12701916694641113,1.4311637878417969,1.8925414085388184,1.7100000000000013
-0.3788454532623291,3.0970211029052734,-1.9268898963928223,1.7200000000000013
-0.5617576837539673,7.4747314453125,-1.2238774299621582,1.7300000000000013
1.2536463737487793,11.048977851867676,-0.8930485248565674,1.7400000000000013
3.0843453407287598,13.032674789428711,-0.612467885017395,1.7500000000000013
2.6945111751556396,11.112218856811523,-2.5251970291137695,1.7600000000000013
-1.8735624551773071,3.9652299880981445,-4.52114200592041,1.7700000000000014
-3.7792253494262695,-2.282435894012451,-5.3239593505859375,1.7800000000000014
-3.84233021736145,-5.512688159942627,-3.4049623012542725,1.7900000000000014
-3.0333662033081055,-5.95746374130249,-1.805040717124939,1.8000000000000014
-1.6388260126113892,-5.650751113891602,-1.3989346027374268,1.8100000000000014
-0.314166784286499,-4.329221725463867,-1.7064621448516846,1.8200000000000014
1.1098957061767578,-2.680532455444336,-1.9097609519958496,1.8300000000000014
1.9574143886566162,-0.9812650680541992,-2.4049057960510254,1.8400000000000014
2.0376224517822266,0.8908958435058594,-2.4910690784454346,1.8500000000000014
0.7263491153717041,1.984914779663086,-2.5216867923736572,1.8600000000000014
-1.2236493825912476,2.4540014266967773,-2.3288660049438477,1.8700000000000014
-2.7328827381134033,2.0921630859375,-2.1254491806030273,1.8800000000000014
-3.4822616577148438,1.051248550415039,-1.90855872631073,1.8900000000000015
-3.5765504837036133,-0.3341665267944336,-1.4363481998443604,1.9000000000000015
-3.2006607055664062,-1.5527644157409668,-1.1848671436309814,1.9100000000000015
-2.6288747787475586,-2.3347768783569336,-1.121493935585022,1.9200000000000015
-2.1268229484558105,-2.923457145690918,-1.12516450881958,1.9300000000000015
-1.4807134866714478,-3.151611328125,-1.2434167861938477,1.9400000000000015
-0.7992534637451172,-2.964850902557373,-1.4642746448516846,1.9500000000000015
-0.047887325286865234,-2.38665771484375,-1.4128884077072144,1.9600000000000015
0.9541090726852417,-1.9241251945495605,-1.210180401802063,1.9700000000000015
1.751668930053711,-2.0905728340148926,-1.0776110887527466,1.9800000000000015
2.322112560272217,-2.215207576751709,-1.0245299339294434,1.9900000000000015
2.3773598670959473,-1.7947516441345215,-0.7172229886054993,2.0000000000000013
1.9857624769210815,-1.3404502868652344,-0.1054002046585083,2.010000000000001
1.5177075862884521,-1.1153564453125,0.2640867829322815,2.020000000000001
1.339160442352295,-0.9728775024414062,0.48831623792648315,2.0300000000000007
1.3498866558074951,-0.9630031585693359,0.633143961429596,2.0400000000000005
1.3005880117416382,-0.9610319137573242,0.8901687264442444,2.0500000000000003
1.3247359991073608,-1.203573226928711,0.9147619605064392,2.06
1.3067137002944946,-1.6062602996826172,0.49926626682281494,2.07
1.383198857307434,-1.8386530876159668,0.6555889248847961,2.0799999999999996
1.1875144243240356,-1.4416141510009766,0.38553184270858765,2.0899999999999994
1.1187483072280884,-0.9613819122314453,0.32201266288757324,2.099999999999999
1.3522191047668457,-0.18171310424804688,0.2020047903060913,2.109999999999999
1.4932148456573486,0.47954273223876953,0.43446654081344604,2.1199999999999988
2.3228001594543457,0.38193321228027344,0.7872977256774902,2.1299999999999986
3.0787689685821533,0.2564353942871094,0.763853907585144,2.1399999999999983
3.8881897926330566,0.44472599029541016,0.7845191359519958,2.149999999999998
4.368875026702881,0.7760496139526367,0.7031095027923584,2.159999999999998
4.895473003387451,1.1469078063964844,0.9032147526741028,2.1699999999999977
5.157497882843018,1.3247451782226562,0.7677186727523804,2.1799999999999975
4.989966869354248,1.0722808837890625,0.4865140914916992,2.1899999999999973
3.795177459716797,0.9348621368408203,0.5148135423660278,2.199999999999997
1.6565598249435425,1.5110034942626953,-0.7851572036743164,2.209999999999997
0.10982096195220947,2.451824188232422,-3.1066842079162598,2.2199999999999966
-1.5172877311706543,3.3635244369506836,-3.387497901916504,2.2299999999999964
-3.1729094982147217,3.508835792541504,-2.799328327178955,2.239999999999996
-3.856377601623535,2.7821006774902344,-1.391456127166748,2.249999999999996
-4.0244293212890625,2.4506263732910156,-1.2279765605926514,2.259999999999996
-2.993757724761963,2.8472023010253906,-1.8589868545532227,2.2699999999999956
-2.5457191467285156,3.8301801681518555,-1.7056459188461304,2.2799999999999954
-2.2347705364227295,4.639283180236816,-1.2202821969985962,2.289999999999995
-2.3062665462493896,4.6561126708984375,-1.293497085571289,2.299999999999995
-0.9639616012573242,4.901005744934082,-0.8077642917633057,2.3099999999999947
-0.3122655153274536,4.888498306274414,-0.8342365026473999,2.3199999999999945
-0.2812235355377197,4.740009307861328,-0.5871405005455017,2.3299999999999943
-0.24439024925231934,4.088438987731934,-0.33706769347190857,2.339999999999994
-0.35558342933654785,2.8906421661376953,-0.1647888422012329,2.349999999999994
-0.7075318098068237,1.3550405502319336,-0.08526730537414551,2.3599999999999937
-0.8722319602966309,-0.26697254180908203,-0.1942858099937439,2.3699999999999934
-0.9067084789276123,-1.565556526184082,-0.24309945106506348,2.3799999999999932
-0.9104154109954834,-2.7220025062561035,-0.1420297622680664,2.389999999999993
-1.0462301969528198,-3.511557102203369,0.03737926483154297,2.399999999999993
-0.9959605932235718,-4.210044860839844,0.29976701736450195,2.4099999999999926
-0.8097147941589355,-4.172558307647705,0.4529414176940918,2.4199999999999924
-0.6327208280563354,-3.7327098846435547,0.42614734172821045,2.429999999999992
-0.3094971179962158,-3.4459476470947266,0.24737942218780518,2.439999999999992
-0.3981330394744873,-3.0655932426452637,0.3087940216064453,2.4499999999999917
-0.6604048013687134,-2.6926188468933105,0.4022465944290161,2.4599999999999915
-0.9411040544509888,-2.328827381134033,0.5095870494842529,2.4699999999999913
-0.9829850196838379,-2.226451873779297,0.43724262714385986,2.479999999999991
-0.7765105962753296,-2.367537498474121,0.3411674499511719,2.489999999999991
-0.5886975526809692,-2.42838191986084,0.2440328598022461,2.4999999999999907
-0.10441851615905762,-3.1582212448120117,0.3641026020050049,2.5099999999999905
0.17528343200683594,-3.8844261169433594,0.7842137813568115,2.5199999999999902
0.6404025554656982,-4.567974090576172,1.120913028717041,2.52999999999999
0.6482024192810059,-4.753762245178223,1.2836518287658691,2.53999999999999
0.4459853172302246,-4.381195068359375,1.177628755569458,2.5499999999999896
0.4548976421356201,-4.381884574890137,1.169889211654663,2.5599999999999894
0.4556009769439697,-2.966151714324951,1.0414888858795166,2.569999999999989
0.5323989391326904,-1.9570369720458984,1.2069122791290283,2.579999999999989
0.7713572978973389,-0.5177316665649414,1.1867327690124512,2.5899999999999888
0.983332633972168,0.9570493698120117,1.2237915992736816,2.5999999999999885
1.1900012493133545,2.2925004959106445,1.2846441268920898,2.6099999999999883
1.391594648361206,3.2716846466064453,1.3273406028747559,2.619999999999988
1.2865989208221436,3.8549985885620117,1.8452680110931396,2.629999999999988
1.0028893947601318,3.7608394622802734,2.5984675884246826,2.6399999999999877
0.8558197021484375,3.1459121704101562,3.2357840538024902,2.6499999999999875
0.8401134014129639,2.5447006225585938,3.547191619873047,2.6599999999999873
0.744915246963501,1.5933618545532227,3.7122645378112793,2.669999999999987
0.2892489433288574,0.28173828125,3.828104019165039,2.679999999999987
0.035152435302734375,-1.6802973747253418,3.6659297943115234,2.6899999999999866
-0.6314985752105713,-2.390900135040283,2.626554012298584,2.6999999999999864
-1.0746328830718994,-0.5347938537597656,-1.9889945983886719,2.709999999999986
-1.4307236671447754,2.896474838256836,-2.400966167449951,2.719999999999986
-0.8783495426177979,7.183056831359863,-2.066326856613159,2.7299999999999858
0.011793851852416992,10.499415397644043,-4.156225204467773,2.7399999999999856
0.5919573307037354,12.597864151000977,-4.441463470458984,2.7499999999999853
-1.6497399806976318,9.893070220947266,-4.226933002471924,2.759999999999985
-5.460492134094238,2.066643714904785,-4.896798610687256,2.769999999999985
-4.776993751525879,-2.9011049270629883,-3.9142937660217285,2.7799999999999847
-3.5502920150756836,-3.9751758575439453,-2.3594167232513428,2.7899999999999845
-2.7896885871887207,-3.255971908569336,-1.221645474433899,2.7999999999999843
-1.0191491842269897,-2.1292686462402344,-0.563092827796936,2.809999999999984
0.8240830898284912,-1.4199528694152832,-0.49108922481536865,2.819999999999984
2.274282455444336,-0.5397348403930664,-1.3187241554260254,2.8299999999999836
2.686004877090454,-0.16425514221191406,-2.07877516746521,2.8399999999999834
1.9775722026824951,-0.17673873901367188,-2.233123779296875,2.849999999999983
0.6747477054595947,-0.5307302474975586,-2.208256959915161,2.859999999999983
-0.7080910205841064,-0.8780183792114258,-1.8436895608901978,2.869999999999983
-1.5872541666030884,-0.9078369140625,-1.500380516052246,2.8799999999999826
-2.2716856002807617,-0.7998847961425781,-1.260819911956787,2.8899999999999824
-2.3685452938079834,-1.0026569366455078,-1.3367952108383179,2.899999999999982
-1.8878509998321533,-1.5799622535705566,-1.5881314277648926,2.909999999999982
-1.638911485671997,-2.1387791633605957,-1.4089171886444092,2.9199999999999817
-0.9970024228096008,-2.7999086380004883,-1.2399204969406128,2.9299999999999815
-0.7789145112037659,-3.064034938812256,-1.017747163772583,2.9399999999999813
-0.37378549575805664,-3.0953283309936523,-0.8886071443557739,2.949999999999981
0.23352718353271484,-2.796187400817871,-0.6606689691543579,2.959999999999981
0.8570970296859741,-2.5248942375183105,-0.36990535259246826,2.9699999999999807
1.181861400604248,-2.243136405944824,-0.20062458515167236,2.9799999999999804
1.2046360969543457,-2.2529983520507812,-0.13786888122558594,2.9899999999999802
1.077346920967102,-1.506103515625,0.21409666538238525,2.99999999999998
0.9133076667785645,-1.4964447021484375,0.529872715473175,3.00999999999998
0.8386539220809937,-1.7018756866455078,0.7548270225524902,3.0199999999999796
1.0431064367294312,-1.882948398590088,0.7485275864601135,3.0299999999999794
1.220313310623169,-1.6757464408874512,0.48451703786849976,3.039999999999979
1.6214083433151245,-1.3005123138427734,0.06881493330001831,3.049999999999979
1.8872616291046143,-1.010910987854004,-0.19002410769462585,3.0599999999999787
1.954365849494934,-0.7902488708496094,-0.2030109465122223,3.0699999999999785
1.9214648008346558,-0.4810914993286133,-0.15277248620986938,3.0799999999999783
1.7054872512817383,0.12925338745117188,0.2557304799556732,3.089999999999978
1.7243199348449707,0.5858860015869141,0.6453561186790466,3.099999999999978
1.9993324279785156,0.9306478500366211,0.6772588491439819,3.1099999999999777
2.650757312774658,0.9345359802246094,0.8192784786224365,3.1199999999999775
3.604909896850586,0.7610149383544922,1.0248126983642578,3.1299999999999772
4.343881607055664,0.8239002227783203,0.9697167873382568,3.139999999999977
5.054972171783447,0.9573402404785156,1.0082261562347412,3.149999999999977
5.568724155426025,1.0172958374023438,1.1094799041748047,3.1599999999999766
5.7032599449157715,1.1830730438232422,1.0506086349487305,3.1699999999999764
5.5050578117370605,1.1816129684448242,1.232846975326538,3.179999999999976
4.507621765136719,1.1948471069335938,0.8682481646537781,3.189999999999976
3.008570432662964,1.4596996307373047,0.8302321434020996,3.1999999999999758
1.1811859607696533,2.020339012145996,-2.2566232681274414,3.2099999999999755
-0.7513681650161743,2.8025903701782227,-3.1188387870788574,3.2199999999999753
-2.3820884227752686,2.815138816833496,-2.908266067504883,3.229999999999975
-3.1369428634643555,2.4415340423583984,-2.630018949508667,3.239999999999975
-3.3731088638305664,2.0916996002197266,-2.5494399070739746,3.2499999999999747
-2.9407546520233154,2.4221458435058594,-2.3564417362213135,3.2599999999999745
-2.4543662071228027,3.2313270568847656,-1.7251713275909424,3.2699999999999743
-2.1255857944488525,3.814302444458008,-1.5797160863876343,3.279999999999974
-2.1795237064361572,4.407316207885742,-1.3977142572402954,3.289999999999974
-2.1871352195739746,4.7846879959106445,-1.0647791624069214,3.2999999999999736
-1.9363617897033691,5.121288299560547,-0.809116005897522,3.3099999999999734
-1.7147185802459717,5.4581756591796875,-0.6245690584182739,3.319999999999973
-1.5554144382476807,5.52938175201416,-0.5109823346138,3.329999999999973
-1.1675076484680176,4.881675720214844,-0.13353335857391357,3.3399999999999728
-0.7974165678024292,3.026320457458496,0.20706778764724731,3.3499999999999726
-0.5730537176132202,1.5292243957519531,0.03575998544692993,3.3599999999999723
-0.28364717960357666,-0.06635379791259766,-0.09874677658081055,3.369999999999972
0.08904218673706055,-1.438319206237793,6.840825080871582E-4,3.379999999999972
0.05121803283691406,-1.422393798828125,-0.07005083560943604,3.3899999999999717
-0.003599882125854492,-3.5668625831604004,0.20561707019805908,3.3999999999999715
-0.5435127019882202,-4.331596851348877,-0.005139946937561035,3.4099999999999713
-0.5469704866409302,-4.767162322998047,-0.02898991107940674,3.419999999999971
-0.3560750484466553,-5.13746976852417,0.02709364891052246,3.429999999999971
-0.3004302978515625,-5.104124069213867,0.057806968688964844,3.4399999999999706
-0.7179759740829468,-4.766536235809326,0.09062850475311279,3.4499999999999704
-1.1950368881225586,-4.148203372955322,0.17198193073272705,3.45999999999997
-1.3292815685272217,-3.4361977577209473,0.23688173294067383,3.46999999999997
-1.1960943937301636,-3.050082206726074,0.34506547451019287,3.47999999999997
-0.9256789684295654,-2.9742894172668457,0.46492528915405273,3.4899999999999696
-0.718110203742981,-3.337434768676758,0.8359278440475464,3.4999999999999694
-0.6419967412948608,-3.964933395385742,1.311938762664795,3.509999999999969
-0.73856520652771,-4.4176249504089355,1.3663434982299805,3.519999999999969
-0.5190955400466919,-4.536251068115234,1.0928441286087036,3.5299999999999687
-0.47808051109313965,-4.122215747833252,1.2903867959976196,3.5399999999999685
-0.2081294059753418,-3.6299872398376465,1.663789987564087,3.5499999999999683
0.0757894515991211,-2.9894914627075195,1.9054068326950073,3.559999999999968
0.4537222385406494,-2.1621971130371094,2.046344757080078,3.569999999999968
0.9781599044799805,-0.9250736236572266,1.837923526763916,3.5799999999999677
1.5320537090301514,1.0112619400024414,1.838944673538208,3.5899999999999674
1.7240748405456543,2.719757080078125,1.8319157361984253,3.5999999999999672
1.7194712162017822,4.334177017211914,1.9591399431228638,3.609999999999967
1.53486967086792,4.909351348876953,2.055690288543701,3.619999999999967
0.8807575702667236,4.708978652954102,2.3719482421875,3.6299999999999666
0.20662832260131836,3.727931022644043,2.893453598022461,3.6399999999999664
-0.30830681324005127,2.222627639770508,3.0760865211486816,3.649999999999966
-0.517372727394104,1.1419706344604492,3.1382932662963867,3.659999999999966
-0.5660817623138428,-0.008391380310058594,3.2483887672424316,3.6699999999999657
-0.9055429697036743,-0.43292713165283203,2.3849682807922363,3.6799999999999655
-0.7995548248291016,1.1656732559204102,-1.1171213388442993,3.6899999999999653
-1.5069572925567627,4.2656707763671875,-1.9494367837905884,3.699999999999965
0.09974932670593262,8.937990188598633,-2.4126791954040527,3.709999999999965
2.2774083614349365,11.130546569824219,-1.0742380619049072,3.7199999999999647
2.8847122192382812,11.057126998901367,-1.5336419343948364,3.7299999999999645
-0.08659982681274414,5.653499603271484,-3.1822667121887207,3.7399999999999642
-2.680959463119507,-1.0533161163330078,-4.9029130935668945,3.749999999999964
-3.140838623046875,-4.588886260986328,-4.720463752746582,3.759999999999964
-2.7724719047546387,-5.139570236206055,-2.409661054611206,3.7699999999999636
-1.9549565315246582,-4.02745246887207,-1.3533499240875244,3.7799999999999634
-0.5467432737350464,-2.189682960510254,-1.138427734375,3.789999999999963
0.5205733776092529,-0.3180427551269531,-1.3302700519561768,3.799999999999963
1.1400830745697021,1.2319707870483398,-1.7539743185043335,3.8099999999999627
1.3235337734222412,2.1223926544189453,-2.2815163135528564,3.8199999999999625
0.46482014656066895,1.8075141906738281,-2.7048251628875732,3.8299999999999623
-0.5729775428771973,1.0227022171020508,-2.6535048484802246,3.839999999999962
-0.506678581237793,0.9885101318359375,-2.5539944171905518,3.849999999999962
-1.5568609237670898,0.1801614761352539,-2.257477283477783,3.8599999999999617
-2.6233768463134766,-0.8428592681884766,-1.4125646352767944,3.8699999999999615
-2.498140811920166,-1.3129501342773438,-1.1817680597305298,3.8799999999999613
-1.9615631103515625,-2.101106643676758,-1.010054588317871,3.889999999999961
-1.480260968208313,-2.6732654571533203,-0.993735671043396,3.899999999999961
-0.9740660786628723,-2.8989691734313965,-1.0014533996582031,3.9099999999999606
-0.4680161476135254,-2.708637237548828,-1.2101507186889648,3.9199999999999604
0.1300187110900879,-2.4320244789123535,-1.2554839849472046,3.92999999999996
0.7357406616210938,-2.1413145065307617,-1.1137878894805908,3.93999999999996
1.5495885610580444,-2.1689352989196777,-0.9385528564453125,3.9499999999999598
2.035201072692871,-2.3110885620117188,-0.6846417188644409,3.9599999999999596
2.2162017822265625,-2.4219655990600586,-0.52866530418396,3.9699999999999593
2.0506668090820312,-2.3706297874450684,-0.3030052185058594,3.979999999999959
1.7090321779251099,-2.0833821296691895,0.020778536796569824,3.989999999999959
1.4043549299240112,-1.830460548400879,0.4775250554084778,3.9999999999999587
1.4237157106399536,-1.8723454475402832,0.7817149758338928,4.009999999999959
1.495968222618103,-1.9600000381469727,0.8225945830345154,4.019999999999959
1.7826193571090698,-2.1245908737182617,0.8195139169692993,4.0299999999999585
1.5249463319778442,-2.119394302368164,0.6425995230674744,4.039999999999958
1.0811421871185303,-2.100280284881592,0.25478512048721313,4.049999999999958
0.7041680812835693,-1.8705759048461914,-0.03130149841308594,4.059999999999958
0.43990039825439453,-1.1329498291015625,0.08221316337585449,4.069999999999958
0.5159851312637329,-0.26528358459472656,0.4042644798755646,4.079999999999957
0.909455418586731,0.6542387008666992,0.7576794624328613,4.089999999999957
1.7619662284851074,1.0734643936157227,0.9683269262313843,4.099999999999957
2.9178037643432617,0.8922605514526367,1.0351500511169434,4.109999999999957
3.605503797531128,0.9505414962768555,0.9908581972122192,4.119999999999957
4.142383575439453,1.197037696838379,1.0414280891418457,4.129999999999956
4.638848304748535,1.1786842346191406,1.1386115550994873,4.139999999999956
5.004098415374756,0.9526615142822266,1.3086276054382324,4.149999999999956
4.920579433441162,0.6526699066162109,1.1978172063827515,4.159999999999956
4.5170416831970215,0.3311433792114258,0.8244406580924988,4.1699999999999555
4.500441074371338,0.33297061920166016,0.8264449834823608,4.179999999999955
0.7925416231155396,0.13187122344970703,0.1902526319026947,4.189999999999955
-1.6739665269851685,0.4031982421875,-2.8939733505249023,4.199999999999955
-3.297525405883789,1.0879688262939453,-3.701603889465332,4.209999999999955
-3.6522626876831055,1.6122989654541016,-2.851682662963867,4.2199999999999545
-3.3864636421203613,2.0337867736816406,-2.9704909324645996,4.229999999999954
-2.392759323120117,2.7308731079101562,-3.293684959411621,4.239999999999954
-1.0893044471740723,4.465445518493652,-2.8684277534484863,4.249999999999954
-1.1677525043487549,6.212651252746582,-2.543351650238037,4.259999999999954
-1.5769914388656616,7.917928695678711,-1.9710160493850708,4.269999999999953
-1.6507527828216553,8.936089515686035,-1.3632491827011108,4.279999999999953
-1.5509328842163086,9.149687767028809,-1.0271230936050415,4.289999999999953
-1.6240267753601074,8.393805503845215,-0.9124009013175964,4.299999999999953
-1.6860512495040894,8.413118362426758,-0.9924421310424805,4.3099999999999525
-1.988359808921814,4.914353370666504,-0.6189185380935669,4.319999999999952
-1.914124846458435,2.6936683654785156,-0.39117980003356934,4.329999999999952
-1.6733752489089966,0.4420442581176758,-0.011528372764587402,4.339999999999952
-1.0205448865890503,-1.4798402786254883,0.309614896774292,4.349999999999952
-0.3434333801269531,-3.204526424407959,0.6507267951965332,4.3599999999999515
0.16288423538208008,-4.505354404449463,0.8548938035964966,4.369999999999951
0.5668857097625732,-5.247582912445068,0.5888439416885376,4.379999999999951
0.6758084297180176,-5.532953262329102,0.3423725366592407,4.389999999999951
0.4882330894470215,-5.443007946014404,0.2346808910369873,4.399999999999951
0.20659542083740234,-4.98482608795166,0.12303996086120605,4.40999999999995
-0.09152817726135254,-4.489641189575195,-0.023809432983398438,4.41999999999995
-0.5071818828582764,-3.557933807373047,0.04662811756134033,4.42999999999995
-0.8054132461547852,-3.1877365112304688,0.278903603553772,4.43999999999995
-1.1513208150863647,-2.643920421600342,0.3498649597167969,4.4499999999999496
-1.2564324140548706,-2.556454658508301,0.6495780944824219,4.459999999999949
-1.292565941810608,-2.7869420051574707,0.7525062561035156,4.469999999999949
-1.3492058515548706,-3.1404895782470703,0.7430262565612793,4.479999999999949
-1.1873859167099,-3.4514575004577637,0.7160180807113647,4.489999999999949
-1.082885980606079,-3.421217918395996,0.7258037328720093,4.4999999999999485
-0.748528003692627,-3.2535557746887207,0.8307307958602905,4.509999999999948
-0.4042651653289795,-3.0732641220092773,1.067313313484192,4.519999999999948
-0.2272641658782959,-2.684786796569824,1.047857403755188,4.529999999999948
0.04259014129638672,-2.151064872741699,1.2906603813171387,4.539999999999948
0.27538275718688965,-1.1295804977416992,1.3016318082809448,4.549999999999947
0.39688897132873535,-0.33678245544433594,1.1716705560684204,4.559999999999947
0.27443432807922363,0.5911960601806641,1.2058229446411133,4.569999999999947
0.11960387229919434,1.3030290603637695,1.2499516010284424,4.579999999999947
0.1054832935333252,1.8060712814331055,1.299063801765442,4.589999999999947
0.21578192710876465,2.1889657974243164,1.437394618988037,4.599999999999946
0.3535013198852539,2.476304054260254,1.8380863666534424,4.609999999999946
0.5776510238647461,2.6866140365600586,2.1416432857513428,4.619999999999946
0.8289177417755127,2.6754512786865234,2.6674561500549316,4.629999999999946
0.8484206199645996,2.4101200103759766,3.2874186038970947,4.6399999999999455
0.9933347702026367,1.7133522033691406,3.662198543548584,4.649999999999945
0.8443636894226074,0.958430290222168,3.7223169803619385,4.659999999999945
0.8125321865081787,0.9742584228515625,3.6835131645202637,4.669999999999945
0.04370903968811035,1.3328361511230469,1.7529253959655762,4.679999999999945
0.3664422035217285,3.354248046875,0.2494642734527588,4.689999999999944
1.3055353164672852,6.680797576904297,-1.3722138404846191,4.699999999999944
2.1894755363464355,9.280217170715332,-1.4378987550735474,4.709999999999944
2.192917823791504,9.25855541229248,-1.8238556385040283,4.719999999999944
-0.11200833320617676,4.850492477416992,-2.6933577060699463,4.729999999999944
-3.1402230262756348,-0.04701519012451172,-4.666436195373535,4.739999999999943
-3.9384536743164062,-3.497405529022217,-5.118379592895508,4.749999999999943
-3.5438284873962402,-3.9861202239990234,-2.641592025756836,4.759999999999943
-2.3107988834381104,-3.254758834838867,-1.288841724395752,4.769999999999943
-1.3934972286224365,-2.041445732116699,-1.6049320697784424,4.7799999999999425
-0.573418140411377,-0.5446681976318359,-1.6104097366333008,4.789999999999942
-0.14603543281555176,0.5020265579223633,-1.9034212827682495,4.799999999999942
0.10294032096862793,1.0033788681030273,-2.5394389629364014,4.809999999999942
-0.2266446352005005,0.7069883346557617,-2.7561910152435303,4.819999999999942
-1.124090313911438,0.03339958190917969,-2.422515869140625,4.8299999999999415
-1.8084449768066406,-0.5934514999389648,-2.001528739929199,4.839999999999941
-2.1939094066619873,-0.8072776794433594,-1.7288497686386108,4.849999999999941
-2.264873743057251,-0.8513307571411133,-1.6503459215164185,4.859999999999941
-2.3046131134033203,-0.8669424057006836,-1.386404275894165,4.869999999999941
-2.0100719928741455,-1.0283031463623047,-0.9830589294433594,4.87999999999994
-1.6592580080032349,-1.5127754211425781,-0.8345440030097961,4.88999999999994
-1.2886477708816528,-2.1486763954162598,-0.9232560992240906,4.89999999999994
-0.7951105833053589,-2.6446352005004883,-1.089434027671814,4.90999999999994
-0.3335261344909668,-2.7769899368286133,-1.221433401107788,4.9199999999999395
0.21178436279296875,-2.7360291481018066,-1.2306405305862427,4.929999999999939
0.8788083791732788,-2.557893753051758,-1.0174235105514526,4.939999999999939
1.5804091691970825,-2.355177402496338,-0.9989265203475952,4.949999999999939
2.1406502723693848,-2.3941493034362793,-0.9256163239479065,4.959999999999939
2.3625388145446777,-2.287630558013916,-0.6101837158203125,4.9699999999999385
2.2953124046325684,-1.910102367401123,-0.2928343415260315,4.979999999999938
2.0696914196014404,-1.4293861389160156,0.1384182572364807,4.989999999999938
2.061546564102173,-1.0290727615356445,0.49486982822418213,4.999999999999938
1.914792776107788,-0.6006231307983398,0.701194703578949,5.009999999999938
1.9427834749221802,-0.4429912567138672,0.7982704043388367,5.019999999999937
1.7297981977462769,-0.534027099609375,0.7897945046424866,5.029999999999937
1.4377342462539673,-0.7875308990478516,0.6422121524810791,5.039999999999937
0.849387526512146,-1.0001373291015625,0.35297223925590515,5.049999999999937
0.2482600212097168,-0.9492397308349609,0.2022148072719574,5.0599999999999365
-0.41098618507385254,-0.4288978576660156,0.5628544688224792,5.069999999999936
-0.32312875986099243,0.2643623352050781,0.9445938467979431,5.079999999999936
0.42384207248687744,0.6360273361206055,1.4668800830841064,5.089999999999936
1.574990153312683,0.5840768814086914,1.6976439952850342,5.099999999999936
2.8164939880371094,0.39861106872558594,1.6605418920516968,5.1099999999999355
3.8154706954956055,0.3759613037109375,1.427618384361267,5.119999999999935
4.505730628967285,0.5606966018676758,1.2982696294784546,5.129999999999935
5.0542988777160645,0.8012971878051758,1.1154358386993408,5.139999999999935
5.273563385009766,0.9729156494140625,0.9499837756156921,5.149999999999935
4.945847988128662,1.1614599227905273,0.7819130420684814,5.159999999999934
3.6316146850585938,1.5967140197753906,0.8794938325881958,5.169999999999934
2.2234206199645996,2.4322032928466797,-1.6208527088165283,5.179999999999934
1.3496876955032349,3.5071659088134766,-3.5423519611358643,5.189999999999934
-0.1746523380279541,3.9305295944213867,-3.5171701908111572,5.199999999999934
-2.4048261642456055,3.378598213195801,-3.043972969055176,5.209999999999933
-3.4650800228118896,2.2829418182373047,-3.037726640701294,5.219999999999933
-3.7238857746124268,1.5420923233032227,-3.113297700881958,5.229999999999933
-3.274796485900879,2.0150327682495117,-2.7281200885772705,5.239999999999933
-2.5833141803741455,3.027719497680664,-2.1212382316589355,5.2499999999999325
-2.4766674041748047,3.7863645553588867,-1.3554530143737793,5.259999999999932
-2.6253342628479004,4.2613420486450195,-1.1539398431777954,5.269999999999932
-2.4140868186950684,4.4530792236328125,-0.7465860843658447,5.279999999999932
-2.1552376747131348,4.685689926147461,-0.1979447603225708,5.289999999999932
-2.0937650203704834,4.863394737243652,0.08302462100982666,5.299999999999931
-1.6443650722503662,4.5117692947387695,0.1657085418701172,5.309999999999931
-1.1527782678604126,3.5519285202026367,0.142658531665802,5.319999999999931
-0.6072545051574707,2.0939455032348633,0.10949587821960449,5.329999999999931
-0.04970073699951172,0.9353532791137695,0.07998043298721313,5.339999999999931
0.27753186225891113,-0.2241830825805664,-0.01705986261367798,5.34999999999993
0.5620882511138916,-1.398336410522461,-0.06967717409133911,5.35999999999993
0.6459078788757324,-2.3812341690063477,0.03864109516143799,5.36999999999993
0.3577899932861328,-3.080915927886963,0.11043035984039307,5.37999999999993
0.0795142650604248,-3.7187647819519043,0.23695874214172363,5.3899999999999295
-0.15804839134216309,-3.977041721343994,0.23965394496917725,5.399999999999929
-0.6550232172012329,-3.9241580963134766,0.19748139381408691,5.409999999999929
-0.7390156984329224,-3.7267403602600098,0.19915521144866943,5.419999999999929
-1.4208877086639404,-3.459113121032715,0.23422014713287354,5.429999999999929
-1.808924913406372,-3.223701000213623,0.26808929443359375,5.4399999999999284
-1.8604257106781006,-2.9636950492858887,0.33659112453460693,5.449999999999928
-1.6378352642059326,-3.0325522422790527,0.4636111259460449,5.459999999999928
-1.3082377910614014,-3.0943198204040527,0.5247608423233032,5.469999999999928
-1.0440858602523804,-3.3261852264404297,0.6155357360839844,5.479999999999928
-0.715327262878418,-3.723649024963379,0.8724490404129028,5.489999999999927
-0.46417129039764404,-4.05916166305542,1.046834945678711,5.499999999999927
-0.2590521574020386,-3.9615683555603027,1.2526822090148926,5.509999999999927
-0.1608879566192627,-3.5960049629211426,1.3537235260009766,5.519999999999927
0.13950467109680176,-3.136931896209717,1.3767627477645874,5.5299999999999265
0.5026793479919434,-2.5980091094970703,1.4268232583999634,5.539999999999926
0.6964538097381592,-1.7630186080932617,1.280048131942749,5.549999999999926
0.9786827564239502,-0.6291017532348633,1.150730848312378,5.559999999999926
1.3624584674835205,1.0292272567749023,1.1489031314849854,5.569999999999926
1.4111831188201904,2.3996353149414062,1.388728380203247,5.5799999999999255
1.1226086616516113,3.8854198455810547,2.0412790775299072,5.589999999999925
0.6973559856414795,4.711943626403809,2.382458448410034,5.599999999999925
0.30149054527282715,4.85902214050293,2.6525673866271973,5.609999999999925
0.1237952709197998,4.121624946594238,3.094522714614868,5.619999999999925
-0.27642226219177246,2.5441083908081055,3.631009817123413,5.629999999999924
-0.5523208379745483,0.6275663375854492,3.945996046066284,5.639999999999924
-0.42558038234710693,-1.938446044921875,3.680048704147339,5.649999999999924
-0.615432620048523,-2.972100257873535,1.4967317581176758,5.659999999999924
-0.9771397113800049,-1.3007359504699707,-1.0211985111236572,5.6699999999999235
-1.0014042854309082,2.7082157135009766,-1.6970000267028809,5.679999999999923
-0.26456499099731445,8.095823287963867,-2.254336357116699,5.689999999999923
0.31284523010253906,10.9041166305542,-2.4932870864868164,5.699999999999923
0.7779545783996582,11.182973861694336,-2.726776599884033,5.709999999999923
-2.239903688430786,5.909466743469238,-4.260315895080566,5.7199999999999225
-3.1892685890197754,-0.08370494842529297,-4.887393474578857,5.729999999999922
-2.7993359565734863,-2.522512435913086,-3.745586395263672,5.739999999999922
-1.8519182205200195,-2.572662830352783,-2.4800219535827637,5.749999999999922
-0.733013391494751,-2.0129356384277344,-2.0901808738708496,5.759999999999922
0.40375208854675293,-0.8605117797851562,-1.9333665370941162,5.769999999999921
1.0814299583435059,-0.007477760314941406,-1.70499849319458,5.779999999999921
1.3438704013824463,0.5023641586303711,-2.048999547958374,5.789999999999921
0.8179724216461182,0.4710569381713867,-2.5156497955322266,5.799999999999921
-0.2040081024169922,-0.2059488296508789,-2.5895273685455322,5.809999999999921
-1.2205922603607178,-0.5887784957885742,-2.1818199157714844,5.81999999999992
-1.967283010482788,-0.9078073501586914,-1.640131950378418,5.82999999999992
-2.458761215209961,-0.9267158508300781,-1.4382774829864502,5.83999999999992
-2.3226916790008545,-1.0815324783325195,-1.4361851215362549,5.84999999999992
-2.478645086288452,-1.1196889877319336,-1.3070459365844727,5.8599999999999195
-2.3839473724365234,-1.5439510345458984,-1.1948256492614746,5.869999999999919
-1.7759453058242798,-2.1084470748901367,-1.2397716045379639,5.879999999999919
-1.156791090965271,-2.581756591796875,-1.3124964237213135,5.889999999999919
-0.5867630243301392,-2.477407932281494,-1.2475013732910156,5.899999999999919
-0.11949825286865234,-1.968437671661377,-1.2178254127502441,5.909999999999918
0.5042511224746704,-1.495173454284668,-1.0367615222930908,5.919999999999918
1.4586703777313232,-1.1859569549560547,-0.6974573135375977,5.929999999999918
1.8862857818603516,-1.0287895202636719,-0.5693260431289673,5.939999999999918
2.1748123168945312,-1.0409536361694336,-0.3124547600746155,5.949999999999918
2.0907764434814453,-1.2156429290771484,0.004176497459411621,5.959999999999917
1.9615912437438965,-1.5103569030761719,0.21929848194122314,5.969999999999917
1.8731461763381958,-1.7120881080627441,0.31030720472335815,5.979999999999917
1.8587968349456787,-1.7058148384094238,0.4272868037223816,5.989999999999917
1.9253318309783936,-1.6111574172973633,0.43623512983322144,5.9999999999999165
2.0007882118225098,-1.5095748901367188,0.4792987108230591,6.009999999999916
1.958518624305725,-1.4201231002807617,0.40218454599380493,6.019999999999916
1.770006775856018,-1.2805891036987305,0.22632139921188354,6.029999999999916
1.4830188751220703,-1.224954605102539,0.17426514625549316,6.039999999999916
0.9411613941192627,-1.0783052444458008,0.1553683876991272,6.0499999999999154
0.5783430337905884,-0.8021621704101562,0.2386472225189209,6.059999999999915
0.3907369375228882,-0.2787189483642578,0.3753485679626465,6.069999999999915
0.27026450634002686,0.1814899444580078,0.5001912713050842,6.079999999999915
0.43534719944000244,0.5263299942016602,0.5736929178237915,6.089999999999915
0.9047200679779053,0.6076669692993164,0.6834707260131836,6.099999999999914
1.712479591369629,0.4804115295410156,0.6798598766326904,6.109999999999914
2.3239238262176514,0.3187904357910156,0.5979897975921631,6.119999999999914
2.896991729736328,0.1771535873413086,0.46598124504089355,6.129999999999914
3.4125332832336426,-0.06461811065673828,0.4806478023529053,6.1399999999999135
3.659731388092041,-0.1191720962524414,0.512967586517334,6.149999999999913
3.5002264976501465,-0.0057353973388671875,0.6347231864929199,6.159999999999913
3.4866576194763184,-0.004512786865234375,0.6473003625869751,6.169999999999913
1.012939453125,1.831014633178711,-1.408743143081665,6.179999999999913
0.8392271995544434,3.13881778717041,-3.080714464187622,6.1899999999999125
0.05975449085235596,4.137805938720703,-2.2619616985321045,6.199999999999912
-0.6210485100746155,3.997462272644043,-2.3297383785247803,6.209999999999912
-0.5198442935943604,2.9051513671875,-3.3054466247558594,6.219999999999912
-1.193852186203003,2.4029836654663086,-3.051996946334839,6.229999999999912
-1.6347825527191162,2.9137582778930664,-2.7979233264923096,6.239999999999911
-1.5767306089401245,3.758999824523926,-2.559819459915161,6.249999999999911
-1.864612340927124,4.434541702270508,-1.9374477863311768,6.259999999999911
-2.1788158416748047,4.7736711502075195,-1.4163095951080322,6.269999999999911
-2.1379036903381348,4.8694305419921875,-1.1030876636505127,6.2799999999999105
-2.2080330848693848,4.794069290161133,-0.6537096500396729,6.28999999999991
-2.0034737586975098,4.502327919006348,-0.3479430377483368,6.29999999999991
-1.7085812091827393,3.9322471618652344,-0.16759562492370605,6.30999999999991
-1.3710377216339111,3.0341434478759766,0.031122148036956787,6.31999999999991
-0.9300291538238525,1.8230571746826172,-0.030926227569580078,6.3299999999999095
-0.442264199256897,0.4768352508544922,-0.33418720960617065,6.339999999999909
-0.08382606506347656,-0.9688539505004883,-0.47339069843292236,6.349999999999909
0.3693838119506836,-2.19138240814209,-0.44830912351608276,6.359999999999909
0.5253841876983643,-3.3108034133911133,-0.28626447916030884,6.369999999999909
0.5849504470825195,-4.246758937835693,-0.2924298048019409,6.379999999999908
0.31239986419677734,-4.829880714416504,-0.16836333274841309,6.389999999999908
-0.06252789497375488,-5.150214672088623,-0.027788996696472168,6.399999999999908
-0.40528178215026855,-5.101304054260254,-0.006991147994995117,6.409999999999908
-1.041296362876892,-4.396514892578125,0.13449931144714355,6.419999999999908
-1.553651213645935,-3.473694324493408,0.46473991870880127,6.429999999999907
-2.050398349761963,-2.548794746398926,0.7271949052810669,6.439999999999907
-2.2354581356048584,-1.6197071075439453,0.8011939525604248,6.449999999999907
-2.144096612930298,-0.9387102127075195,1.0496634244918823,6.459999999999907
-1.9391441345214844,-0.8636159896850586,1.140039324760437,6.4699999999999065
-1.7586259841918945,-1.0969877243041992,1.1069436073303223,6.479999999999906
-1.4273207187652588,-1.675157070159912,1.0833057165145874,6.489999999999906
-0.9368710517883301,-2.488792896270752,1.2201950550079346,6.499999999999906
-0.18123364448547363,-3.1341590881347656,1.2937383651733398,6.509999999999906
0.420851469039917,-3.3250880241394043,1.3375051021575928,6.519999999999905
0.6583991050720215,-3.0940022468566895,1.2520174980163574,6.529999999999905
0.828944206237793,-2.741158962249756,1.100224494934082,6.539999999999905
0.8966760635375977,-2.119770050048828,0.892799973487854,6.549999999999905
0.6845471858978271,-1.271810531616211,0.6981737613677979,6.559999999999905
0.5119144916534424,-0.31615543365478516,0.5799615383148193,6.569999999999904
0.3456864356994629,0.5592365264892578,0.8564291000366211,6.579999999999904
-0.01880192756652832,1.215463638305664,1.1078741550445557,6.589999999999904
-0.16946721076965332,1.4727401733398438,1.1367745399475098,6.599999999999904
-0.32944583892822266,1.714207649230957,1.1088721752166748,6.6099999999999035
-0.48961663246154785,1.776972770690918,1.386654257774353,6.619999999999903
-0.5067418813705444,1.5250778198242188,1.7262343168258667,6.629999999999903
-0.4685020446777344,1.1724042892456055,2.168661594390869,6.639999999999903
-0.5668751001358032,0.7768115997314453,2.729536771774292,6.649999999999903
-0.7542392015457153,0.46041202545166016,2.9834096431732178,6.659999999999902
-0.940231442451477,0.5911312103271484,2.554208278656006,6.669999999999902
-0.14160966873168945,1.9219627380371094,0.22020411491394043,6.679999999999902
0.030206680297851562,4.817760467529297,-0.7925238609313965,6.689999999999902
-0.3069283962249756,8.869989395141602,-1.74861478805542,6.699999999999902
0.020385265350341797,12.317708969116211,-1.1441121101379395,6.709999999999901
0.5025777816772461,12.211156845092773,-1.277962565422058,6.719999999999901
-0.6633888483047485,8.352167129516602,-2.984143018722534,6.729999999999901
-2.7900781631469727,2.0313568115234375,-3.91977858543396,6.739999999999901
-2.750757932662964,-1.5539212226867676,-3.5982656478881836,6.7499999999999005
-2.366121530532837,-2.9967660903930664,-2.686338424682617,6.7599999999999
-1.2859606742858887,-4.022911071777344,-2.0680510997772217,6.7699999999999
-0.19039487838745117,-4.119808673858643,-2.153729200363159,6.7799999999999
0.8428852558135986,-3.374786853790283,-2.473116636276245,6.7899999999999
1.1688673496246338,-2.2222323417663574,-2.721827268600464,6.7999999999998995
1.0498547554016113,-1.1758594512939453,-2.8116750717163086,6.809999999999899
0.6613647937774658,-0.6613388061523438,-2.759326457977295,6.819999999999899
-0.16703128814697266,-0.1242380142211914,-2.690809965133667,6.829999999999899
-0.8515106439590454,0.20853233337402344,-2.5655837059020996,6.839999999999899
-2.0042812824249268,0.7589273452758789,-2.243741035461426,6.849999999999898
-2.9783921241760254,0.9804258346557617,-1.9099650382995605,6.859999999999898
-3.484557628631592,0.6143150329589844,-1.6783599853515625,6.869999999999898
-3.6844546794891357,0.020298004150390625,-1.565527319908142,6.879999999999898
-3.2101736068725586,-0.7579803466796875,-1.5421562194824219,6.8899999999998975
-2.4770302772521973,-1.2160863876342773,-1.504437804222107,6.899999999999897
-1.7332321405410767,-1.4497270584106445,-1.5258667469024658,6.909999999999897
-0.9208559989929199,-1.3921575546264648,-1.5523849725723267,6.919999999999897
-0.18586218357086182,-1.1454734802246094,-1.6198068857192993,6.929999999999897
0.570864200592041,-0.6814212799072266,-1.3681387901306152,6.9399999999998965
1.3808228969573975,-0.5235843658447266,-1.1636964082717896,6.949999999999896
1.8716340065002441,-0.5665597915649414,-1.0870583057403564,6.959999999999896
2.2204341888427734,-0.7341947555541992,-0.9511500000953674,6.969999999999896
2.130614995956421,-0.8397693634033203,-0.7059681415557861,6.979999999999896
1.9525039196014404,-1.036397933959961,-0.4850102663040161,6.989999999999895
1.7128486633300781,-1.1372222900390625,-0.3759862184524536,6.999999999999895
1.598008394241333,-1.0590038299560547,-0.29929423332214355,7.009999999999895
1.4816153049468994,-0.9003810882568359,-0.24300289154052734,7.019999999999895
1.4238712787628174,-0.6948251724243164,-0.16496169567108154,7.0299999999998946
1.3837897777557373,-0.5161781311035156,0.002411365509033203,7.039999999999894
1.2888779640197754,-0.5320425033569336,0.13577675819396973,7.049999999999894
1.0374901294708252,-0.6876029968261719,0.2168426513671875,7.059999999999894
0.6816278696060181,-0.8726081848144531,0.20556437969207764,7.069999999999894
0.3757901191711426,-0.9264497756958008,0.19073998928070068,7.0799999999998935
0.17977690696716309,-1.0069589614868164,0.20038390159606934,7.089999999999893
0.1000441312789917,-1.0372591018676758,0.1618967056274414,7.099999999999893
0.15394723415374756,-1.0075883865356445,-0.08643770217895508,7.109999999999893
0.38869214057922363,-0.9439067840576172,-0.38746410608291626,7.119999999999893
0.7850122451782227,-0.8359270095825195,-0.5422287583351135,7.129999999999892
1.142113208770752,-0.877140998840332,-0.6095350980758667,7.139999999999892
1.443733811378479,-1.0967798233032227,-0.8791152834892273,7.149999999999892
1.7999972105026245,-1.354292869567871,-0.9484801292419434,7.159999999999892
2.0457966327667236,-1.4532947540283203,-0.8757208585739136,7.169999999999892
2.13997745513916,-1.3458223342895508,-0.9607536792755127,7.179999999999891
1.8968371152877808,-0.9435606002807617,-1.1935138702392578,7.189999999999891
1.4157172441482544,-0.5579023361206055,-1.2343734502792358,7.199999999999891
0.12433016300201416,0.08902835845947266,-0.10042917728424072,7.209999999999891
-1.3639500141143799,0.9041709899902344,-0.9492769241333008,7.2199999999998905
-1.9666038751602173,2.1555652618408203,-2.2404723167419434,7.22999999999989
-2.4293484687805176,3.459381103515625,-2.1208486557006836,7.23999999999989
-2.4497814178466797,3.809162139892578,-4.011780738830566,7.24999999999989
-2.304868221282959,3.884263038635254,-4.668517112731934,7.25999999999989
-1.4596011638641357,4.031469345092773,-3.769216299057007,7.269999999999889
-1.0737779140472412,4.15224552154541,-2.756443738937378,7.279999999999889
-1.4892234802246094,4.313412666320801,-1.9767816066741943,7.289999999999889
-1.7027934789657593,4.506350517272949,-1.3680957555770874,7.299999999999889
-2.140242099761963,4.825892448425293,-0.9485005140304565,7.309999999999889
-2.1923701763153076,4.804574966430664,-0.7371561527252197,7.319999999999888
-1.979307770729065,4.373211860656738,-0.7552646398544312,7.329999999999888
-1.6520154476165771,3.79006290435791,-0.5461024045944214,7.339999999999888
-1.145950436592102,3.098318099975586,-0.5536434650421143,7.349999999999888
-0.6350610256195068,2.3913049697875977,-0.775749921798706,7.3599999999998875
-0.07034587860107422,1.5617265701293945,-0.6029019355773926,7.369999999999887
0.15576601028442383,0.7614192962646484,-0.41816461086273193,7.379999999999887
0.22447466850280762,-0.3354663848876953,-0.07303428649902344,7.389999999999887
0.02138996124267578,-1.2755403518676758,0.1247553825378418,7.399999999999887
-0.162794828414917,-2.061807155609131,0.0854787826538086,7.4099999999998865
-0.2830698490142822,-2.713850498199463,0.05065298080444336,7.419999999999886
-0.445237398147583,-3.0960888862609863,0.08288514614105225,7.429999999999886
-0.483447790145874,-3.0998244285583496,0.1308152675628662,7.439999999999886
-0.6181124448776245,-2.7904977798461914,0.1925182342529297,7.449999999999886
-0.8593811988830566,-2.168107032775879,0.22608709335327148,7.459999999999885
-0.9958009719848633,-1.5360708236694336,0.1742246150970459,7.469999999999885
-1.1461418867111206,-0.8905525207519531,0.21112322807312012,7.479999999999885
-1.2505011558532715,-0.44271373748779297,0.18545031547546387,7.489999999999885
-1.2818355560302734,-0.3912038803100586,0.09610390663146973,7.4999999999998845
-1.370399832725525,-0.4712486267089844,0.009474515914916992,7.509999999999884
-1.4784846305847168,-0.6915349960327148,0.08921933174133301,7.519999999999884
-1.4664714336395264,-0.9560651779174805,0.17967772483825684,7.529999999999884
-1.4817445278167725,-1.2245359420776367,0.12332320213317871,7.539999999999884
-1.3283419609069824,-1.418905258178711,0.039583683013916016,7.5499999999998835
-1.2348212003707886,-1.3653831481933594,-0.13069796562194824,7.559999999999883
-1.2851401567459106,-0.8496618270874023,-0.3224515914916992,7.569999999999883
-1.1997336149215698,0.10851764678955078,-0.49678194522857666,7.579999999999883
-1.081888198852539,1.8923168182373047,-1.036746621131897,7.589999999999883
-0.6799113750457764,4.005949020385742,-0.8333204984664917,7.599999999999882
-0.3000638484954834,3.9158830642700195,-0.4378020763397217,7.609999999999882
-0.2543632984161377,2.497464179992676,-0.15569090843200684,7.619999999999882
0.5326502323150635,0.7790966033935547,-1.035414218902588,7.629999999999882
0.18703937530517578,-0.3753547668457031,-0.8519589900970459,7.6399999999998816
-0.23857474327087402,-0.12216949462890625,-1.1125214099884033,7.649999999999881
-1.1303402185440063,0.06806087493896484,-1.191720724105835,7.659999999999881
-1.2979401350021362,-0.3515939712524414,-1.187793254852295,7.669999999999881
-1.7834172248840332,-1.042551040649414,-0.7252769470214844,7.679999999999881
-1.7544854879379272,-1.8797821998596191,-1.566343069076538,7.6899999999998805
-1.855049729347229,-0.530181884765625,-0.07992827892303467,7.69999999999988
-2.077410936355591,0.26631641387939453,-0.8522586822509766,7.70999999999988
-1.2090468406677246,1.5178699493408203,-0.8379530906677246,7.71999999999988
-0.7365823984146118,2.1702747344970703,-0.43172430992126465,7.72999999999988
0.03713870048522949,0.9979104995727539,-1.5286386013031006,7.739999999999879
0.4512655735015869,0.27701759338378906,-0.8990224003791809,7.749999999999879
0.2827998399734497,0.07644939422607422,-1.0152921676635742,7.759999999999879
-0.06913554668426514,-0.35795021057128906,-0.9420947432518005,7.769999999999879
-0.42036759853363037,-0.8475217819213867,-0.8435010313987732,7.779999999999879
-0.42329204082489014,-0.8483991622924805,-0.8350639939308167,7.789999999999878
-0.24968910217285156,-1.006239891052246,-1.0074784755706787,7.799999999999878
-0.1794193983078003,0.19849681854248047,-0.25455164909362793,7.809999999999878
-0.4289323091506958,0.4485301971435547,-0.31501924991607666,7.819999999999878
-0.9819588661193848,0.4326000213623047,-0.9082033634185791,7.8299999999998775
-0.7367055416107178,0.21635055541992188,-1.1582739353179932,7.839999999999877
-0.023546338081359863,0.1444244384765625,-1.3784468173980713,7.849999999999877
-0.11166620254516602,0.3379850387573242,-1.1663055419921875,7.859999999999877
-0.18153715133666992,0.45917320251464844,-1.194643259048462,7.869999999999877
-0.7836719751358032,0.3170633316040039,-1.9625039100646973,7.879999999999876
-0.3134666681289673,0.19683170318603516,-1.7481735944747925,7.889999999999876
0.1651846170425415,0.2253398895263672,2.6297192573547363,7.899999999999876
-0.16433310508728027,0.34247398376464844,0.4443308115005493,7.909999999999876
0.17781007289886475,0.055721282958984375,-0.6705515384674072,7.919999999999876
0.4265667200088501,-0.05345726013183594,-0.4549609422683716,7.929999999999875
0.3708975315093994,-0.08484649658203125,-0.05645763874053955,7.939999999999875
0.3017547130584717,-0.15195083618164062,-0.0909651517868042,7.949999999999875
0.4329652786254883,-0.34371089935302734,-0.3484724760055542,7.959999999999875
0.6009988784790039,-0.33695220947265625,-0.3156334161758423,7.9699999999998745
0.7848137617111206,-0.28510570526123047,-0.34435272216796875,7.979999999999874
0.8236329555511475,-0.14785289764404297,-0.3244091272354126,7.989999999999874
0.7254313230514526,-0.00914764404296875,-0.30627894401550293,7.999999999999874
