AccX,AccY,AccZ,SampleRate
2.0135555267333984,0.013414382934570312,-3.801137924194336,0.01
2.349876880645752,-0.009481430053710938,-3.907928466796875,0.02
2.519412040710449,-0.08559513092041016,-3.630218744277954,0.03
2.257890224456787,-0.1515026092529297,-3.414689540863037,0.04
2.056781768798828,-0.14258956909179688,-3.3803913593292236,0.05
1.7897579669952393,-0.048816680908203125,-3.125652313232422,0.060000000000000005
1.2627652883529663,-0.4519472122192383,-2.740657091140747,0.07
0.7722944021224976,-0.4120912551879883,-2.818603992462158,0.08
0.3587428331375122,-0.05292034149169922,-2.749941349029541,0.09
0.14194202423095703,0.24725341796875,-2.5562233924865723,0.09999999999999999
0.18875575065612793,0.3114128112792969,-2.5058984756469727,0.10999999999999999
0.365728497505188,0.31950855255126953,-2.399214744567871,0.11999999999999998
0.5304040908813477,0.14803695678710938,-2.135709524154663,0.12999999999999998
0.7634372711181641,-0.0663595199584961,-1.8690464496612549,0.13999999999999999
1.0450928211212158,-0.3145408630371094,-1.8826717138290405,0.15
1.272425889968872,-0.35764503479003906,-2.0553205013275146,0.16
1.3979625701904297,-0.07855224609375,-2.201223611831665,0.17
1.6449555158615112,0.32863426208496094,-2.185093879699707,0.18000000000000002
2.0420591831207275,0.8085451126098633,-2.0730347633361816,0.19000000000000003
2.639216423034668,1.279571533203125,-2.0773744583129883,0.20000000000000004
3.098404884338379,1.87371826171875,-1.9402968883514404,0.21000000000000005
3.6256532669067383,2.0185375213623047,-1.8025884628295898,0.22000000000000006
4.230753421783447,2.020504951477051,-1.6628533601760864,0.23000000000000007
4.462518215179443,2.106609344482422,-1.3753381967544556,0.24000000000000007
4.5886921882629395,2.090237617492676,-1.0828498601913452,0.25000000000000006
4.473458766937256,1.8233356475830078,-0.9298303127288818,0.26000000000000006
4.060138702392578,1.5809822082519531,-0.9541271924972534,0.2700000000000001
3.0112392902374268,2.111851692199707,-2.1560096740722656,0.2800000000000001
1.2904272079467773,3.387448310852051,-4.3538737297058105,0.2900000000000001
-0.4932706356048584,3.9074506759643555,-4.779004096984863,0.3000000000000001
-1.8430753946304321,3.1911983489990234,-5.2445220947265625,0.3100000000000001
-2.550020694732666,2.287792205810547,-5.40280818939209,0.3200000000000001
-3.0447580814361572,1.494354248046875,-5.656388282775879,0.3300000000000001
-3.2804436683654785,1.3574609756469727,-5.665951728820801,0.34000000000000014
-3.316481113433838,1.475442886352539,-5.268087387084961,0.35000000000000014
-2.840618133544922,1.8025827407836914,-4.55082893371582,0.36000000000000015
-2.38169264793396,2.1607885360717773,-4.523144245147705,0.37000000000000016
-2.4338607788085938,2.1936569213867188,-4.590785980224609,0.38000000000000017
-2.051332712173462,2.946126937866211,-4.6964616775512695,0.3900000000000002
-1.8552236557006836,3.29754638671875,-4.125859260559082,0.4000000000000002
-1.5807018280029297,3.5730600357055664,-3.7539381980895996,0.4100000000000002
-1.2102912664413452,3.441725730895996,-4.090154647827148,0.4200000000000002
-0.8240190744400024,2.6486501693725586,-4.012414932250977,0.4300000000000002
-0.656580924987793,1.676060676574707,-3.616997718811035,0.4400000000000002
-0.3148922920227051,0.46385860443115234,-3.059208631515503,0.45000000000000023
-0.01296234130859375,-0.5645036697387695,-2.8171496391296387,0.46000000000000024
-0.2733743190765381,-1.2919631004333496,-2.7031588554382324,0.47000000000000025
-0.6331591606140137,-2.1383790969848633,-2.65925669670105,0.48000000000000026
-1.3204764127731323,-2.667661666870117,-2.579704761505127,0.49000000000000027
-1.8625319004058838,-3.012084484100342,-2.4853076934814453,0.5000000000000002
-1.9612863063812256,-2.8652234077453613,-2.553337574005127,0.5100000000000002
-1.8103280067443848,-2.5408873558044434,-2.322533369064331,0.5200000000000002
-1.9595093727111816,-2.024937152862549,-2.4443249702453613,0.5300000000000002
-1.8004087209701538,-1.5449438095092773,-2.49599552154541,0.5400000000000003
-1.4363093376159668,-1.1688799858093262,-2.192108631134033,0.5500000000000003
-0.9006298780441284,-1.0414619445800781,-1.835057258605957,0.5600000000000003
-0.30549466609954834,-0.849210262298584,-1.5635943412780762,0.5700000000000003
0.1347212791442871,-1.0161681175231934,-1.5896143913269043,0.5800000000000003
0.542945384979248,-1.5212936401367188,-1.7174568176269531,0.5900000000000003
0.8393559455871582,-2.082810401916504,-1.6964173316955566,0.6000000000000003
1.2507269382476807,-2.647787570953369,-1.1401379108428955,0.6100000000000003
1.502220869064331,-2.7662487030029297,-0.5024044513702393,0.6200000000000003
1.6617066860198975,-2.4544548988342285,-0.6189444065093994,0.6300000000000003
1.9062621593475342,-1.9837050437927246,-0.713670015335083,0.6400000000000003
1.9796223640441895,-1.1653499603271484,-0.8142585754394531,0.6500000000000004
1.903321385383606,-0.16279983520507812,-0.8645179271697998,0.6600000000000004
1.808462142944336,1.0369834899902344,-0.9250903129577637,0.6700000000000004
1.591492772102356,2.301776885986328,-1.2436728477478027,0.6800000000000004
1.1504007577896118,3.6393346786499023,-1.2031567096710205,0.6900000000000004
0.6973241567611694,4.600559234619141,-0.735867977142334,0.7000000000000004
0.7083193063735962,4.604458808898926,-0.7481346130371094,0.7100000000000004
-0.04700732231140137,5.196390151977539,0.3068966865539551,0.7200000000000004
-0.24831151962280273,4.081020355224609,0.3791074752807617,0.7300000000000004
-0.404964804649353,2.3038806915283203,0.4811439514160156,0.7400000000000004
-0.13830482959747314,0.20891571044921875,0.6092448234558105,0.7500000000000004
-0.7170110940933228,0.03621101379394531,-1.6674292087554932,0.7600000000000005
-1.035585641860962,1.8863039016723633,-3.982846736907959,0.7700000000000005
-0.6881903409957886,5.875784873962402,-4.399989128112793,0.7800000000000005
0.5769950151443481,9.696413040161133,-5.152594089508057,0.7900000000000005
2.13334321975708,11.308862686157227,-6.301847457885742,0.8000000000000005
1.3837357759475708,9.222506523132324,-7.013915538787842,0.8100000000000005
-1.733115315437317,3.8729190826416016,-7.82307243347168,0.8200000000000005
-3.5033271312713623,-0.6144413948059082,-8.270097732543945,0.8300000000000005
-3.566471576690674,-2.247011661529541,-6.555320739746094,0.8400000000000005
-3.030593156814575,-2.087245464324951,-4.479634761810303,0.8500000000000005
-3.0305984020233154,-2.0855278968811035,-4.482749938964844,0.8600000000000005
-0.7729494571685791,-0.7602677345275879,-3.551759719848633,0.8700000000000006
0.28282856941223145,-0.2659292221069336,-3.7599220275878906,0.8800000000000006
1.074336290359497,0.020705223083496094,-4.119779109954834,0.8900000000000006
1.2984094619750977,0.26352691650390625,-4.803115367889404,0.9000000000000006
1.0389258861541748,0.30455684661865234,-5.257903575897217,0.9100000000000006
0.308882474899292,0.3949394226074219,-5.319747447967529,0.9200000000000006
-0.7724356651306152,0.6374998092651367,-5.026960372924805,0.9300000000000006
-1.5319609642028809,0.5994834899902344,-4.532151222229004,0.9400000000000006
-1.4852570295333862,0.5568075180053711,-4.464046478271484,0.9500000000000006
-2.206594944000244,-0.3330869674682617,-3.679232120513916,0.9600000000000006
-2.0738296508789062,-1.2169256210327148,-3.7733099460601807,0.9700000000000006
-1.7631378173828125,-1.6766605377197266,-3.8759195804595947,0.9800000000000006
-1.1421093940734863,-1.8241534233093262,-3.891254186630249,0.9900000000000007
-0.6022334098815918,-1.6000843048095703,-3.7941925525665283,1.0000000000000007
0.14700734615325928,-1.5988850593566895,-3.793959617614746,1.0100000000000007
1.055293083190918,-1.4016952514648438,-3.815661907196045,1.0200000000000007
1.7627403736114502,-1.0746560096740723,-3.751953601837158,1.0300000000000007
2.3557043075561523,-0.9423847198486328,-3.3421831130981445,1.0400000000000007
2.2311344146728516,-0.5397586822509766,-2.830700397491455,1.0500000000000007
1.9017733335494995,-0.46380043029785156,-2.573110580444336,1.0600000000000007
1.4532867670059204,-0.6052932739257812,-2.4437601566314697,1.0700000000000007
1.2691142559051514,-0.8714971542358398,-2.321185350418091,1.0800000000000007
1.1782667636871338,-0.9362421035766602,-2.439535140991211,1.0900000000000007
1.157518744468689,-0.9662199020385742,-2.285686492919922,1.1000000000000008
1.2630958557128906,-0.9324254989624023,-2.3998775482177734,1.1100000000000008
1.2373954057693481,-0.7995977401733398,-2.454015016555786,1.1200000000000008
1.0979677438735962,-0.5275707244873047,-2.6385200023651123,1.1300000000000008
1.0832045078277588,0.08176612854003906,-2.7442047595977783,1.1400000000000008
1.0438827276229858,0.99267578125,-2.5258114337921143,1.1500000000000008
1.1661686897277832,1.7371740341186523,-2.349442481994629,1.1600000000000008
1.5187270641326904,2.115537643432617,-2.2123262882232666,1.1700000000000008
1.9351447820663452,2.0183773040771484,-1.907597303390503,1.1800000000000008
2.5621166229248047,1.7361249923706055,-1.4294555187225342,1.1900000000000008
3.2318668365478516,1.4051942825317383,-1.2435356378555298,1.2000000000000008
3.9987635612487793,0.9676094055175781,-1.5094913244247437,1.2100000000000009
4.579519748687744,0.62109375,-1.4539941549301147,1.2200000000000009
4.851953029632568,0.29669952392578125,-1.7871919870376587,1.2300000000000009
4.280285835266113,0.3378334045410156,-2.050917625427246,1.2400000000000009
2.296682596206665,1.1101455688476562,-2.5309360027313232,1.2500000000000009
0.3228325843811035,2.0426721572875977,-5.19155216217041,1.260000000000001
-1.470534086227417,2.78018856048584,-5.8642578125,1.270000000000001
-2.82403302192688,3.112041473388672,-5.357197284698486,1.280000000000001
-3.739635944366455,2.9982872009277344,-4.814050197601318,1.290000000000001
-3.938117265701294,3.0087499618530273,-4.818912982940674,1.300000000000001
-3.5531067848205566,3.340433120727539,-4.8354997634887695,1.310000000000001
-2.8984122276306152,3.9179887771606445,-4.263193607330322,1.320000000000001
-2.653930187225342,4.539790153503418,-3.753058910369873,1.330000000000001
-2.656963348388672,5.068726539611816,-3.8173651695251465,1.340000000000001
-2.206576108932495,5.001425743103027,-4.244259834289551,1.350000000000001
-1.7524096965789795,4.803125381469727,-3.8547072410583496,1.360000000000001
-1.5493202209472656,4.721574783325195,-3.246234655380249,1.370000000000001
-1.4062727689743042,4.400964736938477,-2.9176435470581055,1.380000000000001
-1.0484668016433716,3.7318267822265625,-2.7872045040130615,1.390000000000001
-0.8493585586547852,2.8615236282348633,-2.484168767929077,1.400000000000001
-0.7312307357788086,1.6058597564697266,-2.243041515350342,1.410000000000001
-0.6475105285644531,0.6363639831542969,-2.216907262802124,1.420000000000001
-0.5508017539978027,-0.33066272735595703,-2.3344385623931885,1.430000000000001
-0.6016817092895508,-1.297612190246582,-2.518293619155884,1.440000000000001
-0.8026658296585083,-2.057542324066162,-2.634402275085449,1.450000000000001
-0.9318573474884033,-2.6226820945739746,-2.7192397117614746,1.460000000000001
-0.9139857292175293,-3.012709140777588,-2.5974342823028564,1.470000000000001
-0.8409302234649658,-3.240602970123291,-2.5021421909332275,1.480000000000001
-0.8807156085968018,-3.242616653442383,-2.4907188415527344,1.490000000000001
-0.8333289623260498,-3.23492431640625,-2.5390944480895996,1.500000000000001
-1.0195751190185547,-2.520557403564453,-2.5360522270202637,1.5100000000000011
-1.0800079107284546,-2.019972801208496,-2.4338223934173584,1.5200000000000011
-0.9361203908920288,-1.8168797492980957,-2.0541553497314453,1.5300000000000011
-0.8035120964050293,-1.775700569152832,-1.676685094833374,1.5400000000000011
-0.6460299491882324,-1.8795881271362305,-1.4992129802703857,1.5500000000000012
-0.4931141138076782,-2.2702741622924805,-1.4953734874725342,1.5600000000000012
-0.39634382724761963,-2.661210060119629,-1.5482280254364014,1.5700000000000012
-0.22546827793121338,-2.844731330871582,-1.5303845405578613,1.5800000000000012
0.01650071144104004,-2.866525650024414,-1.2845301628112793,1.5900000000000012
0.24479269981384277,-2.7320423126220703,-1.0363612174987793,1.6000000000000012
0.4736175537109375,-2.310122489929199,-1.1618189811706543,1.6100000000000012
0.4917401075363159,-1.4291324615478516,-1.676957130432129,1.6200000000000012
0.608405351638794,-0.2201547622680664,-1.7547271251678467,1.6300000000000012
0.597213625907898,1.208353042602539,-1.7414374351501465,1.6400000000000012
0.5648825168609619,2.71852970123291,-1.7355690002441406,1.6500000000000012
0.5980468988418579,3.602583885192871,-1.4448175430297852,1.6600000000000013
0.4930688142776489,4.125406265258789,-1.0943524837493896,1.6700000000000013
0.2198270559310913,4.284889221191406,-0.7143957614898682,1.6800000000000013
0.009501338005065918,4.102980613708496,-0.34148573875427246,1.6900000000000013
-0.22305536270141602,3.531147003173828,0.3539872169494629,1.7000000000000013
-0.19014251232147217,2.543437957763672,1.1588020324707031,1.7100000000000013
0.1857771873474121,1.4655380249023438,1.6237292289733887,1.7200000000000013
0.22510015964508057,1.1182851791381836,0.3030681610107422,1.7300000000000013
0.3334798812866211,2.3808326721191406,-2.1986396312713623,1.7400000000000013
0.15516650676727295,5.3762969970703125,-3.074272632598877,1.7500000000000013
1.310230016708374,8.69582748413086,-3.8767642974853516,1.7600000000000013
2.562877655029297,10.112663269042969,-5.167593479156494,1.7700000000000014
2.4050498008728027,9.345685958862305,-5.29518461227417,1.7800000000000014
0.6202342510223389,5.788403511047363,-5.856215953826904,1.7900000000000014
-1.8259292840957642,0.9889707565307617,-7.6186370849609375,1.8000000000000014
-2.349454164505005,-2.0798134803771973,-7.242752552032471,1.8100000000000014
-2.88977313041687,-2.935126304626465,-4.905021667480469,1.8200000000000014
-2.4074926376342773,-2.7920985221862793,-3.584953784942627,1.8300000000000014
-1.696578860282898,-1.9933457374572754,-3.7358880043029785,1.8400000000000014
-0.7490262985229492,-0.7961339950561523,-4.085543632507324,1.8500000000000014
0.16009855270385742,0.37154483795166016,-4.362100601196289,1.8600000000000014
0.553229808807373,1.040924072265625,-4.96990442276001,1.8700000000000014
0.13698315620422363,1.4617366790771484,-5.408146858215332,1.8800000000000014
-0.5070066452026367,1.667485237121582,-5.335173606872559,1.8900000000000015
-1.0058808326721191,1.6150951385498047,-5.007383346557617,1.9000000000000015
-1.485953450202942,1.2231578826904297,-4.440299987792969,1.9100000000000015
-1.7396636009216309,0.5085020065307617,-3.920606851577759,1.9200000000000015
-1.7483078241348267,-0.4469432830810547,-3.8129560947418213,1.9300000000000015
-1.6010868549346924,-1.2774262428283691,-3.6598057746887207,1.9400000000000015
-1.3669835329055786,-1.7664389610290527,-3.9811415672302246,1.9500000000000015
-1.0012750625610352,-1.904017448425293,-3.9438209533691406,1.9600000000000015
-0.5782738924026489,-1.7346115112304688,-3.781377077102661,1.9700000000000015
-0.06558942794799805,-1.698697566986084,-3.664159059524536,1.9800000000000015
0.7182252407073975,-1.6686787605285645,-3.5742502212524414,1.9900000000000015
1.3142873048782349,-1.5787091255187988,-3.453864336013794,2.0000000000000013
2.0271501541137695,-1.4429502487182617,-3.178163766860962,2.010000000000001
2.2477381229400635,-1.287567138671875,-2.9486560821533203,2.020000000000001
2.3502583503723145,-1.457651138305664,-2.4361510276794434,2.0300000000000007
1.976963996887207,-1.4144878387451172,-2.269129753112793,2.0400000000000005
1.6599947214126587,-1.2906451225280762,-2.0601682662963867,2.0500000000000003
1.5518115758895874,-0.9805307388305664,-1.9589412212371826,2.06
1.5138556957244873,-0.5751285552978516,-1.9497060775756836,2.07
1.446685552597046,-0.29673004150390625,-1.9560879468917847,2.0799999999999996
1.412817120552063,-0.24964332580566406,-2.0685131549835205,2.0899999999999994
1.1208019256591797,-0.31136131286621094,-2.1148431301116943,2.099999999999999
0.7128480672836304,-0.4725065231323242,-2.135946035385132,2.109999999999999
0.19572949409484863,-0.4434366226196289,-2.231874942779541,2.1199999999999988
-0.03079843521118164,-0.19099998474121094,-2.0759494304656982,2.1299999999999986
0.12927484512329102,0.13505840301513672,-1.8391289710998535,2.1399999999999983
0.824224591255188,0.4192371368408203,-1.4348376989364624,2.149999999999998
1.9019190073013306,0.4664802551269531,-0.9767818450927734,2.159999999999998
3.116384506225586,0.28563499450683594,-0.9141603708267212,2.1699999999999977
4.1021528244018555,0.28643035888671875,-1.1244196891784668,2.1799999999999975
5.161214828491211,0.3884725570678711,-1.3866386413574219,2.1899999999999973
5.646885871887207,0.6725921630859375,-1.549781084060669,2.199999999999997
5.775321960449219,0.9610042572021484,-1.6342744827270508,2.209999999999997
5.217855930328369,0.9543790817260742,-1.6940758228302002,2.2199999999999966
3.186866283416748,1.0787086486816406,-1.6002600193023682,2.2299999999999964
0.9408406019210815,1.598165512084961,-4.230790138244629,2.239999999999996
-1.4044678211212158,2.688709259033203,-6.068175315856934,2.249999999999996
-3.040534019470215,3.293219566345215,-5.939662933349609,2.259999999999996
-4.451294898986816,3.372481346130371,-5.126331806182861,2.2699999999999956
-5.19815731048584,3.449787139892578,-5.193106651306152,2.2799999999999954
-4.582847595214844,4.042710304260254,-5.637324810028076,2.289999999999995
-3.521709442138672,5.162114143371582,-5.0407514572143555,2.299999999999995
-2.821413516998291,6.56705379486084,-4.270958423614502,2.3099999999999947
-2.7783727645874023,7.21563720703125,-4.170101642608643,2.3199999999999945
-2.276472330093384,7.301484107971191,-4.312163352966309,2.3299999999999943
-1.4576467275619507,6.93930721282959,-4.170965194702148,2.339999999999994
-1.1460963487625122,6.199969291687012,-3.5697216987609863,2.349999999999994
-1.2927954196929932,5.202986717224121,-3.1345021724700928,2.3599999999999937
-1.5414235591888428,3.8566503524780273,-2.966531276702881,2.3699999999999934
-1.628623127937317,2.276618003845215,-2.8407609462738037,2.3799999999999932
-1.2136187553405762,0.5203332901000977,-2.462005376815796,2.389999999999993
-0.7209711074829102,-1.037735939025879,-2.0794055461883545,2.399999999999993
-0.3266739845275879,-2.202770233154297,-1.7493349313735962,2.4099999999999926
0.0451509952545166,-3.226881504058838,-1.641552448272705,2.4199999999999924
0.03821086883544922,-4.0570969581604,-1.9233906269073486,2.429999999999992
-0.09681940078735352,-4.354672908782959,-2.2095694541931152,2.439999999999992
-0.02897024154663086,-4.585737705230713,-2.433076858520508,2.4499999999999917
-0.055313825607299805,-4.499974250793457,-2.494792938232422,2.4599999999999915
-0.04473733901977539,-4.074350833892822,-2.5778603553771973,2.4699999999999913
-0.5089097023010254,-3.273658275604248,-2.6311659812927246,2.479999999999991
-1.3355638980865479,-2.274129867553711,-2.528486490249634,2.489999999999991
-1.7908707857131958,-1.4627585411071777,-2.3172998428344727,2.4999999999999907
-2.1095943450927734,-0.9459261894226074,-1.9336522817611694,2.5099999999999905
-2.143998622894287,-0.8914642333984375,-1.379861831665039,2.5199999999999902
-1.950648307800293,-1.2411689758300781,-1.024956464767456,2.52999999999999
-1.662679672241211,-1.7276806831359863,-1.017784833908081,2.53999999999999
-0.9973523616790771,-2.3900656700134277,-0.9478580951690674,2.5499999999999896
-0.4408184289932251,-2.6774277687072754,-0.8986082077026367,2.5599999999999894
0.01980876922607422,-2.580814838409424,-0.9841210842132568,2.569999999999989
0.45027852058410645,-2.170750617980957,-1.166600227355957,2.579999999999989
0.45762598514556885,-2.1731605529785156,-1.1647276878356934,2.5899999999999888
1.13157057762146,-1.014357566833496,-0.9239370822906494,2.5999999999999885
1.468631386756897,-0.03390312194824219,-0.9831366539001465,2.6099999999999883
1.685268521308899,0.9163379669189453,-1.0894317626953125,2.619999999999988
1.6717579364776611,2.2218475341796875,-1.0794034004211426,2.629999999999988
1.2691620588302612,3.502626419067383,-0.9845013618469238,2.6399999999999877
0.993313193321228,4.275516510009766,-0.8652057647705078,2.6499999999999875
0.6814192533493042,4.735016822814941,-0.6652061939239502,2.6599999999999873
0.43072688579559326,4.778908729553223,-0.12036609649658203,2.669999999999987
0.41744446754455566,4.788674354553223,-0.13674330711364746,2.679999999999987
0.18991494178771973,3.040797233581543,0.963176965713501,2.6899999999999866
0.11647403240203857,1.706425666809082,1.0715138912200928,2.6999999999999864
0.01320791244506836,2.021059036254883,-1.2272303104400635,2.709999999999986
-0.3809332847595215,4.059678077697754,-2.424339532852173,2.719999999999986
-0.3923989534378052,4.091645240783691,-2.4881653785705566,2.7299999999999858
1.2802166938781738,10.418376922607422,-3.5471463203430176,2.7399999999999856
1.6996020078659058,9.629440307617188,-4.476502418518066,2.7499999999999853
0.0031157732009887695,5.455479621887207,-5.286749839782715,2.759999999999985
-2.4029347896575928,0.5341978073120117,-6.509711265563965,2.769999999999985
-2.8540456295013428,-2.3734092712402344,-7.073789119720459,2.7799999999999847
-2.487502336502075,-3.581829071044922,-4.982031345367432,2.7899999999999845
-1.9668816328048706,-3.685513973236084,-3.5685958862304688,2.7999999999999843
-1.1876963376998901,-2.926218032836914,-3.3103530406951904,2.809999999999984
-0.2533317804336548,-1.431471347808838,-3.630758285522461,2.819999999999984
0.7704851627349854,0.15778636932373047,-3.7880711555480957,2.8299999999999836
1.575624704360962,1.6113462448120117,-4.043292999267578,2.8399999999999834
1.5287184715270996,2.280747413635254,-4.819344520568848,2.849999999999983
0.6932754516601562,2.022700309753418,-5.13571834564209,2.859999999999983
-0.42845356464385986,1.395772933959961,-4.9234747886657715,2.869999999999983
-1.2896783351898193,0.7165899276733398,-4.464115142822266,2.8799999999999826
-1.8835126161575317,0.039643287658691406,-4.151768207550049,2.8899999999999824
-2.2278542518615723,-0.6998491287231445,-3.888056755065918,2.899999999999982
-2.327129364013672,-1.4097766876220703,-3.6496453285217285,2.909999999999982
-2.282024383544922,-1.917928695678711,-3.5078656673431396,2.9199999999999817
-2.034315347671509,-2.556942939758301,-3.399627447128296,2.9299999999999815
-1.6829988956451416,-2.604611873626709,-3.501976728439331,2.9399999999999813
-1.1195900440216064,-2.0567541122436523,-3.5738182067871094,2.949999999999981
-0.3659094572067261,-1.409616470336914,-3.506430149078369,2.959999999999981
-0.3840782642364502,-1.4286794662475586,-3.44400954246521,2.9699999999999807
1.1460151672363281,-0.8848476409912109,-3.109815835952759,2.9799999999999804
1.126186728477478,-0.9031238555908203,-3.0457382202148438,2.9899999999999802
1.927486538887024,-1.4742140769958496,-2.9569132328033447,2.99999999999998
1.7738192081451416,-1.4631071090698242,-2.7534022331237793,3.00999999999998
1.7637646198272705,-1.4225358963012695,-2.250209331512451,3.0199999999999796
1.601523756980896,-1.2996001243591309,-2.0357472896575928,3.0299999999999794
1.4678479433059692,-1.0463237762451172,-2.189927339553833,3.039999999999979
1.3647873401641846,-0.5727806091308594,-2.234834909439087,3.049999999999979
1.2154829502105713,-0.2578697204589844,-1.9852588176727295,3.0599999999999787
1.1164851188659668,-0.4159212112426758,-1.7889690399169922,3.0699999999999785
1.1202564239501953,-0.8672847747802734,-1.9328899383544922,3.0799999999999783
0.7929507493972778,-0.9950809478759766,-2.148165225982666,3.089999999999978
0.43897247314453125,-0.42137622833251953,-2.116696357727051,3.099999999999978
0.33361077308654785,0.5712614059448242,-1.7702083587646484,3.1099999999999777
0.5971641540527344,1.3256721496582031,-1.3788037300109863,3.1199999999999775
1.3057842254638672,1.372030258178711,-1.1497834920883179,3.1299999999999772
2.1017966270446777,1.0605859756469727,-0.7345454692840576,3.139999999999977
2.87105393409729,0.9822568893432617,-0.6255265474319458,3.149999999999977
3.6778831481933594,1.0882081985473633,-0.7308148145675659,3.1599999999999766
4.617809295654297,1.2513151168823242,-0.8066306114196777,3.1699999999999764
5.310708045959473,1.4663200378417969,-0.7352681159973145,3.179999999999976
5.686213493347168,1.6293058395385742,-1.0467655658721924,3.189999999999976
5.399247646331787,1.6291542053222656,-1.4981703758239746,3.1999999999999758
3.436079740524292,1.9753303527832031,-0.9622037410736084,3.2099999999999755
1.4881054162979126,2.5938920974731445,-2.793581008911133,3.2199999999999753
-0.3091844320297241,3.552633285522461,-5.302402496337891,3.229999999999975
-2.6064376831054688,4.061941146850586,-6.208045959472656,3.239999999999975
-3.996945858001709,3.344533920288086,-5.320470809936523,3.2499999999999747
-4.575331687927246,2.345160484313965,-4.976345539093018,3.2599999999999745
-4.0555877685546875,2.076766014099121,-5.432785987854004,3.2699999999999743
-3.3927149772644043,2.9703426361083984,-4.926192283630371,3.279999999999974
-2.802927255630493,4.22812557220459,-3.917175769805908,3.289999999999974
-2.424351453781128,5.000202178955078,-4.056458473205566,3.2999999999999736
-2.263434648513794,5.47031307220459,-4.114264488220215,3.3099999999999734
-2.0917530059814453,5.616936683654785,-3.7813634872436523,3.319999999999973
-2.0926294326782227,5.544649124145508,-3.5468215942382812,3.329999999999973
-2.1371207237243652,5.57138729095459,-3.606679916381836,3.3399999999999728
-2.145658493041992,4.360320091247559,-3.158294916152954,3.3499999999999726
-1.8680939674377441,2.9661941528320312,-2.947291851043701,3.3599999999999723
-1.4042506217956543,1.2157058715820312,-2.7582905292510986,3.369999999999972
-0.9713603258132935,-0.4227943420410156,-2.6415982246398926,3.379999999999972
-0.504274845123291,-1.9229960441589355,-2.3463025093078613,3.3899999999999717
-0.257204532623291,-2.9473772048950195,-2.012869358062744,3.3999999999999715
-0.07727336883544922,-4.06356143951416,-1.9105758666992188,3.4099999999999713
-0.24356722831726074,-4.6737189292907715,-1.8197416067123413,3.419999999999971
-0.1911613941192627,-4.846436977386475,-1.7634022235870361,3.429999999999971
-0.3403513431549072,-4.434812545776367,-1.898280382156372,3.4399999999999706
-0.22744464874267578,-3.768815040588379,-1.9495201110839844,3.4499999999999704
-0.4002882242202759,-3.380019187927246,-1.8491336107254028,3.45999999999997
-0.7329959869384766,-2.9752087593078613,-1.9792125225067139,3.46999999999997
-1.175915002822876,-2.4104037284851074,-2.0068416595458984,3.47999999999997
-1.4264121055603027,-1.9072160720825195,-1.8312034606933594,3.4899999999999696
-1.5431104898452759,-1.4898276329040527,-1.1869502067565918,3.4999999999999694
-1.4479427337646484,-1.411764144897461,-0.6682298183441162,3.509999999999969
-1.437943935394287,-1.5953116416931152,-0.6032629013061523,3.519999999999969
-1.276464581489563,-2.046053409576416,-0.5843102931976318,3.5299999999999687
-0.9857200384140015,-2.4575347900390625,-0.5443258285522461,3.5399999999999685
-0.5239874124526978,-2.674612045288086,-0.46254920959472656,3.5499999999999683
-0.00541841983795166,-2.6409177780151367,-0.3368511199951172,3.559999999999968
0.5000226497650146,-2.2377076148986816,-0.32265782356262207,3.569999999999968
0.8520596027374268,-1.7144594192504883,-0.387007474899292,3.5799999999999677
1.1517645120620728,-0.8098373413085938,-0.710637092590332,3.5899999999999674
1.2923630475997925,0.5025968551635742,-0.682431697845459,3.5999999999999672
1.3747552633285522,1.8040685653686523,-0.5233874320983887,3.609999999999967
1.3204345703125,3.0441980361938477,-0.6057107448577881,3.619999999999967
1.222109317779541,4.111302375793457,-0.7158665657043457,3.6299999999999666
1.1630580425262451,4.543268203735352,-0.43345165252685547,3.6399999999999664
1.0104204416275024,4.665977478027344,0.2388601303100586,3.649999999999966
0.8033002614974976,4.45599365234375,0.8397634029388428,3.659999999999966
0.7649545669555664,3.850529670715332,1.3501513004302979,3.6699999999999657
1.0245411396026611,2.8595333099365234,1.6294529438018799,3.6799999999999655
0.9948927164077759,2.8797197341918945,1.5948026180267334,3.6899999999999653
2.0841636657714844,-0.5817584991455078,2.3699443340301514,3.699999999999965
2.7936668395996094,-2.5016531944274902,2.5273239612579346,3.709999999999965
2.4561705589294434,-3.3321447372436523,1.0174801349639893,3.7199999999999647
0.14052355289459229,-1.9527592658996582,-4.26615047454834,3.7299999999999645
-1.6395940780639648,0.4841442108154297,-5.934925079345703,3.7399999999999642
-1.1266825199127197,5.076111793518066,-7.900144577026367,3.749999999999964
0.6506226062774658,10.81729793548584,-8.274077415466309,3.759999999999964
1.9861218929290771,16.531906127929688,-4.870875835418701,3.7699999999999636
0.6927450895309448,14.322890281677246,-6.063043594360352,3.7799999999999634
-4.613125801086426,4.7548933029174805,-8.990838050842285,3.789999999999963
-5.644200325012207,-2.105544090270996,-7.186622619628906,3.799999999999963
-4.558204650878906,-4.0288543701171875,-3.3493270874023438,3.8099999999999627
-4.1744256019592285,-3.206173896789551,-1.4620790481567383,3.8199999999999625
-2.4957761764526367,-2.588128089904785,-1.3966445922851562,3.8299999999999623
0.36825013160705566,-1.8404817581176758,-2.3552563190460205,3.839999999999962
2.0781707763671875,-1.14607572555542,-3.33752179145813,3.849999999999962
2.6810901165008545,-1.0437955856323242,-4.337984085083008,3.8599999999999617
2.1367063522338867,-1.167989730834961,-4.862064361572266,3.8699999999999615
1.2606196403503418,-0.8506860733032227,-4.810953140258789,3.8799999999999613
0.08894407749176025,-0.0698251724243164,-4.344976425170898,3.889999999999961
-1.3073532581329346,0.8330974578857422,-3.6724276542663574,3.899999999999961
-2.1048996448516846,1.151876449584961,-3.3129265308380127,3.9099999999999606
-2.191565990447998,0.8017740249633789,-3.316413402557373,3.9199999999999604
-1.8308393955230713,-0.4478616714477539,-3.181640386581421,3.92999999999996
-1.3147882223129272,-1.8920655250549316,-3.2436094284057617,3.93999999999996
-1.1275646686553955,-2.9961462020874023,-3.5408380031585693,3.9499999999999598
-0.8136960864067078,-3.3216967582702637,-3.387103319168091,3.9599999999999596
-0.17325115203857422,-2.944528102874756,-2.953808546066284,3.9699999999999593
0.6945654153823853,-2.666916847229004,-2.7366816997528076,3.979999999999959
1.353747844696045,-1.881453514099121,-2.459949493408203,3.989999999999959
1.6461628675460815,-1.2977256774902344,-2.1014604568481445,3.9999999999999587
1.7930688858032227,-0.6948270797729492,-2.251814842224121,4.009999999999959
1.5735766887664795,-0.20896434783935547,-2.356001615524292,4.019999999999959
1.6997708082199097,-0.1564311981201172,-1.7615950107574463,4.0299999999999585
1.5905940532684326,-0.3154020309448242,-1.532155156135559,4.039999999999958
1.550703525543213,-0.6578874588012695,-1.5597490072250366,4.049999999999958
1.544924020767212,-1.0188560485839844,-1.7935082912445068,4.059999999999958
1.3598617315292358,-1.199462890625,-2.0269010066986084,4.069999999999958
0.918520450592041,-0.9847736358642578,-2.1051673889160156,4.079999999999957
0.5176284313201904,-0.6124839782714844,-1.8286086320877075,4.089999999999957
0.17498135566711426,-0.12573719024658203,-1.4018810987472534,4.099999999999957
0.1029355525970459,0.3947172164916992,-1.0464951992034912,4.109999999999957
0.40375685691833496,0.6631250381469727,-1.086860179901123,4.119999999999957
1.0686795711517334,0.9156417846679688,-1.1159820556640625,4.129999999999956
2.149601936340332,0.8534584045410156,-1.0384693145751953,4.139999999999956
3.249319076538086,0.8832616806030273,-0.9874869585037231,4.149999999999956
4.172583103179932,1.1311664581298828,-0.8818866014480591,4.159999999999956
5.024969577789307,1.4000272750854492,-1.1428879499435425,4.1699999999999555
5.1628007888793945,1.5284919738769531,-1.4930408000946045,4.179999999999955
4.75416374206543,1.3845529556274414,-1.6933906078338623,4.189999999999955
3.2460620403289795,1.3106670379638672,-1.4612383842468262,4.199999999999955
0.8306196928024292,1.8086967468261719,-2.572702407836914,4.209999999999955
-1.1931514739990234,2.278139114379883,-5.671644687652588,4.2199999999999545
-2.9019694328308105,3.018185615539551,-5.744592189788818,4.229999999999954
-4.018937110900879,3.2574462890625,-5.475767612457275,4.239999999999954
-4.571194648742676,3.29148006439209,-5.086100101470947,4.249999999999954
-3.5580148696899414,3.2591476440429688,-4.468398094177246,4.259999999999954
-2.190997362136841,3.948918342590332,-3.847133159637451,4.269999999999953
-1.622458577156067,5.439523696899414,-3.3993079662323,4.279999999999953
-1.881356954574585,6.975924491882324,-3.5484390258789062,4.289999999999953
-1.7076777219772339,7.278776168823242,-3.4496121406555176,4.299999999999953
-1.128129005432129,6.807659149169922,-3.298846483230591,4.3099999999999525
-1.0742113590240479,5.99650764465332,-3.1795573234558105,4.319999999999952
-1.136295199394226,4.917610168457031,-2.8397579193115234,4.329999999999952
-1.017715334892273,3.7350969314575195,-2.5530498027801514,4.339999999999952
-0.8080172538757324,2.218968391418457,-2.409374952316284,4.349999999999952
-0.6294746398925781,0.8310718536376953,-2.1974899768829346,4.3599999999999515
-0.35947299003601074,-0.7534418106079102,-2.009195327758789,4.369999999999951
-0.13131451606750488,-2.37874174118042,-1.905837059020996,4.379999999999951
-0.3599109649658203,-3.6321873664855957,-1.7042113542556763,4.389999999999951
-0.7915618419647217,-4.5871429443359375,-1.47575044631958,4.399999999999951
-1.2085415124893188,-4.896207809448242,-1.6091557741165161,4.40999999999995
-1.1701664924621582,-4.9398274421691895,-1.7557557821273804,4.41999999999995
-0.9733099937438965,-4.872135639190674,-1.8668960332870483,4.42999999999995
-0.9257007837295532,-4.3432416915893555,-1.8098702430725098,4.43999999999995
-1.2366427183151245,-3.5219311714172363,-1.881844401359558,4.4499999999999496
-1.6094889640808105,-2.5081357955932617,-1.8247886896133423,4.459999999999949
-1.6594388484954834,-1.7248544692993164,-1.7382175922393799,4.469999999999949
-1.79057776927948,-1.3797640800476074,-1.657252550125122,4.479999999999949
-1.6673377752304077,-1.3489656448364258,-1.4326461553573608,4.489999999999949
-1.6817121505737305,-1.4417319297790527,-1.1327531337738037,4.4999999999999485
-1.5766499042510986,-1.796827793121338,-0.8242895603179932,4.509999999999948
-1.3284744024276733,-2.426541328430176,-0.6320538520812988,4.519999999999948
-0.9257303476333618,-2.934307098388672,-0.39797043800354004,4.529999999999948
-0.7237045764923096,-2.940328598022461,-0.2824578285217285,4.539999999999948
-0.2950061559677124,-2.903319835662842,-0.27585411071777344,4.549999999999947
0.3038356304168701,-2.7025327682495117,-0.4331176280975342,4.559999999999947
0.833338737487793,-2.0964879989624023,-0.44260692596435547,4.569999999999947
1.2463667392730713,-1.0826692581176758,-0.6888105869293213,4.579999999999947
1.796543836593628,0.5686759948730469,-1.2686667442321777,4.589999999999947
2.22629451751709,2.0626754760742188,-1.2594208717346191,4.599999999999946
2.3249616622924805,3.5719242095947266,-1.0047686100006104,4.609999999999946
2.1488382816314697,4.554242134094238,-0.9017980098724365,4.619999999999946
1.7026957273483276,5.098458290100098,-0.7696902751922607,4.629999999999946
1.2032380104064941,4.996087074279785,0.07149791717529297,4.6399999999999455
0.9369956254959106,4.476058006286621,0.9404430389404297,4.649999999999945
0.6849397420883179,3.9008007049560547,1.352785348892212,4.659999999999945
0.2901078462600708,2.781496047973633,1.90162992477417,4.669999999999945
0.17222356796264648,1.4467105865478516,1.7511942386627197,4.679999999999945
-0.037378787994384766,1.240692138671875,-0.573775053024292,4.689999999999944
0.20168590545654297,2.5674943923950195,-1.1580629348754883,4.699999999999944
-0.13518023490905762,6.677454948425293,-2.8345279693603516,4.709999999999944
-0.008684635162353516,9.448031425476074,-3.573551893234253,4.719999999999944
0.5366725921630859,10.40458869934082,-3.7684786319732666,4.729999999999944
-0.045401811599731445,8.254362106323242,-4.413691520690918,4.739999999999943
-2.8800313472747803,2.700831413269043,-6.217912673950195,4.749999999999943
-3.7898716926574707,-1.8172078132629395,-7.851093292236328,4.759999999999943
-3.512195587158203,-4.216895580291748,-6.304003715515137,4.769999999999943
-3.0467846393585205,-4.30911922454834,-4.082723140716553,4.7799999999999425
-2.166642904281616,-3.212411403656006,-2.7667713165283203,4.789999999999942
-0.9761241674423218,-1.7594385147094727,-2.761453628540039,4.799999999999942
-0.10501527786254883,-0.3509197235107422,-3.0977206230163574,4.809999999999942
0.6020541191101074,0.635127067565918,-3.5888137817382812,4.819999999999942
0.9115381240844727,1.069051742553711,-4.329627990722656,4.8299999999999415
0.4076879024505615,0.9341144561767578,-4.547264575958252,4.839999999999941
-0.5442334413528442,0.6911067962646484,-4.372198104858398,4.849999999999941
-1.1784038543701172,0.4534463882446289,-3.954322338104248,4.859999999999941
-1.5737037658691406,0.25196266174316406,-3.6428353786468506,4.869999999999941
-1.6960450410842896,-0.09219741821289062,-3.4175620079040527,4.87999999999994
-1.418128252029419,-0.6593694686889648,-3.296792507171631,4.88999999999994
-1.1700758934020996,-1.1888427734375,-3.1720855236053467,4.89999999999994
-0.8357338905334473,-1.8589277267456055,-3.063185691833496,4.90999999999994
-0.7340935468673706,-2.274773120880127,-2.9930458068847656,4.9199999999999395
-0.5479973554611206,-2.3700027465820312,-2.967223644256592,4.929999999999939
-0.0788567066192627,-2.17716646194458,-2.831834077835083,4.939999999999939
0.541926383972168,-1.5666608810424805,-2.549464225769043,4.949999999999939
1.1030348539352417,-1.1745405197143555,-2.3664698600769043,4.959999999999939
1.6056965589523315,-0.8733844757080078,-2.2981138229370117,4.9699999999999385
1.8414077758789062,-0.7513399124145508,-2.178126811981201,4.979999999999938
1.8381268978118896,-0.9207916259765625,-1.9868780374526978,4.989999999999938
1.6934353113174438,-1.1564712524414062,-1.5757708549499512,4.999999999999938
1.480525016784668,-1.3721747398376465,-1.334084153175354,5.009999999999938
1.4131014347076416,-1.4156527519226074,-1.2277177572250366,5.019999999999937
1.3514935970306396,-1.2202129364013672,-1.2067346572875977,5.029999999999937
1.287996768951416,-0.9587059020996094,-1.3526580333709717,5.039999999999937
1.0615317821502686,-0.7406368255615234,-1.3918414115905762,5.049999999999937
0.7478927373886108,-0.6680593490600586,-1.2457441091537476,5.0599999999999365
0.5947422981262207,-0.9392557144165039,-1.2216556072235107,5.069999999999936
0.509994387626648,-1.1352663040161133,-1.4724762439727783,5.079999999999936
0.2106393575668335,-0.7635955810546875,-1.6932196617126465,5.089999999999936
0.033707261085510254,0.19473648071289062,-1.3674200773239136,5.099999999999936
0.2866051197052002,1.0421333312988281,-1.109427809715271,5.1099999999999355
0.8184949159622192,1.404189109802246,-0.7128055095672607,5.119999999999935
2.0749945640563965,1.2381858825683594,-0.5620814561843872,5.129999999999935
2.8306591510772705,0.9457473754882812,-0.5337839126586914,5.139999999999935
3.563887119293213,0.6958389282226562,-0.6070959568023682,5.149999999999935
3.9943408966064453,0.6316022872924805,-0.7325766086578369,5.159999999999934
3.9517598152160645,0.7549715042114258,-0.504164457321167,5.169999999999934
3.2879085540771484,1.508371353149414,-0.7880871295928955,5.179999999999934
2.810710906982422,3.326077461242676,-3.798677921295166,5.189999999999934
2.4963090419769287,4.675152778625488,-5.069596290588379,5.199999999999934
0.9211562871932983,5.139004707336426,-4.923172950744629,5.209999999999933
-0.9239165186882019,4.534857749938965,-4.765081405639648,5.219999999999933
-1.7302064895629883,3.4244890213012695,-5.447628021240234,5.229999999999933
-2.738342046737671,3.1932525634765625,-5.289471626281738,5.239999999999933
-3.7653980255126953,3.424501419067383,-4.374971389770508,5.2499999999999325
-3.8592710494995117,3.393937110900879,-3.801042318344116,5.259999999999932
-3.28346586227417,3.1700000762939453,-3.3535289764404297,5.269999999999932
-2.9681806564331055,3.0390844345092773,-3.2483882904052734,5.279999999999932
-2.725752830505371,2.9636077880859375,-3.171771287918091,5.289999999999932
-2.421424150466919,3.002751350402832,-2.5182740688323975,5.299999999999931
-1.7545326948165894,2.8699960708618164,-1.8864290714263916,5.309999999999931
-1.340136170387268,2.7259111404418945,-1.9475212097167969,5.319999999999931
-0.8353800773620605,2.3155593872070312,-2.1348609924316406,5.329999999999931
-0.5505062341690063,1.7292699813842773,-2.157475233078003,5.339999999999931
-0.35839366912841797,1.0481395721435547,-2.2207367420196533,5.34999999999993
-0.13556337356567383,0.1266040802001953,-2.141256809234619,5.35999999999993
0.0980689525604248,-0.9774799346923828,-1.9894938468933105,5.36999999999993
0.13000226020812988,-1.9309639930725098,-1.9492884874343872,5.37999999999993
0.03787374496459961,-2.909060478210449,-1.9197636842727661,5.3899999999999295
-0.44989657402038574,-3.5060806274414062,-1.7778081893920898,5.399999999999929
-1.0040913820266724,-3.5718865394592285,-1.737677812576294,5.409999999999929
-1.2845942974090576,-3.4705238342285156,-1.5524320602416992,5.419999999999929
-1.5065252780914307,-3.2781496047973633,-1.193076729774475,5.429999999999929
-1.8345117568969727,-2.727494716644287,-1.0235891342163086,5.4399999999999284
-2.1270124912261963,-2.1426711082458496,-1.009552240371704,5.449999999999928
-2.383478879928589,-1.5323972702026367,-1.0044348239898682,5.459999999999928
-2.186699867248535,-1.0873103141784668,-0.8254733085632324,5.469999999999928
-1.8442749977111816,-0.9337301254272461,-0.7084274291992188,5.479999999999928
-1.2936291694641113,-1.0552854537963867,-0.6981065273284912,5.489999999999927
-0.9504401683807373,-1.2487988471984863,-0.5621645450592041,5.499999999999927
-0.5191056728363037,-1.6755013465881348,-0.3423731327056885,5.509999999999927
-0.03959465026855469,-2.235652446746826,-0.2501235008239746,5.519999999999927
0.46730470657348633,-2.7784996032714844,-0.11100888252258301,5.5299999999999265
0.8272631168365479,-2.9349799156188965,0.09836339950561523,5.539999999999926
0.7728891372680664,-2.388546943664551,0.06808686256408691,5.549999999999926
0.8100330829620361,-1.7423381805419922,-0.08067965507507324,5.559999999999926
0.49249815940856934,-0.9140920639038086,0.0861520767211914,5.569999999999926
0.42394018173217773,0.0075283050537109375,0.09342002868652344,5.5799999999999255
0.5066032409667969,1.0263957977294922,-0.19739222526550293,5.589999999999925
0.7731320858001709,2.0068578720092773,-0.6881823539733887,5.599999999999925
0.8503835201263428,2.920225143432617,-0.7686903476715088,5.609999999999925
0.8390505313873291,3.3935651779174805,-0.5121972560882568,5.619999999999925
0.7698347568511963,3.7570714950561523,0.00437164306640625,5.629999999999924
0.6034162044525146,3.9094161987304688,0.7341897487640381,5.639999999999924
0.33241701126098633,3.6788330078125,1.367737054824829,5.649999999999924
0.10301637649536133,2.87424373626709,1.6091687679290771,5.659999999999924
-0.4572176933288574,2.290961265563965,-0.08339595794677734,5.6699999999999235
-0.12869751453399658,2.676809310913086,-1.1694035530090332,5.679999999999923
-0.1338648796081543,5.101832389831543,-1.9676439762115479,5.689999999999923
0.016568422317504883,8.596616744995117,-3.004552125930786,5.699999999999923
0.7298774719238281,10.53889274597168,-3.798088312149048,5.709999999999923
0.6034696102142334,9.879080772399902,-3.67825984954834,5.7199999999999225
-1.8620179891586304,4.546998023986816,-5.091094970703125,5.729999999999922
-3.1550354957580566,0.36736488342285156,-6.60707950592041,5.739999999999922
-3.008993625640869,-2.4320478439331055,-6.0123443603515625,5.749999999999922
-2.5428028106689453,-3.5845894813537598,-4.354058742523193,5.759999999999922
-2.5289194583892822,-3.582446575164795,-4.367379665374756,5.769999999999921
-0.56461501121521,-3.731895923614502,-3.7469730377197266,5.779999999999921
0.24136662483215332,-2.433839797973633,-4.098635196685791,5.789999999999921
0.7221589088439941,-1.3320016860961914,-4.134933948516846,5.799999999999921
0.9180407524108887,-0.25446128845214844,-4.037647724151611,5.809999999999921
0.6337409019470215,0.4725971221923828,-4.0368170738220215,5.81999999999992
-0.07506942749023438,0.8386821746826172,-4.007040500640869,5.82999999999992
-1.160581350326538,1.2149600982666016,-3.6772336959838867,5.83999999999992
-1.9304940700531006,1.0888442993164062,-3.324802875518799,5.84999999999992
-2.3235788345336914,0.7055501937866211,-3.228618621826172,5.8599999999999195
-2.4707603454589844,-0.0668039321899414,-3.043839931488037,5.869999999999919
-2.2975306510925293,-0.9400110244750977,-2.8232693672180176,5.879999999999919
-1.9709702730178833,-1.5178780555725098,-2.6210885047912598,5.889999999999919
-1.4524595737457275,-1.8436684608459473,-2.688033103942871,5.899999999999919
-0.7555012702941895,-1.9131479263305664,-2.887969493865967,5.909999999999918
-0.2153693437576294,-1.6998167037963867,-2.9404852390289307,5.919999999999918
0.4255640506744385,-1.2189249992370605,-2.6455774307250977,5.929999999999918
0.9792755842208862,-0.7838373184204102,-2.4351916313171387,5.939999999999918
1.5958484411239624,-0.5570230484008789,-2.297957420349121,5.949999999999918
2.0486607551574707,-0.6146688461303711,-2.0452637672424316,5.959999999999917
2.261514186859131,-0.8710880279541016,-1.838560938835144,5.969999999999917
2.2051429748535156,-1.1273994445800781,-1.7282804250717163,5.979999999999917
2.200622320175171,-1.1371536254882812,-1.6896120309829712,5.989999999999917
1.9009531736373901,-1.3529033660888672,-1.3918393850326538,5.9999999999999165
1.8130556344985962,-1.363245964050293,-1.2060582637786865,6.009999999999916
1.7305988073349,-1.2667388916015625,-1.089732050895691,6.019999999999916
1.5259268283843994,-1.1715288162231445,-1.0286803245544434,6.029999999999916
1.4031224250793457,-1.151432991027832,-1.2382872104644775,6.039999999999916
1.4369416236877441,-1.165633201599121,-1.2097327709197998,6.0499999999999154
0.6193532943725586,-0.797001838684082,-1.5194239616394043,6.059999999999915
-1.8405914306640625E-4,-0.4974517822265625,-1.3347537517547607,6.069999999999915
-0.07457971572875977,-0.2714414596557617,-1.2391767501831055,6.079999999999915
-0.0943077802658081,0.10389041900634766,-1.2494394779205322,6.089999999999915
0.1972484588623047,0.2989845275878906,-1.0546236038208008,6.099999999999914
0.2176445722579956,0.29157161712646484,-1.038844108581543,6.109999999999914
1.571574091911316,0.14205551147460938,-0.7252466678619385,6.119999999999914
2.302410364151001,0.013655662536621094,-0.9975944757461548,6.129999999999914
3.2333264350891113,-0.09917259216308594,-1.4217703342437744,6.1399999999999135
4.114736557006836,-0.07516860961914062,-1.5829977989196777,6.149999999999913
4.505887508392334,0.11426162719726562,-1.4629993438720703,6.159999999999913
4.473170280456543,0.11691856384277344,-1.4475946426391602,6.169999999999913
2.4711577892303467,1.9190521240234375,-1.2581602334976196,6.179999999999913
1.339676022529602,3.5232810974121094,-3.7953453063964844,6.1899999999999125
0.4364171028137207,4.750428199768066,-4.554422378540039,6.199999999999912
-0.7891412973403931,4.570157051086426,-5.200209617614746,6.209999999999912
-1.3149102926254272,3.979562759399414,-5.864174842834473,6.219999999999912
-2.0857465267181396,3.763361930847168,-5.195254325866699,6.229999999999912
-2.7142763137817383,3.6554641723632812,-4.172260284423828,6.239999999999911
-2.9029195308685303,3.6130599975585938,-3.8133835792541504,6.249999999999911
-2.6903393268585205,3.8001461029052734,-3.1549923419952393,6.259999999999911
-2.795182704925537,4.419119834899902,-2.508242607116699,6.269999999999911
-2.8767428398132324,5.025059700012207,-2.6824612617492676,6.2799999999999105
-2.4826059341430664,5.303793907165527,-2.7824337482452393,6.28999999999991
-1.9452428817749023,4.923501014709473,-2.7481026649475098,6.29999999999991
-1.4715126752853394,4.00514030456543,-2.700437307357788,6.30999999999991
-1.0380070209503174,2.888972282409668,-2.7424674034118652,6.31999999999991
-0.39618587493896484,1.457036018371582,-2.536298990249634,6.3299999999999095
0.007562160491943359,0.30266666412353516,-2.4697265625,6.339999999999909
0.2634584903717041,-0.8403196334838867,-2.1506402492523193,6.349999999999909
0.2771918773651123,-1.8772621154785156,-1.8834080696105957,6.359999999999909
-0.015964031219482422,-2.942861557006836,-1.804591178894043,6.369999999999909
-0.44037961959838867,-3.531937599182129,-1.7426908016204834,6.379999999999908
-1.1230790615081787,-3.800060749053955,-1.6980791091918945,6.389999999999908
-1.6483161449432373,-3.6410818099975586,-1.5670181512832642,6.399999999999908
-1.5942602157592773,-3.645069122314453,-1.6026173830032349,6.409999999999908
-2.4401471614837646,-2.4798436164855957,-1.3317909240722656,6.419999999999908
-2.6284265518188477,-1.6620893478393555,-1.2534157037734985,6.429999999999907
-2.928462505340576,-0.670964241027832,-1.321213960647583,6.439999999999907
-2.683701276779175,0.07373046875,-1.1943377256393433,6.449999999999907
-2.487589120864868,0.4329376220703125,-1.1348956823349,6.459999999999907
-2.0815274715423584,0.3402538299560547,-1.1309595108032227,6.4699999999999065
-1.712985873222351,-0.11765766143798828,-1.1332273483276367,6.479999999999906
-1.209094762802124,-0.8093461990356445,-1.0867719650268555,6.489999999999906
-0.7156407833099365,-1.5555405616760254,-0.9838178157806396,6.499999999999906
-0.25152575969696045,-1.9885859489440918,-0.7274339199066162,6.509999999999906
0.08769989013671875,-2.052196979522705,-0.5118241310119629,6.519999999999905
0.08574628829956055,-2.046818256378174,-0.5255498886108398,6.529999999999905
0.6474514007568359,-1.8949332237243652,-0.5241672992706299,6.539999999999905
0.8477277755737305,-1.6168103218078613,-0.7259716987609863,6.549999999999905
1.1127474308013916,-1.1086654663085938,-1.1674396991729736,6.559999999999905
0.9327061176300049,-0.31665802001953125,-1.5015506744384766,6.569999999999904
1.0886526107788086,0.12145709991455078,-1.5458579063415527,6.579999999999904
1.0171566009521484,0.5699281692504883,-1.2192686796188354,6.589999999999904
0.8074431419372559,0.8819341659545898,-1.1300852298736572,6.599999999999904
0.8164975643157959,0.8769102096557617,-1.1220295429229736,6.6099999999999035
0.09264802932739258,0.8577184677124023,-1.7460410594940186,6.619999999999903
-0.3351048231124878,0.7407169342041016,-1.4266879558563232,6.629999999999903
-0.5497432947158813,0.7450485229492188,-1.1127259731292725,6.639999999999903
-0.5478702783584595,0.747100830078125,-1.1197466850280762,6.649999999999903
-0.6786288022994995,1.0767765045166016,-0.08432579040527344,6.659999999999902
-0.9359207153320312,1.2250041961669922,0.37877726554870605,6.669999999999902
-1.2621821165084839,1.1091270446777344,0.6805329322814941,6.679999999999902
-1.5181373357772827,0.3942146301269531,0.8701794147491455,6.689999999999902
-1.4865363836288452,-0.3863496780395508,0.6106033325195312,6.699999999999902
-0.797667384147644,-0.6489486694335938,-1.6589347124099731,6.709999999999901
-0.11676669120788574,0.43550586700439453,-3.3153743743896484,6.719999999999901
0.1734006404876709,2.70963191986084,-2.2261152267456055,6.729999999999901
-0.13483119010925293,5.344819068908691,-3.1845052242279053,6.739999999999901
-0.559393048286438,8.424217224121094,-6.147453784942627,6.7499999999999005
-0.3695394992828369,10.563014030456543,-6.128608703613281,6.7599999999999
-0.8323922157287598,11.724398612976074,-5.922065734863281,6.7699999999999
-2.2269556522369385,9.501632690429688,-7.287177085876465,6.7799999999999
-2.5579705238342285,4.633504867553711,-6.971686363220215,6.7899999999999
-1.7572295665740967,0.49407958984375,-5.874615669250488,6.7999999999998995
-0.7537004947662354,-2.407066822052002,-4.544490814208984,6.809999999999899
-0.5090374946594238,-3.2637996673583984,-4.277087211608887,6.819999999999899
-0.47443687915802,-3.3573174476623535,-3.9273157119750977,6.829999999999899
-0.23970651626586914,-3.103328227996826,-3.2136499881744385,6.839999999999899
0.14975523948669434,-2.7237143516540527,-3.0852608680725098,6.849999999999898
0.4766876697540283,-2.0705137252807617,-3.4674198627471924,6.859999999999898
0.8184201717376709,-0.6059532165527344,-3.678144931793213,6.869999999999898
1.0336277484893799,1.1350774765014648,-4.043648719787598,6.879999999999898
1.0092711448669434,3.298431396484375,-4.497058868408203,6.8899999999998975
0.7540748119354248,3.8523263931274414,-4.570330619812012,6.899999999999897
0.17160654067993164,3.0339136123657227,-4.778763771057129,6.909999999999897
-0.31355738639831543,1.5001916885375977,-4.482985973358154,6.919999999999897
-0.6995538473129272,0.10454940795898438,-3.8402915000915527,6.929999999999897
-0.7361640930175781,-0.4473762512207031,-3.523606061935425,6.9399999999998965
-0.7556577920913696,-0.6192398071289062,-3.2462120056152344,6.949999999999896
-0.6575556993484497,-0.5197792053222656,-3.1774845123291016,6.959999999999896
-0.4066418409347534,-0.4654111862182617,-2.987687587738037,6.969999999999896
0.12931060791015625,-0.39848899841308594,-2.519773244857788,6.979999999999896
0.41384220123291016,-0.38156890869140625,-2.571624994277954,6.989999999999895
0.6954514980316162,-0.313018798828125,-2.6924190521240234,6.999999999999895
0.8426330089569092,-0.34017086029052734,-2.592146873474121,7.009999999999895
1.1180837154388428,-0.5124416351318359,-2.3397397994995117,7.019999999999895
1.1382462978363037,-0.7332305908203125,-2.347494125366211,7.0299999999998946
1.1257493495941162,-0.8210611343383789,-2.6995115280151367,7.039999999999894
0.9943423271179199,-0.6748266220092773,-3.0131142139434814,7.049999999999894
0.8297278881072998,-0.4171113967895508,-2.8906514644622803,7.059999999999894
0.5620726346969604,-0.06102466583251953,-2.7075512409210205,7.069999999999894
0.5720270872116089,0.2682971954345703,-2.418146848678589,7.0799999999998935
0.6440461874008179,0.5813674926757812,-2.201613426208496,7.089999999999893
0.7288450002670288,0.8132524490356445,-2.1964125633239746,7.099999999999893
0.7583308219909668,0.8515472412109375,-2.438065767288208,7.109999999999893
0.7955350875854492,0.7060394287109375,-2.593243360519409,7.119999999999893
0.7005279064178467,0.4554557800292969,-2.5834455490112305,7.129999999999892
0.5217427015304565,0.3055438995361328,-2.5097107887268066,7.139999999999892
0.27117180824279785,0.2633810043334961,-2.188123941421509,7.149999999999892
0.1642000675201416,0.1921062469482422,-1.9637963771820068,7.159999999999892
0.02131342887878418,0.16394805908203125,-1.9268196821212769,7.169999999999892
-0.15154683589935303,0.2604331970214844,-2.072115421295166,7.179999999999891
-0.3820948600769043,0.4431190490722656,-2.4022910594940186,7.189999999999891
-0.36526429653167725,0.4979534149169922,-2.708505153656006,7.199999999999891
-0.18825900554656982,0.5241250991821289,-2.7720274925231934,7.209999999999891
-0.08899092674255371,0.45570850372314453,-2.7711708545684814,7.2199999999998905
-0.06522369384765625,0.17531681060791016,-2.690521240234375,7.22999999999989
0.004687666893005371,-0.03243732452392578,-2.733762502670288,7.23999999999989
0.06699204444885254,-0.16075611114501953,-2.7663116455078125,7.24999999999989
0.16282784938812256,-0.22385215759277344,-2.731553077697754,7.25999999999989
0.21145963668823242,-0.1353769302368164,-2.685817241668701,7.269999999999889
0.20663785934448242,-0.13516521453857422,-2.683173894882202,7.279999999999889
0.5556098222732544,0.15689754486083984,-2.6090056896209717,7.289999999999889
0.6715973615646362,0.30159950256347656,-2.518948554992676,7.299999999999889
0.7267866134643555,0.5168418884277344,-2.4027063846588135,7.309999999999889
0.6242446899414062,0.6640071868896484,-2.274059295654297,7.319999999999888
0.41927778720855713,0.673619270324707,-2.2527482509613037,7.329999999999888
0.1820824146270752,0.6513996124267578,-2.245539426803589,7.339999999999888
-0.1303499937057495,0.6650791168212891,-2.236664056777954,7.349999999999888
-0.026299476623535156,0.4950904846191406,-2.1632561683654785,7.3599999999998875
-0.5264045000076294,0.5629940032958984,-2.2123470306396484,7.369999999999887
-0.697985827922821,0.5427274703979492,-2.1842336654663086,7.379999999999887
-0.8225555419921875,0.4344673156738281,-2.105173349380493,7.389999999999887
-1.0078328847885132,0.37465667724609375,-2.1210098266601562,7.399999999999887
-1.2085394859313965,0.3056640625,-2.199882984161377,7.4099999999998865
-0.9947540760040283,0.3616447448730469,-2.2934229373931885,7.419999999999886
-0.4272732734680176,0.5786247253417969,-2.0879807472229004,7.429999999999886
-0.4197577238082886,0.5783548355102539,-2.0918993949890137,7.439999999999886
-0.8740996718406677,0.4749116897583008,-1.6257869005203247,7.449999999999886
-0.9660027623176575,0.15392208099365234,-1.8974378108978271,7.459999999999885
-0.9484605193138123,0.09913921356201172,-1.6061697006225586,7.469999999999885
-1.0238120555877686,0.07341194152832031,-1.5615286827087402,7.479999999999885
-0.936400294303894,0.0882863998413086,-1.7199749946594238,7.489999999999885
-0.6827784776687622,0.2800130844116211,-1.7828618288040161,7.4999999999998845
-0.5389310121536255,0.41211605072021484,-1.7399861812591553,7.509999999999884
-0.5029689073562622,0.47482967376708984,-1.6780394315719604,7.519999999999884
-0.42648494243621826,0.6021881103515625,-1.6686618328094482,7.529999999999884
-0.48387134075164795,0.6912393569946289,-1.7432050704956055,7.539999999999884
-0.6190279126167297,0.7705402374267578,-1.815513014793396,7.5499999999998835
-0.6981611847877502,0.7685680389404297,-1.831424355506897,7.559999999999883
-0.8058282136917114,0.6973953247070312,-1.7742515802383423,7.569999999999883
-0.8609976172447205,0.5497531890869141,-1.719867467880249,7.579999999999883
-0.8767640590667725,0.3784198760986328,-1.644110083580017,7.589999999999883
-0.7697683572769165,0.2935800552368164,-1.561216115951538,7.599999999999882
-0.5949402451515198,0.21386432647705078,-1.4450831413269043,7.609999999999882
-0.4480370283126831,0.12965679168701172,-1.3601549863815308,7.619999999999882
-0.39269113540649414,0.14840984344482422,-1.320368766784668,7.629999999999882
-0.3057534694671631,0.21970558166503906,-1.2923190593719482,7.6399999999998816
-0.23485040664672852,0.3723630905151367,-1.4082186222076416,7.649999999999881
-0.7978312969207764,0.6856107711791992,-1.1588249206542969,7.659999999999881
-1.3652290105819702,1.0016202926635742,-1.4761555194854736,7.669999999999881
-0.5694544315338135,0.4709596633911133,-2.4702861309051514,7.679999999999881
0.07799816131591797,-0.42908287048339844,-0.9141079187393188,7.6899999999998805
-0.39516639709472656,0.046341896057128906,-1.683746576309204,7.69999999999988
0.6660211086273193,0.3798656463623047,-1.892668604850769,7.70999999999988
0.40072715282440186,0.5002861022949219,-1.5570590496063232,7.71999999999988
0.4912985563278198,0.2881317138671875,-0.9399361610412598,7.72999999999988
0.05864918231964111,0.5960226058959961,-1.8480048179626465,7.739999999999879
0.1483243703842163,0.11052513122558594,-1.658674955368042,7.749999999999879
-0.16175580024719238,0.2151498794555664,-0.45834851264953613,7.759999999999879
0.027668476104736328,0.4658985137939453,-1.7778785228729248,7.769999999999879
0.017584681510925293,0.4981975555419922,-1.4560350179672241,7.779999999999879
0.26601457595825195,0.07048606872558594,-1.2389315366744995,7.789999999999878
0.2564798593521118,0.013208389282226562,-1.241468071937561,7.799999999999878
0.24563348293304443,0.01947784423828125,-1.2565723657608032,7.809999999999878
0.3153674602508545,-0.030022621154785156,-0.28127026557922363,7.819999999999878
-0.16648125648498535,0.7220878601074219,-2.0682191848754883,7.8299999999998775
-0.24054062366485596,0.5796785354614258,-1.5862630605697632,7.839999999999877
0.3214707374572754,0.20676422119140625,-1.1001513004302979,7.849999999999877
0.32859766483306885,0.2149658203125,-1.2096654176712036,7.859999999999877
0.2597543001174927,0.26250362396240234,-1.309224247932434,7.869999999999877
0.29786431789398193,0.29508018493652344,-1.2377194166183472,7.879999999999876
0.20694661140441895,0.39710235595703125,-1.0387202501296997,7.889999999999876
0.15734851360321045,0.3029766082763672,-1.1591641902923584,7.899999999999876
0.4739108085632324,0.11540603637695312,0.9012002944946289,7.909999999999876
-0.22786974906921387,0.9047040939331055,-2.563812255859375,7.919999999999876
-0.15010607242584229,0.32939624786376953,-1.1561052799224854,7.929999999999875
0.15253174304962158,0.01806354522705078,-0.9244143962860107,7.939999999999875
0.3156472444534302,-0.045966148376464844,-1.0799651145935059,7.949999999999875
0.4095737934112549,-0.09851932525634766,-0.8700453042984009,7.959999999999875
0.731590747833252,-0.3997335433959961,-0.6144616603851318,7.9699999999998745
4.028614521026611,-0.026750564575195312,-1.0866823196411133,7.979999999999874
4.031088352203369,-0.026676177978515625,-1.0886204242706299,7.989999999999874
-0.8389716148376465,0.3281288146972656,-1.2188924551010132,7.999999999999874
