AccX,AccY,AccZ,SampleRate
-0.07580709457397461,-0.4047083854675293,-1.6828043460845947,0.01
-0.1279611587524414,-0.14080333709716797,-2.511220932006836,0.02
-0.030301570892333984,0.5209569931030273,-3.3338232040405273,0.03
0.09560441970825195,0.8816976547241211,-4.335430145263672,0.04
0.11367940902709961,0.6704063415527344,-4.634644508361816,0.05
-0.3714585304260254,0.37985897064208984,-3.8348326683044434,0.060000000000000005
-0.9494233131408691,0.4476432800292969,-2.537721633911133,0.07
-1.0797934532165527,0.9538211822509766,-1.2817637920379639,0.08
-0.5998857021331787,1.603891372680664,-1.7195385694503784,0.09
0.251251220703125,2.242025375366211,-2.903683662414551,0.09999999999999999
1.073601245880127,2.453549385070801,-3.819626569747925,0.10999999999999999
1.4838194847106934,2.102235794067383,-4.259317398071289,0.11999999999999998
1.5673673152923584,1.454533576965332,-4.623985290527344,0.12999999999999998
1.1911861896514893,0.8916587829589844,-5.135202407836914,0.13999999999999999
1.4916553497314453,1.039473533630371,-4.369429588317871,0.15
2.256737232208252,1.780679702758789,-2.6452505588531494,0.16
2.887716054916382,2.980487823486328,-1.398346185684204,0.17
3.2617197036743164,4.209111213684082,-0.8741841316223145,0.18000000000000002
3.211998701095581,4.897993087768555,-0.8027026653289795,0.19000000000000003
2.651785373687744,4.380420684814453,-2.167135238647461,0.20000000000000004
2.624303102493286,3.2709245681762695,-4.210416793823242,0.21000000000000005
2.342747449874878,2.041879653930664,-5.150830268859863,0.22000000000000006
1.4127271175384521,1.143280029296875,-4.605276107788086,0.23000000000000007
-0.01165008544921875,0.691340446472168,-3.366830348968506,0.24000000000000007
-1.1920459270477295,0.20623397827148438,-2.0789167881011963,0.25000000000000006
-2.811873197555542,-0.1342906951904297,-1.9065182209014893,0.26000000000000006
-4.01482629776001,-0.2346506118774414,-2.3799402713775635,0.2700000000000001
-5.329389572143555,0.5675296783447266,-2.763967752456665,0.2800000000000001
-5.900838851928711,2.0391626358032227,-3.1035473346710205,0.2900000000000001
-5.5980939865112305,4.57901668548584,-3.6439473628997803,0.3000000000000001
-4.115070819854736,6.325247287750244,-5.642434120178223,0.3100000000000001
-2.840527296066284,8.1094970703125,-6.871340751647949,0.3200000000000001
-1.7757298946380615,9.64599609375,-7.2050909996032715,0.3300000000000001
-0.391876220703125,11.798480987548828,-6.0408196449279785,0.34000000000000014
0.7806034088134766,13.468988418579102,-3.8889760971069336,0.35000000000000014
1.639793872833252,13.725553512573242,-2.326937437057495,0.36000000000000015
0.48962974548339844,11.616016387939453,-3.1557936668395996,0.37000000000000016
-1.3056392669677734,8.690235137939453,-4.773804664611816,0.38000000000000017
-1.6444520950317383,6.706106185913086,-5.493508338928223,0.3900000000000002
-1.2916860580444336,5.089395999908447,-5.463839054107666,0.4000000000000002
-0.7394847869873047,3.848822593688965,-5.396791934967041,0.4100000000000002
-0.6306724548339844,3.096585273742676,-5.997736930847168,0.4200000000000002
-1.3854870796203613,2.6095967292785645,-7.435497283935547,0.4300000000000002
-1.2132868766784668,0.8319196701049805,-11.192668914794922,0.4400000000000002
-2.1218667030334473,0.8746061325073242,-3.327209711074829,0.45000000000000023
-2.8629777431488037,0.05613994598388672,-4.75194787979126,0.46000000000000024
-3.361468553543091,-0.6890597343444824,-5.808943748474121,0.47000000000000025
-4.298106670379639,-1.2766914367675781,-7.058867454528809,0.48000000000000026
-5.228141784667969,-1.7058799266815186,-7.933147430419922,0.49000000000000027
-6.3000078201293945,-1.8995201587677002,-8.309226036071777,0.5000000000000002
-6.971229553222656,-2.0583794116973877,-8.189949989318848,0.5100000000000002
-7.709460735321045,-2.1671009063720703,-8.180754661560059,0.5200000000000002
-8.18195915222168,-2.387463092803955,-8.291523933410645,0.5300000000000002
-8.559762954711914,-2.269580125808716,-8.14159107208252,0.5400000000000003
-8.682743072509766,-1.9732916355133057,-7.984195232391357,0.5500000000000003
-8.221766471862793,-1.7482490539550781,-7.8466644287109375,0.5600000000000003
-7.38631010055542,-1.7833960056304932,-7.7554097175598145,0.5700000000000003
-6.738495826721191,-1.9049794673919678,-7.64194393157959,0.5800000000000003
-6.229195594787598,-2.13468337059021,-7.623424053192139,0.5900000000000003
-5.695971488952637,-2.6257922649383545,-7.5226874351501465,0.6000000000000003
-5.090800762176514,-3.02681565284729,-6.891087532043457,0.6100000000000003
-4.876901626586914,-2.778440475463867,-5.767720699310303,0.6200000000000003
-4.939340114593506,-2.193575620651245,-4.514227867126465,0.6300000000000003
-4.9564385414123535,-2.369671106338501,-4.3691253662109375,0.6400000000000003
-3.8476836681365967,0.568504810333252,-0.9195470809936523,0.6500000000000004
-0.3231494426727295,5.0292134284973145,1.978278636932373,0.6600000000000004
5.928617477416992,17.306306838989258,-4.087176322937012,0.6700000000000004
16.129207611083984,23.70954704284668,15.466255187988281,0.6800000000000004
16.2540283203125,24.679969787597656,9.093277931213379,0.6900000000000004
18.848026275634766,22.439987182617188,3.5850415229797363,0.7000000000000004
20.932586669921875,15.844095230102539,-0.030711650848388672,0.7100000000000004
17.513757705688477,9.150691032409668,-4.170500755310059,0.7200000000000004
10.325679779052734,4.431362152099609,-5.109780788421631,0.7300000000000004
1.7749381065368652,2.3065896034240723,-2.6268887519836426,0.7400000000000004
-6.086631774902344,2.985933780670166,1.2869768142700195,0.7500000000000004
-10.84140682220459,4.938520908355713,1.182596206665039,0.7600000000000005
-11.287692070007324,7.721025466918945,-1.5358572006225586,0.7700000000000005
-10.335831642150879,10.003983497619629,-6.185135364532471,0.7800000000000005
-7.297468185424805,10.688810348510742,-12.370668411254883,0.7900000000000005
-4.183032989501953,6.687152862548828,-15.125103950500488,0.8000000000000005
-3.9368984699249268,2.6948986053466797,-13.846786499023438,0.8100000000000005
-4.301967620849609,-0.21756219863891602,-12.892854690551758,0.8200000000000005
-4.4920549392700195,-2.6766486167907715,-11.716850280761719,0.8300000000000005
-4.488226413726807,-4.674970626831055,-10.111207962036133,0.8400000000000005
-4.735633373260498,-6.252877712249756,-9.027055740356445,0.8500000000000005
-5.6739935874938965,-6.794652938842773,-9.140607833862305,0.8600000000000005
-6.504740238189697,-5.803572654724121,-10.543025970458984,0.8700000000000006
-6.964762210845947,-3.4456703662872314,-12.306297302246094,0.8800000000000006
-6.724827766418457,-0.18292570114135742,-13.834535598754883,0.8900000000000006
-6.235636234283447,2.525435447692871,-14.60083293914795,0.9000000000000006
-5.339805603027344,4.822220802307129,-13.838281631469727,0.9100000000000006
-0.07305479049682617,8.858179092407227,5.096768379211426,0.9200000000000006
2.772691249847412,10.480051040649414,10.219892501831055,0.9300000000000006
1.263521671295166,8.541130065917969,1.929689884185791,0.9400000000000006
-1.6207213401794434,5.94359016418457,-5.121466636657715,0.9500000000000006
-3.1146607398986816,3.6784920692443848,-9.536539077758789,0.9600000000000006
-3.4780383110046387,2.0373334884643555,-10.781259536743164,0.9700000000000006
-2.447511911392212,0.2561945915222168,-9.209716796875,0.9800000000000006
-1.3462467193603516,-1.0339503288269043,-7.032527923583984,0.9900000000000007
-0.8463475704193115,-1.6522517204284668,-5.081077575683594,1.0000000000000007
-0.9947915077209473,-1.877920150756836,-4.2490668296813965,1.0100000000000007
-1.7028920650482178,-1.7244396209716797,-4.806042671203613,1.0200000000000007
-2.3097877502441406,-1.4372410774230957,-6.47249698638916,1.0300000000000007
-2.1910862922668457,-1.0505223274230957,-6.9258809089660645,1.0400000000000007
-1.6494052410125732,-0.2651205062866211,-5.504876136779785,1.0500000000000007
-0.9200372695922852,0.54144287109375,-3.6427743434906006,1.0600000000000007
-0.1998307704925537,1.047170639038086,-2.1298248767852783,1.0700000000000007
0.465012788772583,1.1899728775024414,-0.6898295879364014,1.0800000000000007
0.9962892532348633,0.8521623611450195,-0.34760212898254395,1.0900000000000007
1.149292230606079,0.14199352264404297,-1.8181402683258057,1.1000000000000008
1.079131841659546,-0.1992959976196289,-3.0419795513153076,1.1100000000000008
0.8446781635284424,-0.26601505279541016,-3.7770678997039795,1.1200000000000008
0.5136880874633789,0.13628005981445312,-4.068818092346191,1.1300000000000008
0.3061079978942871,0.7143764495849609,-4.573586463928223,1.1400000000000008
-0.006816387176513672,1.1312580108642578,-4.321061134338379,1.1500000000000008
-0.7340884208679199,1.1742229461669922,-3.161970853805542,1.1600000000000008
-1.1552836894989014,0.9229669570922852,-1.852908968925476,1.1700000000000008
-0.9626986980438232,0.7382450103759766,-0.6409269571304321,1.1800000000000008
0.08267378807067871,0.8983469009399414,-0.8679909706115723,1.1900000000000008
1.3724122047424316,1.4742136001586914,-1.7630397081375122,1.2000000000000008
2.4305007457733154,1.8910913467407227,-2.9567246437072754,1.2100000000000009
2.709927558898926,1.7897720336914062,-4.496954441070557,1.2200000000000009
2.3815340995788574,1.277796745300293,-5.675723075866699,1.2300000000000009
1.2402985095977783,0.7757329940795898,-6.671462535858154,1.2400000000000009
1.61478590965271,0.7406816482543945,-5.545314788818359,1.2500000000000009
3.221804141998291,1.3733434677124023,-2.3279378414154053,1.260000000000001
4.461304664611816,2.729043960571289,-0.7724131345748901,1.270000000000001
4.676707744598389,4.4069013595581055,-0.6592402458190918,1.280000000000001
4.450769424438477,5.009688377380371,-1.1382901668548584,1.290000000000001
3.8007400035858154,4.221343994140625,-2.182302474975586,1.300000000000001
3.2185380458831787,2.628396987915039,-3.1893978118896484,1.310000000000001
2.522139072418213,1.3389062881469727,-3.472543716430664,1.320000000000001
1.3153913021087646,0.22507286071777344,-3.458160877227783,1.330000000000001
0.17073798179626465,-0.8806228637695312,-3.4690380096435547,1.340000000000001
-0.6955182552337646,-1.25294828414917,-3.7056641578674316,1.350000000000001
-2.116128444671631,-0.7986125946044922,-3.8914403915405273,1.360000000000001
-3.6592421531677246,0.3461112976074219,-3.2320914268493652,1.370000000000001
-4.4510602951049805,2.3356447219848633,-2.457683801651001,1.380000000000001
-4.5499444007873535,4.928678512573242,-3.1934027671813965,1.390000000000001
-3.1222290992736816,7.035677909851074,-5.868518829345703,1.400000000000001
-2.470244884490967,8.543609619140625,-7.231307029724121,1.410000000000001
-1.6258792877197266,10.548065185546875,-6.985522270202637,1.420000000000001
-0.8338112831115723,12.829887390136719,-5.725003719329834,1.430000000000001
-0.1214447021484375,14.695291519165039,-4.169236183166504,1.440000000000001
0.9338135719299316,14.441184997558594,-3.322990894317627,1.450000000000001
0.05937623977661133,10.850308418273926,-3.71091890335083,1.460000000000001
-1.255478858947754,8.417211532592773,-4.075865268707275,1.470000000000001
-1.3828425407409668,8.618124008178711,-4.19952392578125,1.480000000000001
-3.2026798725128174,3.889249801635742,-4.449020862579346,1.490000000000001
-3.201873302459717,2.647115707397461,-4.818546295166016,1.500000000000001
-3.021836280822754,1.6765141487121582,-5.709502696990967,1.5100000000000011
-2.8921279907226562,1.123551368713379,-6.900655746459961,1.5200000000000011
-2.7591552734375,0.9376997947692871,-7.831273555755615,1.5300000000000011
-2.6692655086517334,0.7464413642883301,-8.419258117675781,1.5400000000000011
-2.6099298000335693,0.15092039108276367,-8.401572227478027,1.5500000000000012
-2.763486385345459,-0.6608428955078125,-8.150992393493652,1.5600000000000012
-2.873904228210449,-1.5078978538513184,-8.05360221862793,1.5700000000000012
-3.016672372817993,-2.3698441982269287,-7.950741291046143,1.5800000000000012
-3.3233659267425537,-2.829428195953369,-7.587365627288818,1.5900000000000012
-4.041686534881592,-2.874389410018921,-7.218647003173828,1.6000000000000012
-4.972145080566406,-2.265632390975952,-6.9712042808532715,1.6100000000000012
-6.007913112640381,-1.663170337677002,-6.82578706741333,1.6200000000000012
-6.781829357147217,-1.3173160552978516,-6.831054210662842,1.6300000000000012
-7.694741249084473,-1.1382811069488525,-7.036182403564453,1.6400000000000012
-8.063759803771973,-1.2042810916900635,-7.47518253326416,1.6500000000000012
-8.429093360900879,-1.5043234825134277,-8.04323673248291,1.6600000000000013
-8.438130378723145,-2.1121768951416016,-8.480935096740723,1.6700000000000013
-8.15959358215332,-2.9341392517089844,-8.523048400878906,1.6800000000000013
-7.5725297927856445,-3.584182024002075,-8.124544143676758,1.6900000000000013
-6.759383201599121,-3.515995979309082,-7.118094444274902,1.7000000000000013
-6.180268287658691,-3.1423544883728027,-6.160950183868408,1.7100000000000013
-5.779409408569336,-2.6689910888671875,-4.98569917678833,1.7200000000000013
-5.308961391448975,-1.7846479415893555,-3.5253140926361084,1.7300000000000013
-4.124772071838379,0.15323114395141602,-0.8731036186218262,1.7400000000000013
-1.3333208560943604,3.6144490242004395,2.10447359085083,1.7500000000000013
4.590082168579102,16.643421173095703,-6.47743558883667,1.7600000000000013
16.754711151123047,22.471101760864258,20.063594818115234,1.7700000000000014
17.146648406982422,23.230506896972656,12.972200393676758,1.7800000000000014
19.023590087890625,21.695390701293945,3.5633792877197266,1.7900000000000014
21.020462036132812,16.505962371826172,-0.15222454071044922,1.8000000000000014
17.99317741394043,8.714065551757812,-3.532879114151001,1.8100000000000014
10.098603248596191,2.2563867568969727,-4.027719497680664,1.8200000000000014
4.199016571044922,-0.6690917015075684,-1.9991536140441895,1.8300000000000014
-2.455697774887085,-1.171217441558838,0.6552705764770508,1.8400000000000014
-8.528064727783203,0.9204058647155762,2.2146730422973633,1.8500000000000014
-10.009291648864746,5.738072872161865,-0.542813777923584,1.8600000000000014
-9.402494430541992,9.514970779418945,-6.439450740814209,1.8700000000000014
-7.287250995635986,12.051359176635742,-12.914005279541016,1.8800000000000014
-5.30221700668335,11.592562675476074,-15.244791030883789,1.8900000000000015
-3.345233678817749,6.956737995147705,-15.166153907775879,1.9000000000000015
-3.5909576416015625,2.5035877227783203,-12.719606399536133,1.9100000000000015
-3.9502453804016113,-0.23154926300048828,-11.1799898147583,1.9200000000000015
-3.9739818572998047,-2.4314534664154053,-9.948213577270508,1.9300000000000015
-3.9479117393493652,-4.6640625,-7.871285915374756,1.9400000000000015
-4.147197723388672,-5.744484901428223,-6.832587242126465,1.9500000000000015
-5.137149333953857,-5.852677345275879,-6.899167060852051,1.9600000000000015
-5.85212516784668,-4.552727699279785,-9.805256843566895,1.9700000000000015
-5.858449459075928,-4.763470649719238,-9.568071365356445,1.9800000000000015
-6.112283706665039,0.3544187545776367,-13.41472053527832,1.9900000000000015
-5.630870342254639,3.3454198837280273,-14.41489315032959,2.0000000000000013
-4.133114814758301,6.023330211639404,-10.909343719482422,2.010000000000001
-0.03757333755493164,9.302120208740234,4.073283672332764,2.020000000000001
1.8587942123413086,9.896641731262207,5.7999186515808105,2.0300000000000007
1.8318510055541992,9.823171615600586,5.939451694488525,2.0400000000000005
-1.8571739196777344,4.3773908615112305,-6.174007415771484,2.0500000000000003
-3.001117706298828,2.4792914390563965,-9.991666793823242,2.06
-2.9661026000976562,1.1797995567321777,-10.260169982910156,2.07
-2.3018698692321777,-0.31118249893188477,-8.815533638000488,2.0799999999999996
-1.5324530601501465,-1.6775422096252441,-6.1222076416015625,2.0899999999999994
-1.1105973720550537,-2.5275750160217285,-4.460079669952393,2.099999999999999
-1.2190163135528564,-2.56125545501709,-4.671786308288574,2.109999999999999
-1.8927607536315918,-1.8063898086547852,-6.019044876098633,2.1199999999999988
-2.279261589050293,-1.136091709136963,-6.083282470703125,2.1299999999999986
-2.5573320388793945,-0.06683921813964844,-4.782593727111816,2.1399999999999983
-1.68351149559021,0.5171451568603516,-3.5119214057922363,2.149999999999998
-0.45339202880859375,0.8057241439819336,-2.9672133922576904,2.159999999999998
0.5023865699768066,0.8815937042236328,-2.7274670600891113,2.1699999999999977
1.290783405303955,0.6868810653686523,-2.224994659423828,2.1799999999999975
1.3948101997375488,0.6222600936889648,-1.2983529567718506,2.1899999999999973
1.2010960578918457,0.45851612091064453,-0.8301980495452881,2.199999999999997
1.012070655822754,0.45644092559814453,-0.963331937789917,2.209999999999997
0.9907195568084717,0.6588468551635742,-1.6706045866012573,2.2199999999999966
1.2093498706817627,0.9090957641601562,-2.872368812561035,2.2299999999999964
1.559528112411499,0.9912662506103516,-3.333482265472412,2.239999999999996
2.041654109954834,0.7413272857666016,-3.237865924835205,2.249999999999996
2.4471654891967773,0.05502891540527344,-3.1499085426330566,2.259999999999996
1.9346835613250732,-0.6552743911743164,-2.7767810821533203,2.2699999999999956
0.9509322643280029,-0.7031593322753906,-2.266697645187378,2.2799999999999954
-0.06431412696838379,-0.022144317626953125,-1.8907949924468994,2.289999999999995
-0.4206521511077881,1.012995719909668,-1.835756540298462,2.299999999999995
0.16168808937072754,1.526742935180664,-2.6639676094055176,2.3099999999999947
1.2165656089782715,1.6532917022705078,-4.320021152496338,2.3199999999999945
1.688971757888794,1.3664093017578125,-5.704873085021973,2.3299999999999943
1.548713207244873,1.1499109268188477,-5.838027000427246,2.339999999999994
2.2762203216552734,1.6010217666625977,-3.8115224838256836,2.349999999999994
3.516599178314209,2.5244216918945312,-0.7522592544555664,2.3599999999999937
3.725857734680176,3.4857444763183594,-0.12081122398376465,2.3699999999999934
3.387599468231201,4.17611026763916,-0.9157863855361938,2.3799999999999932
2.9309780597686768,4.184317588806152,-1.4068331718444824,2.389999999999993
2.7000181674957275,3.6034164428710938,-1.586269497871399,2.399999999999993
2.6643009185791016,2.451101303100586,-2.5428531169891357,2.4099999999999926
2.435065746307373,1.2843589782714844,-2.8089375495910645,2.4199999999999924
1.7610414028167725,0.5183887481689453,-2.4116768836975098,2.429999999999992
0.9899177551269531,-0.2601509094238281,-2.547994613647461,2.439999999999992
0.29720258712768555,-1.0082073211669922,-3.1210548877716064,2.4499999999999917
-1.0159945487976074,-1.5533647537231445,-3.5907936096191406,2.4599999999999915
-2.6224143505096436,-1.376847743988037,-3.4996824264526367,2.4699999999999913
-4.052355766296387,-0.1629638671875,-2.8573033809661865,2.479999999999991
-4.200804710388184,0.013682365417480469,-3.15024471282959,2.489999999999991
-4.465149879455566,4.6219329833984375,-3.4678454399108887,2.4999999999999907
-3.3644843101501465,6.33339786529541,-5.251914978027344,2.5099999999999905
-2.587470054626465,8.294076919555664,-6.018229007720947,2.5199999999999902
-1.8114426136016846,10.657771110534668,-5.94416618347168,2.52999999999999
-0.3924121856689453,13.290559768676758,-5.313865661621094,2.53999999999999
1.1141672134399414,14.988170623779297,-3.9428844451904297,2.5499999999999896
2.513765811920166,14.612984657287598,-2.9672579765319824,2.5599999999999894
1.252669334411621,11.129754066467285,-3.4619734287261963,2.569999999999989
-0.8241152763366699,7.914468288421631,-4.113899230957031,2.579999999999989
-2.1725101470947266,5.277995586395264,-4.418939113616943,2.5899999999999888
-2.4928126335144043,3.085057258605957,-4.268932819366455,2.5999999999999885
-2.4594225883483887,1.6197423934936523,-4.774528503417969,2.6099999999999883
-2.3910892009735107,0.844573974609375,-5.640105247497559,2.619999999999988
-2.503412961959839,0.612419605255127,-6.635865211486816,2.629999999999988
-2.4071452617645264,0.6978058815002441,-6.812159538269043,2.6399999999999877
-2.5659031867980957,0.028051376342773438,-7.32552433013916,2.6499999999999875
-2.879760265350342,-0.863764762878418,-7.48944091796875,2.6599999999999873
-3.125182867050171,-1.5830705165863037,-7.936054706573486,2.669999999999987
-2.986210584640503,-1.5285708904266357,-8.088455200195312,2.679999999999987
-3.761984348297119,-2.8917737007141113,-7.913331508636475,2.6899999999999866
-4.321905136108398,-3.082376003265381,-7.532742977142334,2.6999999999999864
-5.165710926055908,-3.0220134258270264,-6.986403465270996,2.709999999999986
-6.190350532531738,-2.572863817214966,-6.494764804840088,2.719999999999986
-6.877142906188965,-2.208865165710449,-6.364560127258301,2.7299999999999858
-7.623545169830322,-1.9316139221191406,-6.450250625610352,2.7399999999999856
-8.103984832763672,-1.875685453414917,-6.768797874450684,2.7499999999999853
-8.268533706665039,-2.1552817821502686,-7.265621185302734,2.759999999999985
-8.138174057006836,-2.631291389465332,-7.830166339874268,2.769999999999985
-7.518038749694824,-3.1380481719970703,-7.977819442749023,2.7799999999999847
-6.707345008850098,-3.502018451690674,-7.821348190307617,2.7899999999999845
-5.905006408691406,-3.5773725509643555,-7.322427272796631,2.7999999999999843
-5.394908905029297,-3.0255208015441895,-6.340674877166748,2.809999999999984
-5.342869281768799,-2.286921501159668,-5.260298728942871,2.819999999999984
-5.497383117675781,-1.142686367034912,-3.972646713256836,2.8299999999999836
-4.919112205505371,1.060063362121582,-1.710306167602539,2.8399999999999834
-3.039551258087158,3.6954169273376465,0.7851395606994629,2.849999999999983
1.4669113159179688,9.049263954162598,2.795015335083008,2.859999999999983
12.562078475952148,22.253889083862305,8.442244529724121,2.869999999999983
16.720170974731445,21.925647735595703,14.224635124206543,2.8799999999999826
19.2086238861084,20.55607032775879,7.225265026092529,2.8899999999999824
20.586223602294922,15.71798324584961,1.8272428512573242,2.899999999999982
17.78135108947754,9.462440490722656,-0.8691940307617188,2.909999999999982
11.412160873413086,2.1884899139404297,-2.7733044624328613,2.9199999999999817
5.910493850708008,-1.998363971710205,-3.189145803451538,2.9299999999999815
1.349454402923584,-4.162362098693848,-2.655837059020996,2.9399999999999813
-3.5583276748657227,-3.8973379135131836,-0.1504673957824707,2.949999999999981
-8.387399673461914,-0.5102391242980957,2.391964912414551,2.959999999999981
-9.170567512512207,3.5319738388061523,-0.21631288528442383,2.9699999999999807
-7.970829486846924,7.213130950927734,-8.0590238571167,2.9799999999999804
-7.112881660461426,9.86497688293457,-13.609272003173828,2.9899999999999802
-6.767154216766357,10.832513809204102,-14.291635513305664,2.99999999999998
-5.825530529022217,9.991752624511719,-12.985363006591797,3.00999999999998
-4.387940406799316,6.4595818519592285,-11.256940841674805,3.0199999999999796
-3.7148404121398926,3.76027774810791,-8.082071304321289,3.0299999999999794
-3.121659278869629,1.1502528190612793,-5.6247453689575195,3.039999999999979
-3.6312294006347656,-0.005769252777099609,-6.476633071899414,3.049999999999979
-4.919325351715088,-0.16460514068603516,-8.655827522277832,3.0599999999999787
-5.448122978210449,-0.8013324737548828,-10.024123191833496,3.0699999999999785
-5.935652732849121,-1.5963129997253418,-11.133533477783203,3.0799999999999783
-6.36299467086792,-1.755591869354248,-11.842164993286133,3.089999999999978
-6.363736629486084,-1.9292001724243164,-11.592226028442383,3.099999999999978
-5.1792707443237305,0.6650791168212891,-9.148168563842773,3.1099999999999777
-2.4233739376068115,2.466259002685547,-2.6418533325195312,3.1199999999999775
-0.17087793350219727,3.791499614715576,1.3805651664733887,3.1299999999999772
0.44986581802368164,4.159610748291016,-0.7097060680389404,3.139999999999977
-0.12094640731811523,3.473336696624756,-4.488280773162842,3.149999999999977
-1.140927791595459,2.719010353088379,-6.958642959594727,3.1599999999999766
-1.7329785823822021,1.7309579849243164,-7.694235801696777,3.1699999999999764
-1.7253081798553467,1.668126106262207,-7.557338714599609,3.179999999999976
-1.6928024291992188,-0.41719770431518555,-6.193005561828613,3.189999999999976
-1.6402249336242676,-1.5804615020751953,-5.346148490905762,3.1999999999999758
-1.6451818943023682,-2.509160041809082,-5.470455169677734,3.2099999999999755
-1.7485566139221191,-2.854922294616699,-6.176634788513184,3.2199999999999753
-1.3561010360717773,-2.656956195831299,-6.4230499267578125,3.229999999999975
-0.5819268226623535,-1.4942059516906738,-5.112683296203613,3.239999999999975
-0.14493703842163086,0.47249889373779297,-3.494351863861084,3.2499999999999747
0.4786233901977539,1.9975833892822266,-1.9848953485488892,3.2599999999999745
0.9812488555908203,2.6524152755737305,-0.8444187641143799,3.2699999999999743
1.3922786712646484,2.5162534713745117,0.08295059204101562,3.279999999999974
1.2237706184387207,1.2403182983398438,0.21387743949890137,3.289999999999974
0.7758710384368896,0.11216068267822266,-0.5928815603256226,3.2999999999999736
0.3984391689300537,-0.6231088638305664,-1.6932287216186523,3.3099999999999734
0.10875344276428223,-0.7881879806518555,-2.7313480377197266,3.319999999999973
-0.06581711769104004,-0.5613155364990234,-3.2938179969787598,3.329999999999973
-0.12189698219299316,-0.11139678955078125,-3.524901866912842,3.3399999999999728
-0.32959508895874023,0.36324405670166016,-3.513949394226074,3.3499999999999726
-0.4937925338745117,0.6221523284912109,-2.8708953857421875,3.3599999999999723
-0.7795777320861816,0.48924922943115234,-1.738836407661438,3.369999999999972
-0.7967121601104736,0.070404052734375,-0.3904328942298889,3.379999999999972
-0.09240198135375977,-0.24380779266357422,-0.22867870330810547,3.3899999999999717
1.1006207466125488,-0.10263538360595703,-1.697450876235962,3.3999999999999715
2.0793981552124023,0.6408300399780273,-3.405827045440674,3.4099999999999713
2.2889652252197266,1.247694969177246,-4.213631629943848,3.419999999999971
1.943964958190918,1.4959402084350586,-3.7554874420166016,3.429999999999971
2.1365253925323486,1.3814992904663086,-3.509535312652588,3.4399999999999706
2.1656763553619385,1.2161760330200195,-3.8865184783935547,3.4499999999999704
2.826397657394409,1.3966217041015625,-2.8730897903442383,3.45999999999997
3.284090757369995,2.0882568359375,-1.2204573154449463,3.46999999999997
3.5733275413513184,3.110642433166504,-0.4638134837150574,3.47999999999997
3.8106439113616943,4.113797187805176,-0.35044896602630615,3.4899999999999696
3.3976645469665527,4.3709516525268555,-1.0470738410949707,3.4999999999999694
3.2990081310272217,3.864809036254883,-2.4761834144592285,3.509999999999969
3.4348304271698,2.811399459838867,-3.6201932430267334,3.519999999999969
3.0772993564605713,1.9420576095581055,-3.092785358428955,3.5299999999999687
2.328354597091675,1.0706586837768555,-1.92527174949646,3.5399999999999685
1.5478870868682861,0.03301048278808594,-1.3563305139541626,3.5499999999999683
0.6784999370574951,-1.3381247520446777,-1.2631151676177979,3.559999999999968
-0.6892805099487305,-1.9745721817016602,-1.4489433765411377,3.569999999999968
-2.5513477325439453,-1.4435973167419434,-1.8333799839019775,3.5799999999999677
-4.1307244300842285,-0.12159442901611328,-1.869710922241211,3.5899999999999674
-4.911889553070068,1.8943653106689453,-2.414846658706665,3.5999999999999672
-4.120258808135986,4.092928886413574,-4.595808982849121,3.609999999999967
-3.008256435394287,5.862634658813477,-6.615560531616211,3.619999999999967
-2.2106122970581055,7.906670570373535,-6.775773048400879,3.6299999999999666
-0.5772056579589844,10.717185974121094,-5.7077226638793945,3.6399999999999664
0.8920078277587891,13.898575782775879,-3.214817523956299,3.649999999999966
3.002742290496826,16.374744415283203,-1.3353381156921387,3.659999999999966
3.4341607093811035,16.00059700012207,-2.0055530071258545,3.6699999999999657
0.895897388458252,11.870916366577148,-4.588415622711182,3.6799999999999655
-0.8880319595336914,8.728641510009766,-5.456831932067871,3.6899999999999653
-1.9429757595062256,5.877944469451904,-5.0712690353393555,3.699999999999965
-2.289795398712158,3.648127555847168,-4.655772686004639,3.709999999999965
-2.329073429107666,2.0732054710388184,-4.813821315765381,3.7199999999999647
-2.420013904571533,1.0696702003479004,-5.526460647583008,3.7299999999999645
-2.565103769302368,0.3678092956542969,-6.073350429534912,3.7399999999999642
-2.721041440963745,-0.33586645126342773,-6.2763519287109375,3.749999999999964
-2.7390763759613037,-1.2405643463134766,-8.496264457702637,3.759999999999964
-3.653412342071533,-2.0179684162139893,-7.076318740844727,3.7699999999999636
-4.344347953796387,-2.6975364685058594,-7.762379169464111,3.7799999999999634
-4.865311622619629,-3.359947681427002,-7.94222354888916,3.789999999999963
-5.171140193939209,-3.8337554931640625,-7.835580825805664,3.799999999999963
-5.610360622406006,-4.279421329498291,-7.829812526702881,3.8099999999999627
-6.214077949523926,-4.4930548667907715,-7.673186779022217,3.8199999999999625
-6.9304656982421875,-4.52367639541626,-7.182222843170166,3.8299999999999623
-7.724545478820801,-4.136109828948975,-6.584770202636719,3.839999999999962
-8.165104866027832,-3.3810184001922607,-6.270969390869141,3.849999999999962
-8.293231964111328,-2.947559356689453,-6.332131862640381,3.8599999999999617
-8.158855438232422,-2.940552234649658,-6.636215686798096,3.8699999999999615
-7.850637435913086,-3.1009578704833984,-7.027803421020508,3.8799999999999613
-7.317960739135742,-3.429119348526001,-7.170407295227051,3.889999999999961
-6.803950309753418,-3.7659051418304443,-7.129522323608398,3.899999999999961
-6.447428226470947,-3.65919828414917,-6.717313766479492,3.9099999999999606
-6.176612854003906,-3.0221879482269287,-6.055476188659668,3.9199999999999604
-6.204305648803711,-2.3954885005950928,-5.222436904907227,3.92999999999996
-6.178868770599365,-0.7457213401794434,-3.494602918624878,3.93999999999996
-4.750875949859619,2.013577461242676,-0.5313434600830078,3.9499999999999598
-0.7031543254852295,6.62347412109375,3.9179134368896484,3.9599999999999596
5.883383274078369,20.969112396240234,-2.8688933849334717,3.9699999999999593
14.788589477539062,23.65385627746582,12.603961944580078,3.979999999999959
18.595022201538086,22.359575271606445,9.732842445373535,3.989999999999959
21.606225967407227,18.588415145874023,4.693274021148682,3.9999999999999587
