AccX,AccY,AccZ,SampleRate
2.4792110919952393,2.810622215270996,1.5842580795288086,0
2.5756771564483643,3.059328079223633,1.7385432720184326,0.01
2.73687744140625,3.1522388458251953,1.7911001443862915,0.02
2.9386374950408936,3.206727981567383,1.7136619091033936,0.03
3.0701687335968018,3.440413475036621,1.331148624420166,0.04
3.178574800491333,3.7095937728881836,0.9613228440284729,0.05
3.1674602031707764,3.964000701904297,0.6608942747116089,0.060000000000000005
3.273674488067627,4.143881797790527,0.5993554592132568,0.07
3.399487018585205,4.0030670166015625,0.7431081533432007,0.08
3.380772590637207,3.5371646881103516,0.7902934551239014,0.09
3.3905293941497803,3.026331901550293,0.6494045257568359,0.09999999999999999
3.3096017837524414,2.3463220596313477,0.34152454137802124,0.10999999999999999
3.1476545333862305,1.8536977767944336,-0.04760265350341797,0.11999999999999998
3.004974603652954,1.4455432891845703,-0.3697304427623749,0.12999999999999998
2.7763936519622803,0.9234399795532227,-0.7227296829223633,0.13999999999999999
2.366560935974121,0.5889663696289062,-0.9340227842330933,0.15
1.8858428001403809,0.1455545425415039,-1.1538960933685303,0.16
1.368004560470581,-0.2749977111816406,-1.3939660787582397,0.17
0.7821515202522278,-0.6510372161865234,-1.5582753419876099,0.18000000000000002
0.21940654516220093,-1.0733280181884766,-1.5581364631652832,0.19000000000000003
-0.22878730297088623,-1.3001775741577148,-1.561025619506836,0.20000000000000004
-0.5855733752250671,-1.5469074249267578,-1.6530669927597046,0.21000000000000005
-0.8761551380157471,-1.7511978149414062,-1.9661939144134521,0.22000000000000006
-1.1378703117370605,-1.8125228881835938,-2.270860195159912,0.23000000000000007
-1.4676496982574463,-1.9318246841430664,-2.43971848487854,0.24000000000000007
-1.92874014377594,-2.0851030349731445,-2.4335341453552246,0.25000000000000006
-2.4148402214050293,-2.1479721069335938,-2.273042917251587,0.26000000000000006
-2.930130958557129,-2.2448482513427734,-2.108447551727295,0.2700000000000001
-3.2644200325012207,-2.356508731842041,-1.7763664722442627,0.2800000000000001
-3.3930840492248535,-2.2845816612243652,-1.3010632991790771,0.2900000000000001
-3.19512939453125,-1.9675912857055664,-0.7357275485992432,0.3000000000000001
-2.727261781692505,-1.4209442138671875,-0.2191629409790039,0.3100000000000001
-2.052480697631836,-0.9422016143798828,0.16825568675994873,0.3200000000000001
-1.2846002578735352,-0.47200775146484375,0.1619168519973755,0.3300000000000001
-0.6839541792869568,-0.08693981170654297,-0.29926013946533203,0.34000000000000014
-0.2968672811985016,0.2539987564086914,-1.0264374017715454,0.35000000000000014
-0.1638665497303009,0.5536947250366211,-1.7502751350402832,0.36000000000000015
-0.26962679624557495,0.9804468154907227,-2.430539131164551,0.37000000000000016
-0.5293066501617432,1.4944801330566406,-2.8334579467773438,0.38000000000000017
-1.035548448562622,1.890859603881836,-2.8552968502044678,0.3900000000000002
-1.5369683504104614,2.306422233581543,-2.535979986190796,0.4000000000000002
-2.0669198036193848,2.5762462615966797,-2.0064401626586914,0.4100000000000002
-2.2939136028289795,2.666614532470703,-1.2877627611160278,0.4200000000000002
-1.980607032775879,2.4525718688964844,-0.5529012680053711,0.4300000000000002
-1.53385329246521,2.081732749938965,-0.12046504020690918,0.4400000000000002
-1.1003313064575195,2.015152931213379,-0.21482539176940918,0.45000000000000023
-0.8305338621139526,1.9633989334106445,-0.5970919132232666,0.46000000000000024
-0.7113044261932373,1.7189397811889648,-1.043799877166748,0.47000000000000025
-0.5543400049209595,1.2463312149047852,-1.1585867404937744,0.48000000000000026
-0.4124628007411957,0.8471193313598633,-1.334101676940918,0.49000000000000027
-0.47808295488357544,0.5521364212036133,-1.6009635925292969,0.5000000000000002
-0.5174878835678101,0.2104358673095703,-1.8582864999771118,0.5100000000000002
-0.6142346262931824,-0.2022247314453125,-1.9738578796386719,0.5200000000000002
-0.8300298452377319,-0.6048164367675781,-1.968805193901062,0.5300000000000002
-1.1334714889526367,-1.227339744567871,-1.8592791557312012,0.5400000000000003
-1.3752223253250122,-1.7927188873291016,-1.6421055793762207,0.5500000000000003
-1.5112051963806152,-2.363616943359375,-1.6492891311645508,0.5600000000000003
-1.6485114097595215,-2.918743133544922,-1.6891465187072754,0.5700000000000003
-1.683650255203247,-3.362368106842041,-1.8507037162780762,0.5800000000000003
-1.5441752672195435,-3.8259267807006836,-2.0365657806396484,0.5900000000000003
-1.3682987689971924,-4.127627849578857,-2.098804235458374,0.6000000000000003
-1.1984825134277344,-4.480383396148682,-2.1910417079925537,0.6100000000000003
-1.0322123765945435,-4.750292778015137,-2.160243272781372,0.6200000000000003
-0.7759190797805786,-4.901636123657227,-2.0616416931152344,0.6300000000000003
-0.6328117847442627,-4.917866230010986,-1.9503746032714844,0.6400000000000003
-0.6145569086074829,-4.873218536376953,-1.8864762783050537,0.6500000000000004
-0.7618218660354614,-4.505151271820068,-1.6898915767669678,0.6600000000000004
-0.720780611038208,-4.066013813018799,-1.4094741344451904,0.6700000000000004
-0.7501726746559143,-3.779053211212158,-1.3835668563842773,0.6800000000000004
-0.7834879159927368,-3.678096294403076,-1.453174114227295,0.6900000000000004
-0.7691972255706787,-3.715217113494873,-1.558239459991455,0.7000000000000004
-0.7894248366355896,-4.095843315124512,-1.7227516174316406,0.7100000000000004
-0.7445456981658936,-4.262386322021484,-1.6932456493377686,0.7200000000000004
-0.6689491271972656,-4.38488245010376,-1.5894951820373535,0.7300000000000004
-0.646859347820282,-4.551797866821289,-1.4475197792053223,0.7400000000000004
-0.5491519570350647,-4.700806617736816,-1.336822509765625,0.7500000000000004
-0.5719038248062134,-4.7529449462890625,-1.2119638919830322,0.7600000000000005
-0.5545614957809448,-4.832558631896973,-1.037153959274292,0.7700000000000005
-0.5806781053543091,-4.8725175857543945,-0.7886180877685547,0.7800000000000005
-0.5447300672531128,-4.874987602233887,-0.5073809623718262,0.7900000000000005
-0.49690115451812744,-4.9425368309021,-0.1770486831665039,0.8000000000000005
-0.45620495080947876,-4.907322883605957,0.14447259902954102,0.8100000000000005
-0.46078574657440186,-4.7881317138671875,0.4302654266357422,0.8200000000000005
-0.374054878950119,-4.543885707855225,0.7154445648193359,0.8300000000000005
-0.3491742014884949,-4.229078769683838,0.9176344871520996,0.8400000000000005
-0.33101075887680054,-3.790339946746826,1.090353012084961,0.8500000000000005
-0.30206382274627686,-3.219733715057373,1.286719799041748,0.8600000000000005
-0.3168715834617615,-2.5310888290405273,1.6031804084777832,0.8700000000000006
-0.044735491275787354,-1.735948085784912,2.0668275356292725,0.8800000000000006
0.31901663541793823,-1.0584845542907715,2.3359265327453613,0.8900000000000006
0.8230501413345337,-0.21548175811767578,2.388991594314575,0.9000000000000006
1.34102201461792,0.8394460678100586,2.031733274459839,0.9100000000000006
1.9144055843353271,2.1884727478027344,1.3689234256744385,0.9200000000000006
2.3205530643463135,3.63131046295166,0.5799953937530518,0.9300000000000006
2.465362071990967,5.3835906982421875,0.206465482711792,0.9400000000000006
1.7245391607284546,7.069273948669434,0.7701370716094971,0.9500000000000006
0.6674515008926392,7.843156814575195,2.407475471496582,0.9600000000000006
0.06760412454605103,7.831337928771973,4.531380653381348,0.9700000000000006
-0.4993289113044739,7.74796199798584,6.450088024139404,0.9800000000000006
-1.0411171913146973,7.835583686828613,7.724704742431641,0.9900000000000007
-1.3840627670288086,7.435324668884277,8.37944507598877,1.0000000000000007
-1.330289602279663,6.015954971313477,8.50967788696289,1.0100000000000007
-0.7989023327827454,3.496321678161621,8.674970626831055,1.0200000000000007
-0.33917754888534546,0.36756420135498047,7.935962677001953,1.0300000000000007
0.10251742601394653,-2.790806770324707,6.529865741729736,1.0400000000000007
0.3154142498970032,-4.59660530090332,4.945028781890869,1.0500000000000007
0.864345371723175,-5.766097068786621,2.9249215126037598,1.0600000000000007
1.0390878915786743,-6.242155075073242,0.9523477554321289,1.0700000000000007
0.4884369373321533,-4.9281415939331055,-0.22818565368652344,1.0800000000000007
0.14062470197677612,-2.464231014251709,-1.6726784706115723,1.0900000000000007
-0.26545676589012146,0.05661487579345703,-3.50282621383667,1.1000000000000008
-0.5016971230506897,2.701714515686035,-4.7791008949279785,1.1100000000000008
-0.4951443374156952,5.508017539978027,-5.3726325035095215,1.1200000000000008
-0.8336137533187866,7.985132217407227,-5.7096357345581055,1.1300000000000008
-1.765669822692871,9.897794723510742,-5.9889068603515625,1.1400000000000008
-3.290196180343628,10.614079475402832,-5.6631622314453125,1.1500000000000008
-4.890328407287598,10.450010299682617,-4.941833972930908,1.1600000000000008
-6.227007865905762,9.47400951385498,-4.316229820251465,1.1700000000000008
-7.005733013153076,8.16091251373291,-3.5472612380981445,1.1800000000000008
-6.801714897155762,7.484745025634766,-2.826941728591919,1.1900000000000008
-6.3683857917785645,8.422118186950684,-2.439335346221924,1.2000000000000008
-6.26416015625,10.598685264587402,-2.19083309173584,1.2100000000000009
-6.322582721710205,13.182589530944824,-1.4978575706481934,1.2200000000000009
-4.487316608428955,13.284852027893066,0.20792603492736816,1.2300000000000009
-2.4513463973999023,10.512243270874023,1.3641464710235596,1.2400000000000009
-1.2679131031036377,6.185784339904785,1.7377209663391113,1.2500000000000009
-0.015515267848968506,2.679673194885254,1.123730182647705,1.260000000000001
0.5664049983024597,-0.5187778472900391,-1.0808634757995605,1.270000000000001
-0.31515082716941833,-3.12156343460083,-3.6630592346191406,1.280000000000001
-1.6811010837554932,-4.7449564933776855,-5.891342639923096,1.290000000000001
-2.9168386459350586,-5.3492231369018555,-7.4171977043151855,1.300000000000001
-3.3032724857330322,-4.837833404541016,-7.979780673980713,1.310000000000001
-3.209799289703369,-4.176652431488037,-7.902805328369141,1.320000000000001
-2.9409546852111816,-3.7524523735046387,-7.394875526428223,1.330000000000001
-2.5668067932128906,-3.5410943031311035,-6.1426873207092285,1.340000000000001
-2.0005369186401367,-3.4492669105529785,-5.209857940673828,1.350000000000001
-1.3648591041564941,-3.3598413467407227,-4.637331962585449,1.360000000000001
-0.854000449180603,-3.29227352142334,-4.161970138549805,1.370000000000001
0.08386969566345215,-2.9865002632141113,-3.594866991043091,1.380000000000001
0.9493021965026855,-2.227969169616699,-3.1403698921203613,1.390000000000001
1.723204493522644,-1.2970285415649414,-2.8482542037963867,1.400000000000001
1.991257905960083,-0.24395084381103516,-2.6202030181884766,1.410000000000001
1.8557229042053223,0.7064361572265625,-2.4604380130767822,1.420000000000001
1.6277101039886475,1.5063791275024414,-2.267652750015259,1.430000000000001
1.2338556051254272,2.010181427001953,-2.1727280616760254,1.440000000000001
1.0247066020965576,2.115532875061035,-2.158686637878418,1.450000000000001
1.0498977899551392,1.8831377029418945,-2.18342924118042,1.460000000000001
1.41221284866333,1.3020868301391602,-2.1868486404418945,1.470000000000001
1.5228073596954346,0.6700067520141602,-2.1357600688934326,1.480000000000001
1.6178828477859497,0.008993148803710938,-2.1042909622192383,1.490000000000001
1.6201450824737549,-0.5802087783813477,-2.05615234375,1.500000000000001
1.533521294593811,-1.1023931503295898,-2.021592140197754,1.5100000000000011
1.3856532573699951,-1.5601472854614258,-1.9848638772964478,1.5200000000000011
1.1318135261535645,-1.9249210357666016,-1.8728493452072144,1.5300000000000011
0.9204424619674683,-2.3451366424560547,-1.6864233016967773,1.5400000000000011
0.7779442071914673,-2.6511926651000977,-1.4496220350265503,1.5500000000000012
0.6227755546569824,-2.817157745361328,-1.2650506496429443,1.5600000000000012
0.4254443645477295,-2.843423843383789,-1.1317955255508423,1.5700000000000012
0.15440750122070312,-2.936155319213867,-1.1008648872375488,1.5800000000000012
-0.18157553672790527,-2.8419976234436035,-1.321552038192749,1.5900000000000012
-0.48326951265335083,-2.599555015563965,-1.4550755023956299,1.6000000000000012
-0.6680818796157837,-2.419419765472412,-1.6084749698638916,1.6100000000000012
-0.7345101237297058,-2.165220260620117,-1.6520859003067017,1.6200000000000012
-0.7788110971450806,-1.944749355316162,-1.5349140167236328,1.6300000000000012
-0.7872881889343262,-1.822495460510254,-1.52457857131958,1.6400000000000012
-0.6295236945152283,-1.5184831619262695,-1.505757451057434,1.6500000000000012
-0.35898327827453613,-1.06402587890625,-1.372572422027588,1.6600000000000013
0.0429917573928833,-0.7101573944091797,-1.1954340934753418,1.6700000000000013
0.34468531608581543,-0.19843387603759766,-0.9082247614860535,1.6800000000000013
0.3415795564651489,-0.14841461181640625,-0.5067959427833557,1.6900000000000013
0.09884333610534668,-0.2892484664916992,-0.21688532829284668,1.7000000000000013
0.1913304328918457,-0.3815784454345703,0.008577585220336914,1.7100000000000013
0.293781042098999,-0.46135711669921875,0.15009939670562744,1.7200000000000013
0.34124958515167236,-0.5645008087158203,0.35167741775512695,1.7300000000000013
0.477283239364624,-0.6887416839599609,0.5472731590270996,1.7400000000000013
0.6612668037414551,-0.8079080581665039,0.7355400323867798,1.7500000000000013
0.8430898189544678,-0.888606071472168,0.7495646476745605,1.7600000000000013
1.0063852071762085,-1.0600223541259766,0.5176007747650146,1.7700000000000014
1.0941413640975952,-1.1523113250732422,0.32442569732666016,1.7800000000000014
1.0706993341445923,-1.2229986190795898,0.17986273765563965,1.7900000000000014
1.0775665044784546,-1.274627685546875,0.13741326332092285,1.8000000000000014
1.1508429050445557,-1.4363861083984375,-0.01788616180419922,1.8100000000000014
1.2191197872161865,-1.4307432174682617,-0.3390670120716095,1.8200000000000014
1.2464324235916138,-1.5615272521972656,-0.5175909996032715,1.8300000000000014
1.249622106552124,-1.6731414794921875,-0.5414756536483765,1.8400000000000014
1.1616472005844116,-1.763157844543457,-0.5593514442443848,1.8500000000000014
0.9821728467941284,-1.6832380294799805,-0.629054605960846,1.8600000000000014
0.8904459476470947,-1.4909143447875977,-0.7053951025009155,1.8700000000000014
0.6347478628158569,-1.2268810272216797,-0.6092099547386169,1.8800000000000014
0.40337109565734863,-0.8504600524902344,-0.5201842784881592,1.8900000000000015
0.1958838701248169,-0.46932506561279297,-0.5151553153991699,1.9000000000000015
0.02641928195953369,-0.10975837707519531,-0.38385534286499023,1.9100000000000015
-0.19386351108551025,0.13265514373779297,-0.1769019067287445,1.9200000000000015
-0.4340125322341919,0.17438983917236328,-0.06690312922000885,1.9300000000000015
-0.5886848568916321,0.14239120483398438,0.027317151427268982,1.9400000000000015
-0.6697296500205994,-0.049370765686035156,0.04818706214427948,1.9500000000000015
-0.6505046486854553,-0.27883148193359375,0.0030704885721206665,1.9600000000000015
-0.6385858058929443,-0.5459804534912109,-0.07674041390419006,1.9700000000000015
-0.524053692817688,-0.6738395690917969,-0.2032639980316162,1.9800000000000015
-0.3403252959251404,-0.6434946060180664,-0.34546157717704773,1.9900000000000015
-0.048921167850494385,-0.5245351791381836,-0.37165388464927673,2.0000000000000013
0.15166974067687988,-0.3840484619140625,-0.3631260097026825,2.010000000000001
0.2856719493865967,-0.22927188873291016,-0.346279114484787,2.020000000000001
0.3701908588409424,-0.010044097900390625,-0.27077698707580566,2.0300000000000007
0.3099414110183716,0.2806882858276367,-0.20591053366661072,2.0400000000000005
0.25618624687194824,0.5638856887817383,0.006289958953857422,2.0500000000000003
0.24970954656600952,0.8515024185180664,0.17910906672477722,2.06
0.27369368076324463,1.2678632736206055,0.31477606296539307,2.07
0.23008382320404053,1.583251953125,0.49680742621421814,2.0799999999999996
0.29569172859191895,1.6926088333129883,0.7228559851646423,2.0899999999999994
0.3743399977684021,1.7731599807739258,0.7368277311325073,2.099999999999999
0.5659031867980957,1.741297721862793,0.8356443643569946,2.109999999999999
0.7716901302337646,1.6761064529418945,0.8734067678451538,2.1199999999999988
1.0438451766967773,1.6015625,0.8430080413818359,2.1299999999999986
1.3386828899383545,1.5798711776733398,0.8281842470169067,2.1399999999999983
1.708456039428711,1.6396751403808594,0.8912758827209473,2.149999999999998
1.9735796451568604,1.6732635498046875,0.9150090217590332,2.159999999999998
2.2848191261291504,1.7523841857910156,0.9998565316200256,2.1699999999999977
2.4675166606903076,1.8817272186279297,0.9541699886322021,2.1799999999999975
2.6654348373413086,1.9822778701782227,0.9164869785308838,2.1899999999999973
2.7687690258026123,2.082733154296875,1.0015649795532227,2.199999999999997
2.7921290397644043,2.1639347076416016,1.1517937183380127,2.209999999999997
2.743008852005005,2.2832536697387695,1.2927659749984741,2.2199999999999966
2.664473533630371,2.297144889831543,1.5318166017532349,2.2299999999999964
2.518490791320801,2.2798051834106445,1.7224860191345215,2.239999999999996
2.5065431594848633,2.2192583084106445,1.9816645383834839,2.249999999999996
2.3917548656463623,2.04617977142334,2.158299446105957,2.259999999999996
2.3130640983581543,1.7917604446411133,2.3358395099639893,2.2699999999999956
2.2132534980773926,1.5565071105957031,2.5164794921875,2.2799999999999954
2.2191576957702637,1.2710351943969727,2.676037311553955,2.289999999999995
2.1320900917053223,1.021510124206543,2.7906742095947266,2.299999999999995
1.9782681465148926,0.86529541015625,2.8436410427093506,2.3099999999999947
2.0350141525268555,0.9146718978881836,2.736772298812866,2.3199999999999945
2.048083782196045,0.9303092956542969,2.592071533203125,2.3299999999999943
2.081282615661621,0.9625101089477539,2.299356460571289,2.339999999999994
2.1532459259033203,1.0615034103393555,1.9684677124023438,2.349999999999994
2.2059178352355957,1.3778839111328125,1.5343633890151978,2.3599999999999937
2.238882064819336,1.9688186645507812,1.1546087265014648,2.3699999999999934
2.1851541996002197,2.7145004272460938,0.8938905000686646,2.3799999999999932
2.090089797973633,3.538315773010254,0.5776785612106323,2.389999999999993
2.090355634689331,3.768360137939453,0.28531181812286377,2.399999999999993
2.1718063354492188,3.5369701385498047,-0.26555654406547546,2.4099999999999926
2.205167055130005,3.1413145065307617,-1.1566625833511353,2.4199999999999924
2.1306567192077637,2.619983673095703,-2.120645046234131,2.429999999999992
1.8688874244689941,2.430020332336426,-2.9236433506011963,2.439999999999992
1.6043529510498047,2.1623239517211914,-3.230647325515747,2.4499999999999917
1.342315435409546,2.0180282592773438,-3.2069199085235596,2.4599999999999915
1.0473461151123047,2.030642509460449,-2.9768266677856445,2.4699999999999913
0.7945040464401245,2.121218681335449,-2.654775619506836,2.479999999999991
0.67381352186203,2.1104001998901367,-2.3687617778778076,2.489999999999991
0.4503428041934967,2.062838554382324,-2.224698305130005,2.4999999999999907
0.07785201072692871,2.031050682067871,-2.179636240005493,2.5099999999999905
-0.24845343828201294,1.818711280822754,-2.1692137718200684,2.5199999999999902
-0.5399304032325745,1.452169418334961,-2.31919002532959,2.52999999999999
-0.8946537971496582,0.9817132949829102,-2.521411418914795,2.53999999999999
-1.2486398220062256,0.5173254013061523,-2.461869239807129,2.5499999999999896
-1.5455533266067505,0.2261791229248047,-2.142099380493164,2.5599999999999894
-1.7820497751235962,0.12213611602783203,-1.5991859436035156,2.569999999999989
-1.8452050685882568,-0.022317886352539062,-0.9526718854904175,2.579999999999989
-1.7962149381637573,-0.11612701416015625,-0.32386505603790283,2.5899999999999888
-1.7094537019729614,-0.28563499450683594,0.07593488693237305,2.5999999999999885
-1.6039471626281738,-0.47041797637939453,0.27005720138549805,2.6099999999999883
-1.582880973815918,-0.5552787780761719,0.4076719284057617,2.619999999999988
-1.4936635494232178,-0.5784778594970703,0.49610018730163574,2.629999999999988
-1.5157675743103027,-0.5473575592041016,0.512488603591919,2.6399999999999877
-1.746702790260315,-0.5077114105224609,0.3940091133117676,2.6499999999999875
-2.053654432296753,-0.48625755310058594,0.24536705017089844,2.6599999999999873
-2.483078718185425,-0.5478277206420898,-0.12610530853271484,2.669999999999987
-2.6022751331329346,-0.5274972915649414,-0.5956010818481445,2.679999999999987
-2.9099395275115967,-0.4445838928222656,-1.2083989381790161,2.6899999999999866
-2.980041742324829,-0.3948936462402344,-1.8134785890579224,2.6999999999999864
-2.7926127910614014,-0.4643993377685547,-2.5234479904174805,2.709999999999986
-2.493317127227783,-0.7028884887695312,-3.1166841983795166,2.719999999999986
-1.9932409524917603,-0.9471302032470703,-3.482279062271118,2.7299999999999858
-1.466586709022522,-1.3042936325073242,-3.530883312225342,2.7399999999999856
-1.1110148429870605,-1.6761341094970703,-3.2055511474609375,2.7499999999999853
-0.9370395541191101,-2.024646759033203,-2.6086559295654297,2.759999999999985
-0.765740156173706,-2.3359546661376953,-1.9281589984893799,2.769999999999985
-0.4655967652797699,-2.641663074493408,-1.3446683883666992,2.7799999999999847
-0.44834011793136597,-2.6719212532043457,-1.0127601623535156,2.7899999999999845
-0.4556373357772827,-2.7525181770324707,-0.9962449073791504,2.7999999999999843
-0.441377729177475,-2.847851276397705,-1.0598139762878418,2.809999999999984
-0.5243721008300781,-2.8769006729125977,-1.308091640472412,2.819999999999984
-0.7133117914199829,-2.9762325286865234,-1.621109962463379,2.8299999999999836
-0.9760609269142151,-2.9976181983947754,-1.8935877084732056,2.8399999999999834
-1.1325700283050537,-3.1540417671203613,-2.1399850845336914,2.849999999999983
-1.33530592918396,-3.366560935974121,-2.2096266746520996,2.859999999999983
-1.2583372592926025,-3.489595413208008,-2.214556932449341,2.869999999999983
-1.1713917255401611,-3.532888889312744,-2.238643169403076,2.8799999999999826
-1.153140664100647,-3.603999137878418,-2.258471965789795,2.8899999999999824
-1.2420012950897217,-3.616600513458252,-2.2651095390319824,2.899999999999982
-1.1509630680084229,-3.6042532920837402,-2.1319527626037598,2.909999999999982
-1.0501608848571777,-3.7059478759765625,-1.9400174617767334,2.9199999999999817
-0.8391765356063843,-3.907400608062744,-1.6866848468780518,2.9299999999999815
-0.7861243486404419,-4.079429626464844,-1.4389712810516357,2.9399999999999813
-0.713853657245636,-4.217278480529785,-1.3476331233978271,2.949999999999981
-0.6771273612976074,-4.232568264007568,-1.321608543395996,2.959999999999981
-0.6160765886306763,-4.261867523193359,-1.3367400169372559,2.9699999999999807
-0.6287034749984741,-4.264533996582031,-1.3403899669647217,2.9799999999999804
-0.5882939696311951,-4.1378655433654785,-1.3491933345794678,2.9899999999999802
-0.6336507201194763,-3.9682064056396484,-1.2960205078125,2.99999999999998
-0.5951212048530579,-3.7939453125,-1.2716641426086426,3.00999999999998
-0.7121437191963196,-3.6223201751708984,-1.1946616172790527,3.0199999999999796
-0.7647920846939087,-3.4056596755981445,-1.1053872108459473,3.0299999999999794
-0.7795276641845703,-3.1728076934814453,-0.9605712890625,3.039999999999979
-0.7992273569107056,-3.0313668251037598,-0.8845882415771484,3.049999999999979
-0.7734763622283936,-2.9405059814453125,-0.8080520629882812,3.0599999999999787
-0.7907648086547852,-2.892951488494873,-0.7237429618835449,3.0699999999999785
-0.7482256889343262,-2.869379997253418,-0.691586971282959,3.0799999999999783
-0.6867179870605469,-2.907897472381592,-0.654207706451416,3.089999999999978
-0.6638645529747009,-2.9149279594421387,-0.5927972793579102,3.099999999999978
-0.6749123930931091,-2.828000068664551,-0.519869327545166,3.1099999999999777
-0.7531414031982422,-2.6468348503112793,-0.38590550422668457,3.1199999999999775
-0.7381425499916077,-2.366360664367676,-0.09846806526184082,3.1299999999999772
-0.7398647665977478,-2.0485105514526367,0.3056943416595459,3.139999999999977
-0.6577304601669312,-1.6832466125488281,0.6412181854248047,3.149999999999977
-0.594780683517456,-1.277177333831787,0.8661112785339355,3.1599999999999766
-0.4050753712654114,-0.7627172470092773,1.0912067890167236,3.1699999999999764
-0.18898719549179077,-0.20862197875976562,1.3002276420593262,3.179999999999976
0.15900656580924988,0.42635536193847656,1.5630533695220947,3.189999999999976
0.6773878335952759,1.1212959289550781,1.7842488288879395,3.1999999999999758
1.16527259349823,1.7528810501098633,1.5996463298797607,3.2099999999999755
1.7230303287506104,2.4659156799316406,1.042017936706543,3.2199999999999753
1.9889671802520752,3.2349929809570312,0.63509202003479,3.229999999999975
1.6531522274017334,4.167856216430664,0.9091165065765381,3.239999999999975
1.1717098951339722,4.452906608581543,2.12395977973938,3.2499999999999747
0.7041583061218262,4.166200637817383,3.8805153369903564,3.2599999999999745
-0.062125563621520996,4.182331085205078,5.679836750030518,3.2699999999999743
-0.9353495836257935,4.339184761047363,7.3777971267700195,3.279999999999974
-1.5810391902923584,4.563115119934082,8.787450790405273,3.289999999999974
-1.9704992771148682,4.833147048950195,9.429986000061035,3.2999999999999736
-1.9084762334823608,4.401798248291016,9.38087272644043,3.3099999999999734
-1.669053554534912,3.377218246459961,8.526434898376465,3.319999999999973
-1.404736042022705,1.3999090194702148,7.202571868896484,3.329999999999973
-0.8987168073654175,-0.07130908966064453,5.372763156890869,3.3399999999999728
-0.7763532400131226,-0.8054189682006836,2.7696971893310547,3.3499999999999726
-0.7940713763237,-0.2991657257080078,-0.34723377227783203,3.3599999999999723
-1.5294392108917236,2.183074951171875,-1.7980914115905762,3.369999999999972
-2.257591724395752,5.72464656829834,-1.4797320365905762,3.379999999999972
-2.0143234729766846,9.225677490234375,-1.2729334831237793,3.3899999999999717
-1.6694034337997437,12.273935317993164,-2.4107303619384766,3.3999999999999715
-2.150623321533203,14.61388874053955,-3.6590561866760254,3.4099999999999713
-3.1377575397491455,14.827754020690918,-4.495613098144531,3.419999999999971
-3.6792073249816895,12.511286735534668,-4.653581142425537,3.429999999999971
-4.550604343414307,8.898353576660156,-4.621027946472168,3.4399999999999706
-5.354985237121582,5.481562614440918,-4.331462383270264,3.4499999999999704
-5.844674110412598,3.4180641174316406,-3.4288103580474854,3.45999999999997
-5.726547718048096,2.9377098083496094,-2.1614673137664795,3.46999999999997
-5.074174880981445,3.5763235092163086,-1.2506721019744873,3.47999999999997
-4.06408166885376,4.235673904418945,-0.6163411140441895,3.4899999999999696
-2.7626216411590576,3.809046745300293,0.1645221710205078,3.4999999999999694
-1.3600306510925293,2.345132827758789,0.5531187057495117,3.509999999999969
-0.36039215326309204,0.4140911102294922,0.26912927627563477,3.519999999999969
0.2101561427116394,-1.160414695739746,-0.9527668952941895,3.5299999999999687
-0.08659034967422485,-2.1390881538391113,-2.521878242492676,3.5399999999999685
-0.20147496461868286,-2.273527145385742,-3.903067111968994,3.5499999999999683
-0.257850706577301,-2.1058216094970703,-4.696545600891113,3.559999999999968
-0.21930408477783203,-1.7781157493591309,-5.043594837188721,3.569999999999968
-0.3921585977077484,-1.270218849182129,-5.053150177001953,3.5799999999999677
-0.21610379219055176,-0.7344074249267578,-4.998275279998779,3.5899999999999674
-0.04969918727874756,-0.3278999328613281,-4.861231803894043,3.5999999999999672
0.40096914768218994,-2.55584716796875E-4,-4.543929100036621,3.609999999999967
0.7141794562339783,0.07375907897949219,-4.203190803527832,3.619999999999967
1.1539226770401,0.03980827331542969,-3.9427273273468018,3.6299999999999666
1.3362829685211182,-0.1381397247314453,-3.9215846061706543,3.6399999999999664
1.2314845323562622,-0.33081626892089844,-3.9954957962036133,3.649999999999966
0.9560882449150085,-0.4879570007324219,-4.042068004608154,3.659999999999966
0.7040949463844299,-0.41113853454589844,-3.9439759254455566,3.6699999999999657
0.3333240747451782,-0.15789318084716797,-3.756840229034424,3.6799999999999655
0.041247010231018066,0.25496387481689453,-3.495617628097534,3.6899999999999653
-0.18108385801315308,0.6145124435424805,-3.1702089309692383,3.699999999999965
-0.3744771480560303,0.7845067977905273,-2.718308925628662,3.709999999999965
-0.3745243549346924,0.6073055267333984,-2.2303922176361084,3.7199999999999647
-0.3279959559440613,0.27222347259521484,-1.763399600982666,3.7299999999999645
-0.16090065240859985,-0.23717212677001953,-1.3483827114105225,3.7399999999999642
-0.013864994049072266,-0.7505674362182617,-1.1368603706359863,3.749999999999964
0.13748228549957275,-1.1837348937988281,-1.1279222965240479,3.759999999999964
0.234167218208313,-1.505143165588379,-1.2565183639526367,3.7699999999999636
0.2820190191268921,-1.750481128692627,-1.3663930892944336,3.7799999999999634
0.3079293966293335,-1.8886198997497559,-1.4395612478256226,3.789999999999963
0.31243228912353516,-1.9436407089233398,-1.5507874488830566,3.799999999999963
0.21453988552093506,-1.9302558898925781,-1.4198919534683228,3.8099999999999627
-0.13622832298278809,-1.8487448692321777,-1.462923288345337,3.8199999999999625
-0.43116921186447144,-1.7878780364990234,-1.5428777933120728,3.8299999999999623
-0.7060422897338867,-1.798039436340332,-1.580397129058838,3.839999999999962
-0.83149653673172,-1.89125394821167,-1.5776766538619995,3.849999999999962
-1.0685797929763794,-1.9384231567382812,-1.5964998006820679,3.8599999999999617
-1.1808433532714844,-2.0138397216796875,-1.6267173290252686,3.8699999999999615
-1.1712348461151123,-2.0983729362487793,-1.703935146331787,3.8799999999999613
-1.1692194938659668,-2.237553596496582,-1.7199512720108032,3.889999999999961
-1.1369972229003906,-2.225728988647461,-1.605006456375122,3.899999999999961
-1.0199437141418457,-2.2041616439819336,-1.540822148323059,3.9099999999999606
-0.7299843430519104,-2.065305709838867,-1.3213235139846802,3.9199999999999604
-0.5620068907737732,-1.9073047637939453,-1.1808435916900635,3.92999999999996
-0.1720936894416809,-1.7707886695861816,-1.1645727157592773,3.93999999999996
0.1207876205444336,-1.6556835174560547,-1.0880162715911865,3.9499999999999598
0.4619392156600952,-1.4352035522460938,-1.0226457118988037,3.9599999999999596
0.7768839597702026,-1.1907854080200195,-0.9394252896308899,3.9699999999999593
1.0418245792388916,-1.0133590698242188,-0.8308990001678467,3.979999999999959
1.271285891532898,-0.8215160369873047,-0.788077712059021,3.989999999999959
1.453705072402954,-0.6750564575195312,-0.825322151184082,3.9999999999999587
1.589544415473938,-0.6600131988525391,-0.9737418293952942,4.009999999999959
1.7892104387283325,-0.764286994934082,-1.0012460947036743,4.019999999999959
1.878185510635376,-0.9064035415649414,-0.9535741806030273,4.0299999999999585
1.883209466934204,-0.8663301467895508,-0.914708137512207,4.039999999999958
1.7597501277923584,-1.0388612747192383,-0.9807292819023132,4.049999999999958
1.522596001625061,-1.3567447662353516,-1.154508113861084,4.059999999999958
1.3827028274536133,-1.5950632095336914,-1.2616422176361084,4.069999999999958
1.2301230430603027,-1.6535072326660156,-1.280822992324829,4.079999999999957
1.0313234329223633,-1.5657825469970703,-1.1691209077835083,4.089999999999957
0.8339376449584961,-1.3464012145996094,-1.094049334526062,4.099999999999957
0.6617389917373657,-1.1007652282714844,-0.8661921620368958,4.109999999999957
0.4669663906097412,-0.8217840194702148,-0.5593529939651489,4.119999999999957
0.3262089490890503,-0.5238418579101562,-0.3578300476074219,4.129999999999956
0.1534672975540161,-0.19017982482910156,-0.1763995885848999,4.139999999999956
0.05167710781097412,0.11464118957519531,0.057755082845687866,4.149999999999956
0.07069766521453857,0.2257061004638672,0.34131956100463867,4.159999999999956
0.025769591331481934,0.11937618255615234,0.5567559003829956,4.1699999999999555
0.021984219551086426,-0.046298980712890625,0.721114456653595,4.179999999999955
-0.03856790065765381,-0.19480419158935547,0.7296214699745178,4.189999999999955
-0.1413654088973999,-0.3333892822265625,0.7122002840042114,4.199999999999955
-0.23352092504501343,-0.4143075942993164,0.6096279621124268,4.209999999999955
-0.30298078060150146,-0.5237464904785156,0.4870840311050415,4.2199999999999545
-0.30403774976730347,-0.6043310165405273,0.38338059186935425,4.229999999999954
-0.30830132961273193,-0.6250381469726562,0.2821580767631531,4.239999999999954
-0.239138662815094,-0.6576786041259766,0.2794291079044342,4.249999999999954
-0.24520576000213623,-0.5969886779785156,0.15975816547870636,4.259999999999954
-0.1112133264541626,-0.6080532073974609,0.10711534321308136,4.269999999999953
0.033448100090026855,-0.5712108612060547,0.23402248322963715,4.279999999999953
0.15026873350143433,-0.4817075729370117,0.4447750151157379,4.289999999999953
0.3300015926361084,-0.2774171829223633,0.5142634510993958,4.299999999999953
0.464765727519989,0.051095008850097656,0.4850758910179138,4.3099999999999525
0.6071638464927673,0.2741270065307617,0.5410944223403931,4.319999999999952
0.7956324219703674,0.5137271881103516,0.6700965762138367,4.329999999999952
0.8217669725418091,0.5546836853027344,0.7377047538757324,4.339999999999952
0.8242994546890259,0.6674251556396484,0.676427960395813,4.349999999999952
0.7743648290634155,0.6892414093017578,0.6459567546844482,4.3599999999999515
0.7816541790962219,0.744572639465332,0.5716193914413452,4.369999999999951
0.8145893216133118,0.8501005172729492,0.5751124024391174,4.379999999999951
0.8847583532333374,0.9316205978393555,0.6225210428237915,4.389999999999951
0.987101674079895,1.051316261291504,0.7256940603256226,4.399999999999951
1.183478832244873,1.1134881973266602,1.0257434844970703,4.40999999999995
1.3440442085266113,1.244978904724121,1.4081796407699585,4.41999999999995
1.4829189777374268,1.2759466171264648,1.509941577911377,4.42999999999995
1.56382155418396,1.5317611694335938,1.2748523950576782,4.43999999999995
1.5341752767562866,1.9500350952148438,0.9107182025909424,4.4499999999999496
1.4121425151824951,2.3703861236572266,0.7405678629875183,4.459999999999949
1.344454288482666,2.709115982055664,0.8199995756149292,4.469999999999949
1.293434977531433,3.095369338989258,0.9540708661079407,4.479999999999949
1.3169578313827515,3.4213829040527344,1.0453948974609375,4.489999999999949
1.4270449876785278,3.79476261138916,1.1381504535675049,4.4999999999999485
1.5232913494110107,4.16996955871582,1.2936733961105347,4.509999999999948
1.7326011657714844,4.496753692626953,1.523364543914795,4.519999999999948
1.8373202085494995,4.68906307220459,1.7285336256027222,4.529999999999948
1.9524389505386353,4.701615333557129,1.9137026071548462,4.539999999999948
2.011141538619995,4.498760223388672,2.088315725326538,4.549999999999947
2.0327038764953613,4.154898643493652,2.30985164642334,4.559999999999947
2.1295177936553955,3.725214958190918,2.470560312271118,4.569999999999947
2.22952938079834,3.181138038635254,2.6277143955230713,4.579999999999947
2.384953260421753,2.632826805114746,2.7762818336486816,4.589999999999947
2.5477283000946045,2.1353044509887695,2.8754379749298096,4.599999999999946
2.794034957885742,1.7578964233398438,2.985215187072754,4.609999999999946
3.0586435794830322,1.6128730773925781,2.9307634830474854,4.619999999999946
3.5347256660461426,1.6378021240234375,2.58726167678833,4.629999999999946
3.9583866596221924,1.7297039031982422,2.1603617668151855,4.6399999999999455
4.310035705566406,1.855088233947754,1.678973913192749,4.649999999999945
4.586658000946045,1.9948692321777344,1.105360507965088,4.659999999999945
4.799593925476074,2.053473472595215,0.5962103605270386,4.669999999999945
4.896162033081055,1.9258413314819336,-0.1280096471309662,4.679999999999945
4.974792957305908,1.7509193420410156,-0.8929740786552429,4.689999999999944
4.93812894821167,1.1701345443725586,-1.3789362907409668,4.699999999999944
4.746520042419434,0.3657665252685547,-1.5224398374557495,4.709999999999944
4.2979841232299805,-0.23381710052490234,-1.620742917060852,4.719999999999944
3.7461977005004883,-1.0974349975585938,-1.6238116025924683,4.729999999999944
3.108412981033325,-1.7512168884277344,-1.5626468658447266,4.739999999999943
2.504796266555786,-2.2933459281921387,-1.638419508934021,4.749999999999943
1.9338194131851196,-2.5157976150512695,-1.9809417724609375,4.759999999999943
1.3801929950714111,-2.665090560913086,-2.3518340587615967,4.769999999999943
0.7283636331558228,-2.882190704345703,-2.634831428527832,4.7799999999999425
-0.0036445558071136475,-3.0209832191467285,-2.6430184841156006,4.789999999999942
-0.8509763479232788,-2.9644031524658203,-2.2951221466064453,4.799999999999942
-1.6506426334381104,-2.808473587036133,-1.9159538745880127,4.809999999999942
-2.3306050300598145,-2.7614974975585938,-1.6492525339126587,4.819999999999942
-2.7692313194274902,-2.6465697288513184,-1.4166193008422852,4.8299999999999415
-3.049424171447754,-2.593090534210205,-1.2522574663162231,4.839999999999941
-3.222195625305176,-2.4721851348876953,-1.086956262588501,4.849999999999941
-3.021430253982544,-2.305858612060547,-0.9020135402679443,4.859999999999941
-2.541581153869629,-2.077632427215576,-0.6616382598876953,4.869999999999941
-1.870759129524231,-1.7803082466125488,-0.42282092571258545,4.87999999999994
-1.1005454063415527,-1.3037643432617188,-0.15191912651062012,4.88999999999994
-0.5778841376304626,-0.6216545104980469,-0.006385087966918945,4.89999999999994
-0.2467714250087738,0.06302261352539062,-0.04382777214050293,4.90999999999994
-0.30409538745880127,0.7412986755371094,-0.13281738758087158,4.9199999999999395
-0.73847496509552,1.4256172180175781,-0.14826750755310059,4.929999999999939
-1.382695198059082,2.1998910903930664,-0.03800010681152344,4.939999999999939
-2.1239280700683594,2.8248491287231445,0.07431626319885254,4.949999999999939
-2.972139358520508,3.29337215423584,0.10365724563598633,4.959999999999939
-3.7655715942382812,3.7177915573120117,-0.034630537033081055,4.9699999999999385
-3.9290363788604736,3.8730897903442383,-0.3868088722229004,4.979999999999938
-3.501133441925049,3.6803503036499023,-0.7815053462982178,4.989999999999938
-2.774646043777466,3.2736740112304688,-1.2967453002929688,4.999999999999938
-1.9430077075958252,2.8227853775024414,-1.7783372402191162,5.009999999999938
-1.4043304920196533,2.303709030151367,-2.084911823272705,5.019999999999937
-0.7871752977371216,1.7285356521606445,-2.2432918548583984,5.029999999999937
-0.30306658148765564,1.1928539276123047,-1.9258939027786255,5.039999999999937
0.023859232664108276,0.6367111206054688,-1.2861576080322266,5.049999999999937
0.1361161172389984,-0.1073923110961914,-0.6279294490814209,5.0599999999999365
-0.1109861433506012,-0.7812376022338867,-0.2950303554534912,5.069999999999936
-0.31119292974472046,-1.3805251121520996,-0.25037455558776855,5.079999999999936
-0.40432217717170715,-1.7431397438049316,-0.38052821159362793,5.089999999999936
-0.5807193517684937,-2.168679714202881,-0.6319851875305176,5.099999999999936
-0.6810544729232788,-2.42313814163208,-0.7649009227752686,5.1099999999999355
-0.7209967970848083,-2.545149803161621,-0.9850480556488037,5.119999999999935
-0.7979755997657776,-2.5132369995117188,-1.24271559715271,5.129999999999935
-0.7820518016815186,-2.468449592590332,-1.5577595233917236,5.139999999999935
-0.7753003835678101,-2.5324840545654297,-1.942894458770752,5.149999999999935
-0.6593671441078186,-2.5855345726013184,-2.2168145179748535,5.159999999999934
-0.6321043372154236,-2.708977222442627,-2.401254653930664,5.169999999999934
-0.5830486416816711,-2.821565628051758,-2.4340572357177734,5.179999999999934
-0.5117194652557373,-2.983250617980957,-2.4659292697906494,5.189999999999934
-0.4730929136276245,-3.0362887382507324,-2.360459327697754,5.199999999999934
-0.45023804903030396,-3.2224082946777344,-2.23496150970459,5.209999999999933
-0.5005170702934265,-3.3431668281555176,-2.036608934402466,5.219999999999933
-0.5451762080192566,-3.405996799468994,-1.9182615280151367,5.229999999999933
-0.5312353372573853,-3.4780869483947754,-1.8796358108520508,5.239999999999933
-0.6670154929161072,-3.506887435913086,-1.8703534603118896,5.2499999999999325
-0.7953294515609741,-3.485281467437744,-1.8999316692352295,5.259999999999932
-0.7613426446914673,-3.5160679817199707,-1.9397830963134766,5.269999999999932
-0.7278516888618469,-3.618213176727295,-1.9638035297393799,5.279999999999932
-0.9630434513092041,-3.817844867706299,-2.017590284347534,5.289999999999932
-0.9434537887573242,-3.9666848182678223,-1.8952538967132568,5.299999999999931
-1.0093998908996582,-3.9453749656677246,-1.70670485496521,5.309999999999931
-1.1088128089904785,-3.9431347846984863,-1.4661014080047607,5.319999999999931
-1.0604605674743652,-3.919433116912842,-1.2448959350585938,5.329999999999931
-1.1230871677398682,-3.967529296875,-1.0980339050292969,5.339999999999931
-1.1489818096160889,-3.967860698699951,-0.8769016265869141,5.34999999999993
-1.0313608646392822,-3.884629726409912,-0.646000862121582,5.35999999999993
-1.0408235788345337,-3.8566060066223145,-0.4506831169128418,5.36999999999993
-1.1197304725646973,-3.8478264808654785,-0.19039297103881836,5.37999999999993
-1.2249013185501099,-3.757777690887451,0.08222103118896484,5.3899999999999295
-1.3276656866073608,-3.5578408241271973,0.350557804107666,5.399999999999929
-1.3969398736953735,-3.3125805854797363,0.6265454292297363,5.409999999999929
-1.3391896486282349,-2.9882702827453613,0.9073786735534668,5.419999999999929
-1.364862322807312,-2.6181254386901855,1.1686286926269531,5.429999999999929
-1.3300384283065796,-2.149229049682617,1.5221362113952637,5.4399999999999284
-1.0930800437927246,-1.650498867034912,1.8184983730316162,5.449999999999928
-0.7297700643539429,-1.152205467224121,1.9339888095855713,5.459999999999928
-0.2657102644443512,-0.555262565612793,1.8854708671569824,5.469999999999928
0.3835618793964386,0.0912637710571289,1.7870604991912842,5.479999999999928
1.1527138948440552,0.8724565505981445,1.3765149116516113,5.489999999999927
2.0525999069213867,1.835280418395996,0.8980004787445068,5.499999999999927
2.578035593032837,2.9594812393188477,0.5696487426757812,5.509999999999927
2.8993754386901855,4.417751312255859,0.7884712219238281,5.519999999999927
2.4312736988067627,5.7716827392578125,1.9663591384887695,5.5299999999999265
1.6012842655181885,6.3338518142700195,4.007904052734375,5.539999999999926
0.9255862236022949,6.213803291320801,6.033712387084961,5.549999999999926
0.05711299180984497,6.381351470947266,7.986574172973633,5.559999999999926
-0.5698822736740112,6.478395462036133,9.26298713684082,5.569999999999926
-0.881073534488678,6.355855941772461,9.822813034057617,5.5799999999999255
-0.758154034614563,5.097735404968262,9.674810409545898,5.589999999999925
-0.35173845291137695,2.891493797302246,9.370488166809082,5.599999999999925
0.24917954206466675,0.13020896911621094,8.484588623046875,5.609999999999925
0.5937910079956055,-2.898653507232666,6.831387042999268,5.619999999999925
0.9204965233802795,-5.714433193206787,4.4600067138671875,5.629999999999924
1.066002368927002,-6.950099945068359,2.1326189041137695,5.639999999999924
0.7456175684928894,-6.636712074279785,-0.15690326690673828,5.649999999999924
0.00594744086265564,-4.558862686157227,-1.8577144145965576,5.659999999999924
-0.3462231159210205,-1.8300862312316895,-3.676957130432129,5.6699999999999235
-0.790625274181366,1.3201961517333984,-5.578180313110352,5.679999999999923
-1.302690863609314,4.79112434387207,-6.939384460449219,5.689999999999923
-1.7967031002044678,8.537991523742676,-7.894375801086426,5.699999999999923
-3.0904629230499268,11.768280029296875,-8.30322265625,5.709999999999923
-4.878493309020996,14.303441047668457,-7.566887378692627,5.7199999999999225
-7.010183334350586,15.73755168914795,-5.928056240081787,5.729999999999922
-8.70421028137207,15.252556800842285,-4.666342735290527,5.739999999999922
-8.029779434204102,12.488839149475098,-3.251169204711914,5.749999999999922
-6.055118083953857,7.789860725402832,-1.4030907154083252,5.759999999999922
-5.3303728103637695,5.014714241027832,-0.7161359786987305,5.769999999999921
-6.0175557136535645,4.925060272216797,-1.3586783409118652,5.779999999999921
-6.437224388122559,5.469941139221191,-1.277108907699585,5.789999999999921
-5.282290935516357,5.55198860168457,0.04086589813232422,5.799999999999921
-3.7340762615203857,4.845788955688477,1.680518627166748,5.809999999999921
-2.369967460632324,3.408885955810547,2.1855509281158447,5.81999999999992
-1.8910558223724365,1.5182905197143555,0.9253816604614258,5.82999999999992
-1.6452898979187012,-0.6666345596313477,-1.1007404327392578,5.83999999999992
-0.913101315498352,-2.63297176361084,-3.302478075027466,5.84999999999992
-0.13836610317230225,-3.3842430114746094,-5.057161331176758,5.8599999999999195
0.15968996286392212,-2.789747714996338,-5.854394435882568,5.869999999999919
-0.0777466893196106,-1.7922172546386719,-5.592731475830078,5.879999999999919
-0.01612800359725952,-1.0284395217895508,-4.81785774230957,5.889999999999919
0.37446290254592896,-0.659083366394043,-4.276611328125,5.899999999999919
0.9491755366325378,-0.4694976806640625,-3.893893241882324,5.909999999999918
1.750333547592163,-0.6017522811889648,-3.5966269969940186,5.919999999999918
2.2783052921295166,-1.0061063766479492,-3.5566086769104004,5.929999999999918
2.6477103233337402,-1.4796948432922363,-3.673356771469116,5.939999999999918
2.5642898082733154,-1.9129066467285156,-3.86614727973938,5.949999999999918
2.423083543777466,-2.133824348449707,-3.9999277591705322,5.959999999999917
2.261258125305176,-1.8433995246887207,-4.1758904457092285,5.969999999999917
1.8436466455459595,-1.1537981033325195,-4.398304462432861,5.979999999999917
1.3398038148880005,-0.11725044250488281,-4.473291873931885,5.989999999999917
0.8763128519058228,0.88153076171875,-4.372058391571045,5.9999999999999165
0.5184694528579712,1.6662588119506836,-4.1492018699646,6.009999999999916
0.4311349391937256,2.0604209899902344,-3.5207293033599854,6.019999999999916
0.4414525032043457,2.0238513946533203,-2.81929874420166,6.029999999999916
0.5827590227127075,1.707777976989746,-2.236366033554077,6.039999999999916
0.6615297794342041,1.1200599670410156,-1.9307584762573242,6.0499999999999154
0.7098830938339233,0.4360799789428711,-1.8062729835510254,6.059999999999915
0.6574735641479492,-0.34598827362060547,-1.7838819026947021,6.069999999999915
0.35446619987487793,-0.9482975006103516,-1.7150487899780273,6.079999999999915
-0.06684291362762451,-1.5502848625183105,-1.5654261112213135,6.089999999999915
-0.48648905754089355,-2.0469188690185547,-1.364044189453125,6.099999999999914
-0.764080286026001,-2.5438661575317383,-1.18890380859375,6.109999999999914
-1.022796630859375,-3.0486412048339844,-1.0504711866378784,6.119999999999914
-1.1892377138137817,-3.2053184509277344,-1.0403976440429688,6.129999999999914
-1.355126976966858,-3.24654483795166,-0.9969391822814941,6.1399999999999135
-1.4660451412200928,-3.012516975402832,-1.009641408920288,6.149999999999913
-1.527419090270996,-2.6185169219970703,-1.036746859550476,6.159999999999913
-1.6574270725250244,-2.241710662841797,-1.1373354196548462,6.169999999999913
-1.7085635662078857,-1.8365669250488281,-1.1557502746582031,6.179999999999913
-1.7174417972564697,-1.309767723083496,-1.1997628211975098,6.1899999999999125
-1.6750859022140503,-0.9291610717773438,-1.2169612646102905,6.199999999999912
-1.4720587730407715,-0.6299381256103516,-1.1882991790771484,6.209999999999912
-1.1950124502182007,-0.48607444763183594,-1.2143213748931885,6.219999999999912
-0.8085372447967529,-0.43511104583740234,-1.2187879085540771,6.229999999999912
-0.504174530506134,-0.35016632080078125,-1.1994881629943848,6.239999999999911
-0.2486669421195984,-0.38436412811279297,-1.151252269744873,6.249999999999911
0.0893322229385376,-0.4491434097290039,-1.1453428268432617,6.259999999999911
0.3831024169921875,-0.6162023544311523,-0.9449482560157776,6.269999999999911
0.5424025058746338,-0.7276268005371094,-0.7034854888916016,6.2799999999999105
0.6233168840408325,-0.8122148513793945,-0.5863181352615356,6.28999999999991
0.7487335205078125,-1.0206527709960938,-0.5124944448471069,6.29999999999991
0.98170006275177,-1.2117109298706055,-0.48508530855178833,6.30999999999991
1.2075988054275513,-1.3806419372558594,-0.489932656288147,6.31999999999991
1.5079683065414429,-1.4653997421264648,-0.3903188109397888,6.3299999999999095
1.7251657247543335,-1.449432373046875,-0.37260276079177856,6.339999999999909
1.940669059753418,-1.433344841003418,-0.38139820098876953,6.349999999999909
2.1475014686584473,-1.4219398498535156,-0.5028074979782104,6.359999999999909
2.2572128772735596,-1.3267230987548828,-0.6484312415122986,6.369999999999909
2.073702335357666,-1.166940689086914,-0.7821856737136841,6.379999999999908
1.6861821413040161,-1.028900146484375,-0.7787885069847107,6.389999999999908
1.6026465892791748,-1.1447057723999023,-0.481915682554245,6.399999999999908
1.5746804475784302,-1.251021385192871,-0.4352252185344696,6.409999999999908
1.3819124698638916,-1.3189935684204102,-0.36238086223602295,6.419999999999908
1.1744165420532227,-1.53021240234375,-0.23819392919540405,6.429999999999907
1.0401612520217896,-1.6668729782104492,-0.15342718362808228,6.439999999999907
0.8256288766860962,-1.6478033065795898,-0.2410617470741272,6.449999999999907
0.5018762350082397,-1.599935531616211,-0.30405473709106445,6.459999999999907
0.18377184867858887,-1.6787376403808594,-0.22486978769302368,6.4699999999999065
0.031752586364746094,-1.6832094192504883,-0.1184827983379364,6.479999999999906
-0.14795035123825073,-1.6086311340332031,-0.1431877315044403,6.489999999999906
-0.18787884712219238,-1.5052976608276367,-0.08151009678840637,6.499999999999906
-0.2459915280342102,-1.401932716369629,-0.026804357767105103,6.509999999999906
-0.26233136653900146,-1.1909379959106445,-0.06536689400672913,6.519999999999905
-0.32286137342453003,-1.0230979919433594,-0.003402203321456909,6.529999999999905
-0.3079630136489868,-0.7907485961914062,0.07021462917327881,6.539999999999905
-0.2224128246307373,-0.5274553298950195,0.23214970529079437,6.549999999999905
-0.0902547836303711,-0.26911067962646484,0.417476087808609,6.559999999999905
0.028554320335388184,-0.09459304809570312,0.4868737459182739,6.569999999999904
0.2200855016708374,0.08945465087890625,0.5213896036148071,6.579999999999904
0.26188206672668457,0.34278392791748047,0.5446092486381531,6.589999999999904
0.33559608459472656,0.49554920196533203,0.613897979259491,6.599999999999904
0.3718211054801941,0.6004667282104492,0.7773695588111877,6.6099999999999035
0.428081750869751,0.7197465896606445,0.9107193350791931,6.619999999999903
0.47320717573165894,0.9155349731445312,0.8919558525085449,6.629999999999903
0.531115710735321,0.9629631042480469,0.8742019534111023,6.639999999999903
0.5609549283981323,1.0128555297851562,0.8093103766441345,6.649999999999903
0.6678138971328735,1.0125970840454102,0.7283074259757996,6.659999999999902
0.7342614531517029,0.9813861846923828,0.7104195356369019,6.669999999999902
0.8079485297203064,0.9407978057861328,0.7607119679450989,6.679999999999902
0.9846850037574768,0.905177116394043,0.8243874907493591,6.689999999999902
1.1159952878952026,0.8960437774658203,0.8562371730804443,6.699999999999902
1.1372673511505127,1.0042409896850586,0.8876141905784607,6.709999999999901
1.2137019634246826,1.1387653350830078,1.0814536809921265,6.719999999999901
1.3239383697509766,1.3665313720703125,1.3133862018585205,6.729999999999901
1.4702415466308594,1.7017717361450195,1.4446277618408203,6.739999999999901
1.683363676071167,2.0606603622436523,1.4151039123535156,6.7499999999999005
1.939146876335144,2.2614364624023438,1.4281432628631592,6.7599999999999
2.153653144836426,2.411871910095215,1.3133596181869507,6.7699999999999
2.3529183864593506,2.4713611602783203,1.1758157014846802,6.7799999999999
2.565420389175415,2.542816162109375,1.0392874479293823,6.7899999999999
2.704962730407715,2.575977325439453,0.9298142194747925,6.7999999999998995
2.721226215362549,2.556529998779297,0.9740613698959351,6.809999999999899
2.693092107772827,2.5753841400146484,1.1311392784118652,6.819999999999899
2.646984338760376,2.62050724029541,1.3745167255401611,6.829999999999899
2.6071794033050537,2.620084762573242,1.5842294692993164,6.839999999999899
2.556877374649048,2.6219329833984375,1.7668447494506836,6.849999999999898
2.4287965297698975,2.616413116455078,1.935900092124939,6.859999999999898
2.306708574295044,2.7062911987304688,2.021394729614258,6.869999999999898
2.379611015319824,2.8077430725097656,2.0999231338500977,6.879999999999898
2.345378875732422,2.856205940246582,2.106989860534668,6.8899999999998975
2.3372766971588135,2.923478126525879,1.9109889268875122,6.899999999999897
2.4457168579101562,2.9665050506591797,1.6675362586975098,6.909999999999897
2.63457989692688,2.9924964904785156,1.4721946716308594,6.919999999999897
2.642770528793335,3.1568918228149414,1.250334620475769,6.929999999999897
2.7407608032226562,3.2180395126342773,1.0447561740875244,6.9399999999998965
2.833200216293335,3.1521835327148438,0.9124588370323181,6.949999999999896
2.932457208633423,2.8901777267456055,0.7070896029472351,6.959999999999896
2.974238157272339,2.4084081649780273,0.4089667797088623,6.969999999999896
3.1046648025512695,1.8220176696777344,0.1566263735294342,6.979999999999896
3.1588025093078613,1.3201408386230469,-0.3038422763347626,6.989999999999895
3.24489688873291,0.8573846817016602,-0.6828251481056213,6.999999999999895
3.146094799041748,0.30951595306396484,-1.0231359004974365,7.009999999999895
2.8724722862243652,-0.16777706146240234,-1.3772388696670532,7.019999999999895
2.446326732635498,-0.521815299987793,-1.7046912908554077,7.0299999999998946
2.038433074951172,-0.6904106140136719,-1.9672424793243408,7.039999999999894
1.5255203247070312,-0.8075265884399414,-2.128946304321289,7.049999999999894
0.9114151000976562,-0.7319631576538086,-2.2118570804595947,7.059999999999894
0.1400235891342163,-0.4996013641357422,-2.2834439277648926,7.069999999999894
-0.567461371421814,-0.4236602783203125,-2.2401602268218994,7.0799999999998935
-1.3802343606948853,-0.2933778762817383,-2.061234474182129,7.089999999999893
-2.1976981163024902,-0.29529762268066406,-1.6485660076141357,7.099999999999893
-2.792880058288574,-0.393524169921875,-1.2096705436706543,7.109999999999893
-3.0451395511627197,-0.494964599609375,-0.8752825260162354,7.119999999999893
-3.1221823692321777,-0.6478729248046875,-0.6157659888267517,7.129999999999892
-2.986953020095825,-0.6399993896484375,-0.33914947509765625,7.139999999999892
-2.7052128314971924,-0.6610136032104492,-0.09154975414276123,7.149999999999892
-2.176325559616089,-0.6920108795166016,0.04731178283691406,7.159999999999892
-1.8074482679367065,-0.5439901351928711,0.04853641986846924,7.169999999999892
-1.470840573310852,-0.2001180648803711,-0.036101579666137695,7.179999999999891
-1.5071443319320679,0.0960540771484375,-0.2799264192581177,7.189999999999891
-1.691227674484253,0.5031290054321289,-0.5864741802215576,7.199999999999891
-1.968411922454834,0.8590097427368164,-0.7481402158737183,7.209999999999891
-2.1286396980285645,1.319565773010254,-0.8355209827423096,7.2199999999998905
-2.3019630908966064,1.820246696472168,-0.8125166893005371,7.22999999999989
-2.63118052482605,2.2342119216918945,-0.7520695924758911,7.23999999999989
-2.836324453353882,2.6212472915649414,-0.7676982879638672,7.24999999999989
-2.705087184906006,2.930980682373047,-0.8506474494934082,7.25999999999989
-2.2095863819122314,3.0579614639282227,-0.9177355766296387,7.269999999999889
-1.5686801671981812,3.002102851867676,-1.0250141620635986,7.279999999999889
-1.0954761505126953,2.7753124237060547,-1.2360296249389648,7.289999999999889
-0.5261586904525757,2.4901046752929688,-1.4429662227630615,7.299999999999889
0.05450739711523056,2.1824283599853516,-1.5241117477416992,7.309999999999889
0.35382765531539917,1.835550308227539,-1.5634244680404663,7.319999999999888
0.4208832383155823,1.327469825744629,-1.431728720664978,7.329999999999888
0.4341619610786438,0.7537603378295898,-1.1023404598236084,7.339999999999888
0.3783893585205078,0.022986412048339844,-0.5882713794708252,7.349999999999888
0.2029959261417389,-0.8294181823730469,-0.2614016532897949,7.3599999999998875
0.20313796401023865,-1.428088665008545,-0.30542469024658203,7.369999999999887
0.06371808052062988,-1.92454195022583,-0.5538046360015869,7.379999999999887
-0.10375409573316574,-2.3717570304870605,-0.9773375988006592,7.389999999999887
-0.26563239097595215,-2.5544166564941406,-1.4713551998138428,7.399999999999887
-0.5187523365020752,-2.8122096061706543,-1.9384708404541016,7.4099999999998865
-0.4884529113769531,-3.2168688774108887,-2.23292875289917,7.419999999999886
-0.48988503217697144,-3.5412755012512207,-2.383434772491455,7.429999999999886
-0.5176854133605957,-4.017588138580322,-2.5384323596954346,7.439999999999886
-0.5134354829788208,-4.626553535461426,-2.6837143898010254,7.449999999999886
-0.45807909965515137,-5.2557172775268555,-2.6280517578125,7.459999999999885
-0.33257052302360535,-5.725681304931641,-2.5489320755004883,7.469999999999885
-0.24244940280914307,-5.938559532165527,-2.441880226135254,7.479999999999885
-0.23595422506332397,-5.925787925720215,-2.2854902744293213,7.489999999999885
-0.3996981978416443,-5.73306941986084,-2.099085569381714,7.4999999999998845
-0.5308188796043396,-5.348902702331543,-1.8177783489227295,7.509999999999884
-0.6584818959236145,-4.910148620605469,-1.5535035133361816,7.519999999999884
-0.7641657590866089,-4.539023399353027,-1.370473861694336,7.529999999999884
-0.9227684140205383,-4.281070232391357,-1.2347874641418457,7.539999999999884
-0.9246012568473816,-4.1122212409973145,-1.1631896495819092,7.5499999999998835
-0.9759809374809265,-4.1470770835876465,-1.1270503997802734,7.559999999999883
-0.9571983218193054,-4.299269199371338,-1.0307483673095703,7.569999999999883
-1.03293776512146,-4.59260368347168,-0.9507827758789062,7.579999999999883
-0.9117663502693176,-4.663649559020996,-0.7958300113677979,7.589999999999883
-0.8094376921653748,-4.70393180847168,-0.6377139091491699,7.599999999999882
-0.7140029072761536,-4.76345157623291,-0.4170558452606201,7.609999999999882
-0.6876420378684998,-4.763212203979492,-0.09089183807373047,7.619999999999882
-0.629554033279419,-4.760581970214844,0.24973249435424805,7.629999999999882
-0.6280193328857422,-4.6837158203125,0.6214666366577148,7.6399999999998816
-0.5488346219062805,-4.6330413818359375,1.0290451049804688,7.649999999999881
-0.5426644682884216,-4.457693099975586,1.316802978515625,7.659999999999881
-0.40895429253578186,-4.114306449890137,1.3239006996154785,7.669999999999881
-0.3268340528011322,-3.743584156036377,1.240896224975586,7.679999999999881
-0.2161415070295334,-3.2565245628356934,1.0762853622436523,7.6899999999998805
-0.2019537389278412,-2.762819290161133,0.9773707389831543,7.69999999999988
-0.21285930275917053,-2.2333879470825195,0.9334206581115723,7.70999999999988
-0.29274722933769226,-1.6104474067687988,0.9170396327972412,7.71999999999988
-0.19384926557540894,-0.9963703155517578,0.8644311428070068,7.72999999999988
-0.1568281352519989,-0.3617086410522461,0.8452346324920654,7.739999999999879
-0.1718059927225113,0.5049467086791992,0.5959455966949463,7.749999999999879
-0.1454620361328125,1.3962039947509766,0.4584968090057373,7.759999999999879
0.09325453639030457,2.8748464584350586,0.6047883033752441,7.769999999999879
0.29019731283187866,4.830843925476074,1.1068432331085205,7.779999999999879
0.19908681511878967,7.469280242919922,2.311171293258667,7.789999999999878
-0.5940519571304321,9.741307258605957,4.17141056060791,7.799999999999878
-1.1296944618225098,9.943653106689453,6.068470478057861,7.809999999999878
-1.1872462034225464,8.555621147155762,7.642544746398926,7.819999999999878
-1.3276926279067993,6.819154739379883,8.408618927001953,7.8299999999998775
-1.1520529985427856,4.724575042724609,8.779962539672852,7.839999999999877
-0.46837344765663147,2.315058708190918,8.61401653289795,7.849999999999877
-0.010189324617385864,-0.6125211715698242,7.974168300628662,7.859999999999877
0.43111687898635864,-3.4169487953186035,6.976347923278809,7.869999999999877
0.3518619239330292,-4.895421981811523,4.790966987609863,7.879999999999876
0.10992434620857239,-4.649586200714111,1.6548447608947754,7.889999999999876
-0.11993551254272461,-2.430461883544922,-0.9292781352996826,7.899999999999876
-0.266262412071228,1.3929786682128906,-1.8056097030639648,7.909999999999876
-0.2679334878921509,5.688048362731934,-2.705416202545166,7.919999999999876
-0.3024807274341583,9.764312744140625,-4.555880069732666,7.929999999999875
-0.49430549144744873,13.40317153930664,-6.276525497436523,7.939999999999875
-1.2145910263061523,15.31318187713623,-6.758476257324219,7.949999999999875
-2.4042813777923584,15.29940128326416,-6.31973123550415,7.959999999999875
-4.010087966918945,13.255049705505371,-5.721970558166504,7.9699999999998745
-5.381917476654053,9.431177139282227,-4.592405796051025,7.979999999999874
-5.416940212249756,5.048836708068848,-2.6456780433654785,7.989999999999874
