AccX,AccY,AccZ,SampleRate
2.012331247329712,4.117659568786621,0.8739423751831055,0
1.6334069967269897,5.349396705627441,1.2109465599060059,0.01
1.0320632457733154,6.109682083129883,2.0614871978759766,0.02
0.46576470136642456,6.369495391845703,3.3320205211639404,0.03
-0.11114612221717834,6.183241844177246,4.6907196044921875,0.04
-0.6785021424293518,5.72722053527832,5.841766357421875,0.05
-1.1729226112365723,5.089164733886719,6.816807270050049,0.060000000000000005
-1.3503860235214233,4.06754207611084,7.299944877624512,0.07
-1.0477871894836426,2.508822441101074,7.623528480529785,0.08
-0.6357320547103882,0.6903142929077148,7.356039524078369,0.09
-0.38245248794555664,-0.9550337791442871,6.4956889152526855,0.09999999999999999
-0.14297279715538025,-2.518244743347168,5.23881196975708,0.10999999999999999
0.10064089298248291,-2.9759202003479004,3.9874916076660156,0.11999999999999998
0.10269558429718018,-2.8502283096313477,2.226877212524414,0.12999999999999998
-0.21741598844528198,-1.4337177276611328,0.43765687942504883,0.13999999999999999
-0.5323235988616943,0.796635627746582,-1.0031752586364746,0.15
-1.1119515895843506,3.6202468872070312,-1.5445072650909424,0.16
-1.802682638168335,6.6758880615234375,-2.3096742630004883,0.17
-2.2563347816467285,9.568289756774902,-3.4450316429138184,0.18000000000000002
-2.50152850151062,11.573304176330566,-3.895615577697754,0.19000000000000003
-2.696237564086914,12.773580551147461,-2.7329487800598145,0.20000000000000004
-3.137126922607422,12.252161026000977,-1.294245719909668,0.21000000000000005
-3.50634503364563,10.220285415649414,-0.7322535514831543,0.22000000000000006
-3.6372296810150146,7.704156875610352,-1.1166887283325195,0.23000000000000007
-3.8808116912841797,6.001890182495117,-1.6768019199371338,0.24000000000000007
-4.269948959350586,5.015064239501953,-1.5723421573638916,0.25000000000000006
-4.788549900054932,5.071013450622559,-1.0740966796875,0.26000000000000006
-5.043374061584473,4.410121917724609,-0.5928666591644287,0.2700000000000001
-4.35134744644165,3.728489875793457,0.47765398025512695,0.2800000000000001
-3.550281286239624,2.117319107055664,1.3372998237609863,0.2900000000000001
-2.671628713607788,0.493133544921875,1.2211403846740723,0.3000000000000001
-2.426644802093506,-1.1953163146972656,0.36773157119750977,0.3100000000000001
-1.6171555519104004,-2.1834006309509277,-1.7469322681427002,0.3200000000000001
-2.0048694610595703,-3.2142505645751953,-3.982025146484375,0.3300000000000001
-2.485414505004883,-2.978370189666748,-5.528981685638428,0.34000000000000014
-2.7862038612365723,-1.7384042739868164,-5.782082557678223,0.35000000000000014
-2.620958089828491,-0.4006509780883789,-4.713059902191162,0.36000000000000015
-1.881873607635498,0.685124397277832,-3.8197124004364014,0.37000000000000016
-1.1395963430404663,1.5309104919433594,-3.30118989944458,0.38000000000000017
1.844167709350586E-4,2.251908302307129,-2.9262146949768066,0.3900000000000002
1.3815083503723145,2.83819580078125,-2.7519354820251465,0.4000000000000002
2.140216112136841,2.979310989379883,-2.992661476135254,0.4100000000000002
2.349963903427124,2.590836524963379,-3.6565518379211426,0.4200000000000002
2.0763955116271973,1.5913810729980469,-4.2361321449279785,0.4300000000000002
1.8444597721099854,0.3209381103515625,-4.4935197830200195,0.4400000000000002
1.5427018404006958,-0.9137029647827148,-4.872077941894531,0.45000000000000023
1.033158540725708,-1.7078404426574707,-5.0954999923706055,0.46000000000000024
0.6529706120491028,-1.7569642066955566,-5.332008361816406,0.47000000000000025
0.5918837189674377,-1.2113966941833496,-5.391256332397461,0.48000000000000026
0.3113171458244324,-0.3316507339477539,-5.21143913269043,0.49000000000000027
0.07016277313232422,0.40180492401123047,-4.763402938842773,0.5000000000000002
-0.050507187843322754,0.7669486999511719,-4.0001983642578125,0.5100000000000002
-0.12306004762649536,0.7953109741210938,-2.9986934661865234,0.5200000000000002
-0.24868053197860718,0.3989238739013672,-2.058237314224243,0.5300000000000002
-0.3433973789215088,-0.1871194839477539,-1.4427316188812256,0.5400000000000003
-0.5432446599006653,-0.6802225112915039,-1.1743295192718506,0.5500000000000003
-0.5988757014274597,-1.3050823211669922,-1.0624756813049316,0.5600000000000003
-0.5889705419540405,-1.9490265846252441,-1.0960767269134521,0.5700000000000003
-0.7404406666755676,-2.4470481872558594,-1.20866060256958,0.5800000000000003
-0.7990380525588989,-2.911881923675537,-1.2066441774368286,0.5900000000000003
-0.9463955163955688,-3.391606330871582,-1.2310770750045776,0.6000000000000003
-1.036795735359192,-3.5971012115478516,-1.2072843313217163,0.6100000000000003
-0.9726150631904602,-3.626972198486328,-1.2135473489761353,0.6200000000000003
-0.806785523891449,-3.464888572692871,-1.2660272121429443,0.6300000000000003
-0.5685965418815613,-3.0753822326660156,-1.2731127738952637,0.6400000000000003
-0.46513527631759644,-2.4922327995300293,-1.1744180917739868,0.6500000000000004
-0.49535077810287476,-1.7945647239685059,-1.2205088138580322,0.6600000000000004
-0.44462692737579346,-0.994511604309082,-1.2648272514343262,0.6700000000000004
-0.5164350867271423,-0.37205982208251953,-1.4599257707595825,0.6800000000000004
-0.7349824905395508,0.06583690643310547,-1.7814394235610962,0.6900000000000004
-0.9668093919754028,0.4150733947753906,-2.035219430923462,0.7000000000000004
-0.8700488209724426,0.4748373031616211,-2.2017898559570312,0.7100000000000004
-0.6242941617965698,0.22624683380126953,-2.1539804935455322,0.7200000000000004
-0.34443312883377075,-0.174896240234375,-2.0976035594940186,0.7300000000000004
-0.02571249008178711,-0.6279582977294922,-1.8461134433746338,0.7400000000000004
0.18796813488006592,-1.187809944152832,-1.4738049507141113,0.7500000000000004
0.36888277530670166,-1.5291404724121094,-1.145889163017273,0.7600000000000005
0.4866061210632324,-1.6952919960021973,-0.8887566328048706,0.7700000000000005
0.5895655155181885,-1.7295098304748535,-0.7433333396911621,0.7800000000000005
0.7669479846954346,-1.6439604759216309,-0.6403501033782959,0.7900000000000005
1.014478325843811,-1.4770441055297852,-0.6758958697319031,0.8000000000000005
1.241501808166504,-1.1618461608886719,-0.6018522381782532,0.8100000000000005
1.2756869792938232,-0.8371419906616211,-0.4667518138885498,0.8200000000000005
1.2031275033950806,-0.6057271957397461,-0.4095621109008789,0.8300000000000005
1.2322964668273926,-0.6110591888427734,-0.34138739109039307,0.8400000000000005
1.2750931978225708,-0.7286090850830078,-0.33621418476104736,0.8500000000000005
1.1765379905700684,-0.9033679962158203,-0.19507211446762085,0.8600000000000005
1.0638906955718994,-1.1975183486938477,-0.0637405514717102,0.8700000000000006
1.0401790142059326,-1.3622522354125977,-0.08579504489898682,0.8800000000000006
0.9757711887359619,-1.5339384078979492,-0.17526745796203613,0.8900000000000006
0.9352060556411743,-1.6001853942871094,-0.3176841139793396,0.9000000000000006
0.8632124662399292,-1.709376335144043,-0.4695461690425873,0.9100000000000006
0.7738591432571411,-1.658188819885254,-0.5468212962150574,0.9200000000000006
0.6836888790130615,-1.535283088684082,-0.46075141429901123,0.9300000000000006
0.6426569223403931,-1.2474451065063477,-0.42438870668411255,0.9400000000000006
0.5833486318588257,-1.0315208435058594,-0.24894320964813232,0.9500000000000006
0.5390030145645142,-0.8060722351074219,-0.05901288986206055,0.9600000000000006
0.4856746196746826,-0.7193470001220703,0.1500328779220581,0.9700000000000006
0.4066164493560791,-0.5057287216186523,0.27490943670272827,0.9800000000000006
0.3235515356063843,-0.4570932388305664,0.3319598138332367,0.9900000000000007
0.2223142385482788,-0.4058704376220703,0.4427991211414337,1.0000000000000007
0.10069537162780762,-0.4022970199584961,0.5376003384590149,1.0100000000000007
-0.005038142204284668,-0.4511575698852539,0.7527186870574951,1.0200000000000007
-0.06126523017883301,-0.4998197555541992,0.9853553771972656,1.0300000000000007
-0.0989885926246643,-0.44788455963134766,1.0800565481185913,1.0400000000000007
-0.14236748218536377,-0.41501331329345703,1.0703778266906738,1.0500000000000007
-0.17017972469329834,-0.3126850128173828,0.956371545791626,1.0600000000000007
-0.012570023536682129,-0.16970157623291016,0.8723901510238647,1.0700000000000007
0.028499245643615723,-0.0530242919921875,0.7540895938873291,1.0800000000000007
0.06745743751525879,-0.03191852569580078,0.6351237893104553,1.0900000000000007
0.1326533555984497,0.013319015502929688,0.453464537858963,1.1000000000000008
0.1783316731452942,0.07550334930419922,0.27154043316841125,1.1100000000000008
0.22828292846679688,0.14266586303710938,0.18507429957389832,1.1200000000000008
0.3206467032432556,0.1861133575439453,0.2300891876220703,1.1300000000000008
0.35742783546447754,0.38518810272216797,0.2843438982963562,1.1400000000000008
0.42714065313339233,0.6153450012207031,0.4072524309158325,1.1500000000000008
0.4724418520927429,0.8741273880004883,0.5625279545783997,1.1600000000000008
0.4907904863357544,1.0514936447143555,0.7570329904556274,1.1700000000000008
0.5707880854606628,1.2240381240844727,0.930910050868988,1.1800000000000008
0.7390698790550232,1.4204177856445312,1.0962589979171753,1.1900000000000008
0.9742913842201233,1.578404426574707,1.2005599737167358,1.2000000000000008
1.166283130645752,1.7028331756591797,1.244110107421875,1.2100000000000009
1.4011080265045166,1.788954734802246,1.2148953676223755,1.2200000000000009
1.6978487968444824,1.879861831665039,1.2638797760009766,1.2300000000000009
1.9200255870819092,1.9803218841552734,1.3813023567199707,1.2400000000000009
2.1392478942871094,2.0448904037475586,1.4785226583480835,1.2500000000000009
2.372175455093384,2.166867256164551,1.574836015701294,1.260000000000001
2.69296932220459,2.303133010864258,1.6105077266693115,1.270000000000001
2.90063738822937,2.3675737380981445,1.5233715772628784,1.280000000000001
3.0958878993988037,2.3722057342529297,1.3970134258270264,1.290000000000001
3.1998977661132812,2.3457794189453125,1.3198915719985962,1.300000000000001
3.239281415939331,2.2930784225463867,1.219905972480774,1.310000000000001
3.221611499786377,2.223651885986328,1.101507306098938,1.320000000000001
3.087139129638672,2.2307205200195312,0.9880027770996094,1.330000000000001
2.9218592643737793,2.3284912109375,0.9552866220474243,1.340000000000001
2.811915159225464,2.43790340423584,1.0554933547973633,1.350000000000001
2.6593284606933594,2.503922462463379,1.21181058883667,1.360000000000001
2.45434832572937,2.533731460571289,1.1700793504714966,1.370000000000001
2.3830976486206055,2.572726249694824,1.0321669578552246,1.380000000000001
2.298921823501587,2.843191146850586,0.7922079563140869,1.390000000000001
2.2346057891845703,3.2755041122436523,0.8302159905433655,1.400000000000001
2.0937259197235107,3.769113540649414,0.9933347702026367,1.410000000000001
2.0572707653045654,4.395756721496582,1.1073485612869263,1.420000000000001
2.1509552001953125,4.794275283813477,1.0482516288757324,1.430000000000001
2.340837001800537,4.964982986450195,0.7273951768875122,1.440000000000001
2.590986967086792,4.602132797241211,0.2401968538761139,1.450000000000001
2.8729097843170166,3.878603935241699,-0.3061634600162506,1.460000000000001
3.0316293239593506,3.2062063217163086,-0.9168499708175659,1.470000000000001
2.899688482284546,2.702162742614746,-1.5086047649383545,1.480000000000001
2.7596514225006104,2.3042736053466797,-1.9593122005462646,1.490000000000001
2.477799654006958,1.991074562072754,-2.2905004024505615,1.500000000000001
2.0616347789764404,1.6335506439208984,-2.5066897869110107,1.5100000000000011
1.509099006652832,1.2247962951660156,-2.681389570236206,1.5200000000000011
0.765790581703186,0.6407270431518555,-2.808960437774658,1.5300000000000011
0.08384013175964355,0.19972896575927734,-2.852827548980713,1.5400000000000011
-0.4399215579032898,-0.17715740203857422,-2.8631691932678223,1.5500000000000012
-0.9284913539886475,-0.3368844985961914,-2.6842010021209717,1.5600000000000012
-1.3714516162872314,-0.49485301971435547,-2.2411818504333496,1.5700000000000012
-1.8063530921936035,-0.5411043167114258,-1.692718267440796,1.5800000000000012
-2.0216572284698486,-0.6528797149658203,-1.1635061502456665,1.5900000000000012
-2.2751028537750244,-0.6844110488891602,-0.7885569930076599,1.6000000000000012
-2.406132936477661,-0.6861429214477539,-0.44524770975112915,1.6100000000000012
-2.4412577152252197,-0.5364189147949219,0.03297579288482666,1.6200000000000012
-2.477569341659546,-0.3098640441894531,0.4589792490005493,1.6300000000000012
-2.462223529815674,-0.02594470977783203,0.7908555269241333,1.6400000000000012
-2.018979787826538,0.21959590911865234,1.0087668895721436,1.6500000000000012
-1.3907276391983032,0.4891519546508789,1.1275091171264648,1.6600000000000013
-0.8220728039741516,0.838043212890625,1.1230324506759644,1.6700000000000013
-0.420590877532959,1.0920820236206055,1.0022318363189697,1.6800000000000013
-0.2145398110151291,1.2470426559448242,0.8635555505752563,1.6900000000000013
-0.040609657764434814,1.4156227111816406,0.806990385055542,1.7000000000000013
-0.017597883939743042,1.5188627243041992,0.7231566905975342,1.7100000000000013
0.0039032697677612305,1.573333740234375,0.613584041595459,1.7200000000000013
-0.022167295217514038,1.435201644897461,0.32476043701171875,1.7300000000000013
-0.33608657121658325,1.4510183334350586,-0.282672643661499,1.7400000000000013
-0.6048101186752319,1.0920982360839844,-1.1628751754760742,1.7500000000000013
-0.7778664827346802,0.722294807434082,-2.0835070610046387,1.7600000000000013
-0.8310973048210144,0.2842845916748047,-2.9468283653259277,1.7700000000000014
-0.7887816429138184,-0.10658550262451172,-3.6900458335876465,1.7800000000000014
-0.9927194118499756,-0.35640907287597656,-4.030750274658203,1.7900000000000014
-0.973162829875946,-0.7663478851318359,-3.7546982765197754,1.8000000000000014
-0.6973311305046082,-1.1570863723754883,-3.1221749782562256,1.8100000000000014
-0.5085307359695435,-1.6056084632873535,-2.3328194618225098,1.8200000000000014
-0.42763960361480713,-1.8061790466308594,-1.6580959558486938,1.8300000000000014
-0.3390348255634308,-2.063145160675049,-1.0370995998382568,1.8400000000000014
-0.19550573825836182,-2.1401939392089844,-0.535649299621582,1.8500000000000014
-0.3635255694389343,-2.210331439971924,-0.25270867347717285,1.8600000000000014
-0.46272939443588257,-2.2262659072875977,-0.2086181640625,1.8700000000000014
-0.5116797089576721,-2.245753765106201,-0.5462830066680908,1.8800000000000014
-0.5260146260261536,-2.364621639251709,-0.9280924797058105,1.8900000000000015
-0.5137152075767517,-2.4608163833618164,-1.3089463710784912,1.9000000000000015
-0.5621829628944397,-2.7232742309570312,-1.6581051349639893,1.9100000000000015
-0.6085613965988159,-3.010753631591797,-1.8682234287261963,1.9200000000000015
-0.7032406330108643,-3.438107490539551,-1.9418742656707764,1.9300000000000015
-0.6587764024734497,-3.9502835273742676,-1.8696682453155518,1.9400000000000015
-0.6941103339195251,-4.3249664306640625,-1.8573291301727295,1.9500000000000015
-0.878211259841919,-4.672091484069824,-2.0130774974823,1.9600000000000015
-1.0195121765136719,-4.750055313110352,-2.109992742538452,1.9700000000000015
-0.977148175239563,-4.681217193603516,-1.987926721572876,1.9800000000000015
-0.9792376160621643,-4.398998737335205,-1.819028615951538,1.9900000000000015
-0.9668784737586975,-3.90618896484375,-1.61275315284729,2.0000000000000013
-0.9428742527961731,-3.456653118133545,-1.3928732872009277,2.010000000000001
-0.8692049384117126,-3.1821508407592773,-1.2473790645599365,2.020000000000001
-0.9301494359970093,-3.003816604614258,-1.1829352378845215,2.0300000000000007
-0.8242124915122986,-3.019486904144287,-1.2283697128295898,2.0400000000000005
-0.92242032289505,-3.1260108947753906,-1.2929134368896484,2.0500000000000003
-0.9665079712867737,-3.423588275909424,-1.3935306072235107,2.06
-1.0116891860961914,-3.5412259101867676,-1.3798067569732666,2.07
-1.0343917608261108,-3.5533289909362793,-1.2756743431091309,2.0799999999999996
-0.9966621994972229,-3.5580105781555176,-1.1482784748077393,2.0899999999999994
-1.0445902347564697,-3.646108627319336,-1.0478863716125488,2.099999999999999
-1.1064749956130981,-3.745755672454834,-0.9505505561828613,2.109999999999999
-1.105881929397583,-3.8043899536132812,-0.8608622550964355,2.1199999999999988
-1.2534064054489136,-3.8771471977233887,-0.7617998123168945,2.1299999999999986
-1.393487572669983,-3.935237407684326,-0.6534090042114258,2.1399999999999983
-1.5332081317901611,-3.930792808532715,-0.530907392501831,2.149999999999998
-1.597946047782898,-3.882953643798828,-0.38474082946777344,2.159999999999998
-1.704572319984436,-3.779698371887207,-0.2365550994873047,2.1699999999999977
-1.7089720964431763,-3.6664023399353027,0.009188175201416016,2.1799999999999975
-1.6896333694458008,-3.523803234100342,0.26851987838745117,2.1899999999999973
-1.6579545736312866,-3.3350367546081543,0.5770931243896484,2.199999999999997
-1.620542049407959,-2.9637327194213867,0.9538168907165527,2.209999999999997
-1.5987714529037476,-2.572446823120117,1.3144984245300293,2.2199999999999966
-1.5471824407577515,-2.0484957695007324,1.6203241348266602,2.2299999999999964
-1.343360185623169,-1.4921045303344727,1.930379867553711,2.239999999999996
-0.9269203543663025,-0.8550634384155273,2.286700487136841,2.249999999999996
-0.2900763750076294,-0.13687992095947266,2.690112590789795,2.259999999999996
0.4526597857475281,0.6896228790283203,3.051882028579712,2.2699999999999956
1.191778302192688,1.6949377059936523,3.162860631942749,2.2799999999999954
2.0520412921905518,2.8564538955688477,3.050009250640869,2.289999999999995
2.8514678478240967,4.180270195007324,2.7999837398529053,2.299999999999995
3.54115891456604,5.641020774841309,2.667802095413208,2.3099999999999947
3.6260008811950684,7.236748695373535,2.9817135334014893,2.3199999999999945
2.730212450027466,8.369380950927734,3.9858558177948,2.3299999999999943
1.7737940549850464,8.6704740524292,5.423821926116943,2.339999999999994
0.7822716236114502,8.225748062133789,6.964612007141113,2.349999999999994
-0.1583363264799118,7.4290666580200195,8.153701782226562,2.3599999999999937
-0.8149100542068481,6.427512168884277,8.524774551391602,2.3699999999999934
-1.0641448497772217,4.934852600097656,8.568965911865234,2.3799999999999932
-0.9784226417541504,2.614945411682129,8.200214385986328,2.389999999999993
-0.7864153385162354,-0.17603111267089844,6.83747673034668,2.399999999999993
-0.6085684299468994,-2.335400104522705,5.079411506652832,2.4099999999999926
-0.5144588351249695,-3.399439811706543,2.738025665283203,2.4199999999999924
-0.5514624118804932,-3.6123404502868652,0.20602846145629883,2.429999999999992
-0.7436957359313965,-1.989485740661621,-0.9032413959503174,2.439999999999992
-0.8949301242828369,0.36306285858154297,-1.5686242580413818,2.4499999999999917
-0.907855212688446,2.7690353393554688,-2.6681783199310303,2.4599999999999915
-0.8456113338470459,5.324739456176758,-4.211846351623535,2.4699999999999913
-0.8187277317047119,7.848769187927246,-5.087470054626465,2.479999999999991
-1.3794023990631104,9.996774673461914,-4.8577494621276855,2.489999999999991
-2.1233553886413574,11.127800941467285,-4.503670692443848,2.4999999999999907
-3.6975584030151367,10.965435028076172,-4.4179205894470215,2.5099999999999905
-6.046265602111816,9.75250244140625,-4.576356410980225,2.5199999999999902
-7.605521202087402,7.914297103881836,-4.473754405975342,2.52999999999999
-6.297885417938232,5.6318769454956055,-3.38791561126709,2.53999999999999
-4.669071197509766,3.9455909729003906,-1.862077236175537,2.5499999999999896
-3.88163161277771,3.823763847351074,-1.720576286315918,2.5599999999999894
-3.6143171787261963,4.056801795959473,-2.4114718437194824,2.569999999999989
-3.1453475952148438,3.673741340637207,-2.8690919876098633,2.579999999999989
-3.1790518760681152,2.987778663635254,-3.0717062950134277,2.5899999999999888
-3.507390022277832,2.117814064025879,-3.1747183799743652,2.5999999999999885
-3.3708856105804443,1.121232032775879,-2.996279716491699,2.6099999999999883
-2.7399444580078125,0.3045368194580078,-3.5857431888580322,2.619999999999988
-2.046954393386841,-0.0139312744140625,-3.96397066116333,2.629999999999988
-1.4502707719802856,0.06404876708984375,-4.149401664733887,2.6399999999999877
-0.7144221067428589,0.4138517379760742,-3.991957902908325,2.6499999999999875
-0.056206583976745605,0.8168191909790039,-3.621577024459839,2.6599999999999873
0.47061941027641296,1.1184558868408203,-3.1902146339416504,2.669999999999987
0.8167043924331665,1.171518325805664,-3.1384544372558594,2.679999999999987
1.0030230283737183,0.8534059524536133,-3.3384389877319336,2.6899999999999866
1.249550700187683,0.130889892578125,-3.858004570007324,2.6999999999999864
1.3117179870605469,-0.6747674942016602,-4.359867095947266,2.709999999999986
1.1565253734588623,-1.5817933082580566,-4.809726238250732,2.719999999999986
0.8994592428207397,-2.1634654998779297,-5.0305938720703125,2.7299999999999858
0.6413543820381165,-2.2542691230773926,-5.19504451751709,2.7399999999999856
0.5041581988334656,-1.9737544059753418,-5.171199798583984,2.7499999999999853
0.3410048484802246,-1.4822678565979004,-5.032295227050781,2.759999999999985
0.25778907537460327,-0.9162578582763672,-4.726491928100586,2.769999999999985
0.007813453674316406,-0.5316381454467773,-4.120312213897705,2.7799999999999847
-0.15800368785858154,-0.39765167236328125,-3.359687089920044,2.7899999999999845
-0.13699281215667725,-0.4447345733642578,-2.607234239578247,2.7999999999999843
-0.08726304769515991,-0.6127614974975586,-2.1002681255340576,2.809999999999984
0.04381406307220459,-0.8391599655151367,-1.746450662612915,2.819999999999984
0.18897467851638794,-1.1259689331054688,-1.5063457489013672,2.8299999999999836
0.3359747529029846,-1.393998146057129,-1.259106159210205,2.8399999999999834
0.4651932716369629,-1.676711082458496,-0.9957398176193237,2.849999999999983
0.602482259273529,-1.9383211135864258,-0.7401155233383179,2.859999999999983
0.6614662408828735,-2.1025609970092773,-0.5753316879272461,2.869999999999983
0.5350697636604309,-2.2893757820129395,-0.6799794435501099,2.8799999999999826
0.2911011576652527,-2.532350540161133,-1.0418058633804321,2.8899999999999824
0.021429061889648438,-2.786118984222412,-1.3832743167877197,2.899999999999982
-0.32343727350234985,-2.9146270751953125,-1.569985270500183,2.909999999999982
-0.563950777053833,-2.817800998687744,-1.7043207883834839,2.9199999999999817
-0.7388681173324585,-2.5127925872802734,-1.8239408731460571,2.9299999999999815
-0.8084133863449097,-2.1363182067871094,-1.690932273864746,2.9399999999999813
-0.7093965411186218,-1.7698545455932617,-1.3929028511047363,2.949999999999981
-0.5382857918739319,-1.463552474975586,-1.3507945537567139,2.959999999999981
-0.33860379457473755,-1.155120849609375,-1.2534453868865967,2.9699999999999807
-0.12738513946533203,-0.9354629516601562,-1.012015461921692,2.9799999999999804
0.13558971881866455,-0.9981813430786133,-0.7337312698364258,2.9899999999999802
0.4023709297180176,-1.0846757888793945,-0.5715789794921875,2.99999999999998
0.6895948648452759,-1.1733207702636719,-0.4013787508010864,3.00999999999998
0.8584680557250977,-1.2090263366699219,-0.23315823078155518,3.0199999999999796
1.0381863117218018,-1.184610366821289,-0.0028220415115356445,3.0299999999999794
1.209538221359253,-1.1024904251098633,0.198433518409729,3.039999999999979
1.4369677305221558,-0.881434440612793,0.3372039794921875,3.049999999999979
1.656411051750183,-0.7655429840087891,0.4085559844970703,3.0599999999999787
1.703626036643982,-0.5586776733398438,0.40282368659973145,3.0699999999999785
1.7039872407913208,-0.4260215759277344,0.34863007068634033,3.0799999999999783
1.7199249267578125,-0.2670888900756836,0.16233468055725098,3.089999999999978
1.7588087320327759,-0.22304248809814453,0.028378009796142578,3.099999999999978
1.8732988834381104,-0.33678340911865234,-0.14667612314224243,3.1099999999999777
1.6802399158477783,-0.5004358291625977,-0.4037541151046753,3.1199999999999775
1.356705665588379,-0.5657072067260742,-0.5917497873306274,3.1299999999999772
1.1088221073150635,-0.6763410568237305,-0.49424639344215393,3.139999999999977
1.0137856006622314,-0.8396072387695312,-0.292530357837677,3.149999999999977
0.8444057703018188,-1.019516944885254,-0.24327540397644043,3.1599999999999766
0.746337890625,-1.220677375793457,-0.19469255208969116,3.1699999999999764
0.6664074659347534,-1.1656160354614258,-0.13521599769592285,3.179999999999976
0.5517053604125977,-0.9574670791625977,-0.17220664024353027,3.189999999999976
0.36146223545074463,-0.852290153503418,-0.21654260158538818,3.1999999999999758
0.17711830139160156,-0.6706256866455078,-0.15826919674873352,3.2099999999999755
0.03939998149871826,-0.6636295318603516,0.06192213296890259,3.2199999999999753
0.015216946601867676,-0.6947746276855469,0.19467175006866455,3.229999999999975
-0.01756596565246582,-0.7066211700439453,0.294849157333374,3.239999999999975
-0.0375523567199707,-0.802006721496582,0.3696720004081726,3.2499999999999747
-0.04965752363204956,-0.9258460998535156,0.41229385137557983,3.2599999999999745
0.005843043327331543,-1.0661640167236328,0.43276286125183105,3.2699999999999743
0.03791797161102295,-1.0962209701538086,0.3550514280796051,3.279999999999974
0.16592663526535034,-1.154825210571289,0.2992783784866333,3.289999999999974
0.23645013570785522,-1.1151905059814453,0.20855501294136047,3.2999999999999736
0.4193273186683655,-1.070693016052246,0.23884905874729156,3.3099999999999734
0.527983546257019,-0.9543848037719727,0.33285483717918396,3.319999999999973
0.619855523109436,-0.7854547500610352,0.43533915281295776,3.329999999999973
0.7788566946983337,-0.6452703475952148,0.5649363994598389,3.3399999999999728
0.8255388736724854,-0.5218181610107422,0.6325036287307739,3.3499999999999726
0.9705468416213989,-0.3911781311035156,0.6566806435585022,3.3599999999999723
1.0894794464111328,-0.21032238006591797,0.6516997814178467,3.369999999999972
1.1682567596435547,-0.07498741149902344,0.6104971766471863,3.379999999999972
1.0704364776611328,0.034033775329589844,0.46124446392059326,3.3899999999999717
1.0281254053115845,0.15264320373535156,0.3286593556404114,3.3999999999999715
0.917037308216095,0.37168216705322266,0.27023935317993164,3.4099999999999713
0.8210001587867737,0.7316713333129883,0.1518644392490387,3.419999999999971
0.7736733555793762,1.2395801544189453,0.13342159986495972,3.429999999999971
0.8158568143844604,1.6441221237182617,0.2287684977054596,3.4399999999999706
0.8830075263977051,2.0195255279541016,0.4182458221912384,3.4499999999999704
0.9701934456825256,2.363409996032715,0.5553730726242065,3.45999999999997
1.125211477279663,2.5203723907470703,0.7691868543624878,3.46999999999997
1.2880284786224365,2.6054210662841797,0.9544457793235779,3.47999999999997
1.381998062133789,2.570819854736328,1.063441514968872,3.4899999999999696
1.4955735206604004,2.4525833129882812,1.1034491062164307,3.4999999999999694
1.6477537155151367,2.2842941284179688,1.2110326290130615,3.509999999999969
1.7880964279174805,2.0947113037109375,1.2283214330673218,3.519999999999969
1.928351640701294,1.8671283721923828,1.23438560962677,3.5299999999999687
2.0538852214813232,1.7044305801391602,1.260603904724121,3.5399999999999685
2.140526056289673,1.5945920944213867,1.268779993057251,3.5499999999999683
2.188236951828003,1.5016794204711914,1.4168492555618286,3.559999999999968
2.2066380977630615,1.392186164855957,1.5444563627243042,3.569999999999968
2.1551012992858887,1.3187131881713867,1.6705608367919922,3.5799999999999677
2.2154133319854736,1.2285985946655273,1.8668079376220703,3.5899999999999674
2.237004280090332,1.219862937927246,2.0874886512756348,3.5999999999999672
2.2582757472991943,1.1656475067138672,2.272545576095581,3.609999999999967
2.3367207050323486,1.0588102340698242,2.460062265396118,3.619999999999967
2.4509482383728027,0.911320686340332,2.551475763320923,3.6299999999999666
2.531479835510254,0.773402214050293,2.6157126426696777,3.6399999999999664
2.6067047119140625,0.6928501129150391,2.6070406436920166,3.649999999999966
2.640352487564087,0.6767406463623047,2.575284242630005,3.659999999999966
2.776059865951538,0.6962890625,2.5753331184387207,3.6699999999999657
2.970693588256836,0.8805570602416992,2.4298934936523438,3.6799999999999655
3.1954410076141357,1.1552009582519531,2.031041383743286,3.6899999999999653
3.2822985649108887,1.515310287475586,1.37358820438385,3.699999999999965
3.292494297027588,2.1186370849609375,0.7494401931762695,3.709999999999965
3.071423292160034,2.9123611450195312,0.2474372386932373,3.7199999999999647
3.008411169052124,3.8365468978881836,-0.1823132038116455,3.7299999999999645
3.043520450592041,4.544386863708496,-0.5108591318130493,3.7399999999999642
3.1962203979492188,4.766014099121094,-0.745374321937561,3.749999999999964
3.3044850826263428,4.39927864074707,-0.9648613929748535,3.759999999999964
3.08880352973938,4.004472732543945,-1.4931578636169434,3.7699999999999636
2.8681271076202393,3.5601625442504883,-2.0827455520629883,3.7799999999999634
2.4250478744506836,2.9158830642700195,-2.54837703704834,3.789999999999963
2.049327850341797,2.3422651290893555,-2.729952812194824,3.799999999999963
1.6386830806732178,1.8872413635253906,-2.694133996963501,3.8099999999999627
1.1674647331237793,1.639327049255371,-2.6704273223876953,3.8199999999999625
0.7086503505706787,1.5243110656738281,-2.691619873046875,3.8299999999999623
0.22062760591506958,1.3939094543457031,-2.6944870948791504,3.839999999999962
-0.3171624541282654,1.3869333267211914,-2.608741044998169,3.849999999999962
-0.7387795448303223,1.4028568267822266,-2.447666645050049,3.8599999999999617
-1.0018770694732666,1.2216529846191406,-2.229401111602783,3.8699999999999615
-1.486168622970581,0.9559965133666992,-1.9706242084503174,3.8799999999999613
-1.8351919651031494,0.4816713333129883,-1.5700793266296387,3.889999999999961
-2.141180992126465,0.17908191680908203,-1.0599321126937866,3.899999999999961
-2.2025704383850098,-0.08124828338623047,-0.4575194716453552,3.9099999999999606
-2.167344808578491,-0.17284011840820312,0.13825321197509766,3.9199999999999604
-1.960625171661377,-0.0865335464477539,0.6087270975112915,3.92999999999996
-1.7991770505905151,0.06261253356933594,0.884387731552124,3.93999999999996
-1.5903480052947998,0.3055753707885742,1.0126869678497314,3.9499999999999598
-1.4994771480560303,0.5705327987670898,0.9786361455917358,3.9599999999999596
-1.468919038772583,0.6972951889038086,0.8606168031692505,3.9699999999999593
-1.500158429145813,0.6669540405273438,0.6245517730712891,3.979999999999959
-1.6873846054077148,0.6710853576660156,0.307999849319458,3.989999999999959
-2.016935110092163,0.6380281448364258,0.0059168338775634766,3.9999999999999587
-2.417924404144287,0.5942049026489258,-0.3036928176879883,4.009999999999959
-2.7031660079956055,0.6161947250366211,-0.5301134586334229,4.019999999999959
-2.6737213134765625,0.6370172500610352,-0.6783556938171387,4.0299999999999585
-2.3580915927886963,0.5346651077270508,-0.7553145885467529,4.039999999999958
-2.091765880584717,0.3689298629760742,-0.7962193489074707,4.049999999999958
-1.8785868883132935,0.1685314178466797,-0.9561495780944824,4.059999999999958
-1.5046387910842896,0.07456207275390625,-1.074561357498169,4.069999999999958
-1.2201341390609741,-0.16897296905517578,-1.1514317989349365,4.079999999999957
-1.0479499101638794,-0.43999385833740234,-1.174668312072754,4.089999999999957
-0.8929742574691772,-0.7863349914550781,-1.1968724727630615,4.099999999999957
-0.558768630027771,-1.0406970977783203,-1.1937227249145508,4.109999999999957
-0.4185626208782196,-1.1986083984375,-1.2843713760375977,4.119999999999957
-0.22878891229629517,-1.3536968231201172,-1.3677093982696533,4.129999999999956
-0.05913360416889191,-1.427271842956543,-1.5318317413330078,4.139999999999956
0.09294824302196503,-1.5272855758666992,-1.6399059295654297,4.149999999999956
0.30204901099205017,-1.596562385559082,-1.7800954580307007,4.159999999999956
0.3917359411716461,-1.6377406120300293,-1.9568805694580078,4.1699999999999555
0.5113746523857117,-1.8782100677490234,-2.0767574310302734,4.179999999999955
0.48953962326049805,-2.0859017372131348,-2.3215160369873047,4.189999999999955
0.3357822895050049,-2.177318572998047,-2.631105661392212,4.199999999999955
0.23717889189720154,-2.288949966430664,-2.8884100914001465,4.209999999999955
0.09857933223247528,-2.63588809967041,-3.148913860321045,4.2199999999999545
0.025862157344818115,-2.993101119995117,-3.2932026386260986,4.229999999999954
-0.07178895175457001,-3.3295130729675293,-3.28328537940979,4.239999999999954
-0.13895437121391296,-3.7169876098632812,-3.119288921356201,4.249999999999954
-0.24248173832893372,-4.0695648193359375,-2.8824455738067627,4.259999999999954
-0.4423498809337616,-4.447201251983643,-2.630072593688965,4.269999999999953
-0.611413836479187,-4.711355209350586,-2.2017529010772705,4.279999999999953
-0.7061581015586853,-4.905219078063965,-1.9827868938446045,4.289999999999953
-0.8508933186531067,-4.9378862380981445,-1.8872058391571045,4.299999999999953
-1.0002801418304443,-4.814386367797852,-1.8287532329559326,4.3099999999999525
-1.1644889116287231,-4.465632438659668,-1.7714369297027588,4.319999999999952
-1.311315655708313,-3.9302196502685547,-1.6314811706542969,4.329999999999952
-1.3174234628677368,-3.2466368675231934,-1.509453535079956,4.339999999999952
-1.377307415008545,-2.6233134269714355,-1.3308117389678955,4.349999999999952
-1.4055216312408447,-2.244399070739746,-1.2269487380981445,4.3599999999999515
-1.505595088005066,-2.0306930541992188,-1.1284263134002686,4.369999999999951
-1.617709994316101,-1.9891228675842285,-1.1022908687591553,4.379999999999951
-1.6963608264923096,-2.0165786743164062,-1.0744733810424805,4.389999999999951
-1.7845385074615479,-2.0818357467651367,-0.9805035591125488,4.399999999999951
-1.8271026611328125,-2.2160143852233887,-0.8824284076690674,4.40999999999995
-1.941285252571106,-2.3257956504821777,-0.7921028137207031,4.41999999999995
-2.023970365524292,-2.492614269256592,-0.7450902462005615,4.42999999999995
-2.08221697807312,-2.529947280883789,-0.6669943332672119,4.43999999999995
-2.0175886154174805,-2.5312795639038086,-0.5480155944824219,4.4499999999999496
-2.0475211143493652,-2.6209144592285156,-0.3906075954437256,4.459999999999949
-2.0114810466766357,-2.7269978523254395,-0.15401315689086914,4.469999999999949
-1.8736462593078613,-2.7896041870117188,0.05160665512084961,4.479999999999949
-1.6632177829742432,-2.8347816467285156,0.18999099731445312,4.489999999999949
-1.5672880411148071,-2.7761282920837402,0.27984070777893066,4.4999999999999485
-1.296314001083374,-2.6708297729492188,0.3972132205963135,4.509999999999948
-0.9481480121612549,-2.559174060821533,0.5819571018218994,4.519999999999948
-0.7259219884872437,-2.368931770324707,0.7564446926116943,4.529999999999948
-0.547764003276825,-2.082864761352539,0.9910705089569092,4.539999999999948
-0.27645590901374817,-1.7316780090332031,1.3179740905761719,4.549999999999947
0.21808409690856934,-1.293339729309082,1.7545092105865479,4.559999999999947
0.5756171941757202,-0.8723487854003906,1.8940539360046387,4.569999999999947
1.014845609664917,-0.2191171646118164,1.9805107116699219,4.579999999999947
1.3949586153030396,0.6094427108764648,2.0329480171203613,4.589999999999947
1.8423669338226318,1.8575868606567383,2.0996360778808594,4.599999999999946
1.9799147844314575,3.1045217514038086,2.0544729232788086,4.609999999999946
1.8559181690216064,4.204770088195801,2.0759084224700928,4.619999999999946
1.4689037799835205,5.04843807220459,2.3866360187530518,4.629999999999946
1.1587574481964111,5.252476692199707,3.2110018730163574,4.6399999999999455
0.9624202251434326,4.61298942565918,4.528470516204834,4.649999999999945
0.6870230436325073,3.681720733642578,5.934056758880615,4.659999999999945
0.4323851466178894,2.79233455657959,6.728357315063477,4.669999999999945
0.15713128447532654,2.006063461303711,6.840039253234863,4.679999999999945
-0.05133160948753357,1.4088668823242188,5.882299423217773,4.689999999999944
-0.21477822959423065,1.3623638153076172,4.021798610687256,4.699999999999944
-0.1311528980731964,2.83743953704834,2.2522482872009277,4.709999999999944
-0.1341663897037506,5.175551414489746,1.1187796592712402,4.719999999999944
-0.788386881351471,8.288400650024414,-0.017928361892700195,4.729999999999944
-1.455376148223877,11.654279708862305,-1.337536096572876,4.739999999999943
-2.1261444091796875,14.302871704101562,-2.2948477268218994,4.749999999999943
-2.878706693649292,15.764508247375488,-2.411600112915039,4.759999999999943
-3.9770913124084473,14.764615058898926,-2.9118471145629883,4.769999999999943
-4.326554298400879,11.154109001159668,-3.500722885131836,4.7799999999999425
-4.810559272766113,6.57108211517334,-3.560415744781494,4.789999999999942
-5.694520473480225,3.338433265686035,-2.9078850746154785,4.799999999999942
-6.544292449951172,2.0202436447143555,-2.123934745788574,4.809999999999942
-7.1448798179626465,1.8839845657348633,-1.5905582904815674,4.819999999999942
-7.162950038909912,2.0263118743896484,-0.44417691230773926,4.8299999999999415
-6.127967834472656,1.841629981994629,0.882042407989502,4.839999999999941
-4.225577354431152,1.2711725234985352,1.4020771980285645,4.849999999999941
-2.3959412574768066,0.6221942901611328,1.1023821830749512,4.859999999999941
-1.0107176303863525,-0.1699056625366211,0.15503287315368652,4.869999999999941
-0.06263381242752075,-1.0276718139648438,-1.2085564136505127,4.87999999999994
0.13527461886405945,-1.4658584594726562,-2.79402756690979,4.88999999999994
0.03614777326583862,-1.374556064605713,-3.985460042953491,4.89999999999994
0.10774147510528564,-0.9549798965454102,-4.6598052978515625,4.90999999999994
0.3425227999687195,-0.45394039154052734,-5.109067440032959,4.9199999999999395
0.4911664128303528,0.058712005615234375,-5.382619857788086,4.929999999999939
0.4525289535522461,0.4294452667236328,-5.424227714538574,4.939999999999939
0.8565119504928589,0.5504827499389648,-5.235583782196045,4.949999999999939
1.3041115999221802,0.41012096405029297,-4.9720869064331055,4.959999999999939
1.5344388484954834,0.09263324737548828,-4.6436381340026855,4.9699999999999385
1.6670206785202026,-0.19322872161865234,-4.282214164733887,4.979999999999938
1.6489758491516113,-0.4968757629394531,-4.045012474060059,4.989999999999938
1.4796611070632935,-0.5877199172973633,-3.840857982635498,4.999999999999938
1.5591506958007812,-0.4603605270385742,-3.51668643951416,5.009999999999938
1.3856430053710938,-0.16219520568847656,-3.1226165294647217,5.019999999999937
1.014809250831604,0.24949169158935547,-2.5571084022521973,5.029999999999937
0.7337920665740967,0.6070213317871094,-1.8631788492202759,5.039999999999937
0.4392484426498413,0.6445770263671875,-1.1400413513183594,5.049999999999937
0.36779844760894775,0.3978719711303711,-0.5056161880493164,5.0599999999999365
0.253889799118042,-0.09242725372314453,-0.118927001953125,5.069999999999936
0.17648756504058838,-0.665827751159668,-0.03690052032470703,5.079999999999936
0.20226776599884033,-1.2551393508911133,-0.0824742317199707,5.089999999999936
0.21419310569763184,-1.8721323013305664,-0.229752779006958,5.099999999999936
0.1911710500717163,-2.2440381050109863,-0.5820659399032593,5.1099999999999355
0.2964273691177368,-2.5432586669921875,-0.9340006113052368,5.119999999999935
0.5403724908828735,-2.796161651611328,-1.3267942667007446,5.129999999999935
0.5625060796737671,-3.0026683807373047,-1.6896685361862183,5.139999999999935
0.5041826963424683,-3.0981693267822266,-1.8559435606002808,5.149999999999935
0.36511480808258057,-2.9513092041015625,-1.8665202856063843,5.159999999999934
0.2837092876434326,-2.9617185592651367,-1.8530986309051514,5.169999999999934
0.19754326343536377,-2.796884536743164,-1.9447720050811768,5.179999999999934
-0.0035060644149780273,-2.476243019104004,-1.9809399843215942,5.189999999999934
-0.2191779613494873,-2.172262191772461,-2.0161194801330566,5.199999999999934
-0.4879392981529236,-1.6985650062561035,-2.0352160930633545,5.209999999999933
-0.7791640758514404,-1.1223535537719727,-2.099963903427124,5.219999999999933
-0.995466411113739,-0.6685247421264648,-2.119004249572754,5.229999999999933
-1.1023578643798828,-0.37506961822509766,-1.9797877073287964,5.239999999999933
-0.9311833381652832,-0.22502708435058594,-1.665242314338684,5.2499999999999325
-0.7169351577758789,-0.2588462829589844,-1.1993247270584106,5.259999999999932
-0.5314021110534668,-0.45232105255126953,-0.647097110748291,5.269999999999932
-0.3960661292076111,-0.8984718322753906,-0.24314117431640625,5.279999999999932
-0.17925381660461426,-1.305211067199707,0.06732678413391113,5.289999999999932
0.1412646770477295,-1.6535301208496094,0.19581806659698486,5.299999999999931
0.4199836254119873,-1.9459214210510254,0.19976115226745605,5.309999999999931
0.6068930625915527,-1.9337177276611328,0.167161226272583,5.319999999999931
0.8679012060165405,-1.789574146270752,0.2726864814758301,5.329999999999931
0.976669192314148,-1.6308956146240234,-0.0796360969543457,5.339999999999931
1.113381266593933,-1.3573017120361328,-0.418822705745697,5.34999999999993
1.141866683959961,-0.935511589050293,-0.6253187656402588,5.35999999999993
1.0167571306228638,-0.6120452880859375,-0.6559362411499023,5.36999999999993
1.001330852508545,-0.4418001174926758,-0.6496703028678894,5.37999999999993
0.7555429935455322,-0.17827796936035156,-0.5539917945861816,5.3899999999999295
0.5232466459274292,-0.04159259796142578,-0.4307873547077179,5.399999999999929
0.37625062465667725,-0.048381805419921875,-0.28208285570144653,5.409999999999929
0.2883535623550415,-0.17697906494140625,-0.16775494813919067,5.419999999999929
0.17604374885559082,-0.35311317443847656,-0.08102458715438843,5.429999999999929
0.027320265769958496,-0.49062061309814453,-0.05343127250671387,5.4399999999999284
-0.10783302783966064,-0.6254024505615234,0.015476346015930176,5.449999999999928
-0.145982027053833,-0.7120447158813477,0.12607347965240479,5.459999999999928
-0.1949913501739502,-0.8127985000610352,0.17366287112236023,5.469999999999928
-0.16632109880447388,-0.8679018020629883,0.2711602747440338,5.479999999999928
-0.11021912097930908,-0.8965559005737305,0.3518373370170593,5.489999999999927
0.05232417583465576,-0.9418468475341797,0.4062250256538391,5.499999999999927
0.16817891597747803,-1.0133132934570312,0.3506107032299042,5.509999999999927
0.2829238176345825,-1.0559139251708984,0.2205468714237213,5.519999999999927
0.2913781404495239,-1.1055421829223633,0.09691515564918518,5.5299999999999265
0.2796590328216553,-1.0784912109375,-0.029958024621009827,5.539999999999926
0.36971086263656616,-0.9557342529296875,-0.00411437451839447,5.549999999999926
0.5923581123352051,-0.8665018081665039,0.13907086849212646,5.559999999999926
0.7656089067459106,-0.8202953338623047,0.2467932254076004,5.569999999999926
0.8628924489021301,-0.652033805847168,0.22572477161884308,5.5799999999999255
1.1160943508148193,-0.5100917816162109,0.28638550639152527,5.589999999999925
1.2068915367126465,-0.27486515045166016,0.32562416791915894,5.599999999999925
1.3003103733062744,-0.025361061096191406,0.331424355506897,5.609999999999925
1.3006305694580078,0.20972251892089844,0.3683994710445404,5.619999999999925
1.303558349609375,0.32520103454589844,0.5201541781425476,5.629999999999924
1.3163480758666992,0.5148830413818359,0.5014670491218567,5.639999999999924
1.3295246362686157,0.7140789031982422,0.5220707058906555,5.649999999999924
1.3285493850708008,0.9442844390869141,0.6269171833992004,5.659999999999924
1.2919015884399414,1.0810871124267578,0.7270368337631226,5.6699999999999235
1.3581116199493408,1.1987066268920898,0.7480664253234863,5.679999999999923
1.361985445022583,1.280400276184082,0.761570930480957,5.689999999999923
1.4038630723953247,1.3405284881591797,0.7123132348060608,5.699999999999923
1.445263385772705,1.328883171081543,0.6003016829490662,5.709999999999923
1.3806031942367554,1.3077211380004883,0.5165526270866394,5.7199999999999225
1.3796535730361938,1.2172861099243164,0.542893648147583,5.729999999999922
1.4066439867019653,1.1556997299194336,0.701285183429718,5.739999999999922
1.4496521949768066,1.110966682434082,0.8650334477424622,5.749999999999922
1.5302506685256958,1.0328311920166016,0.9145186543464661,5.759999999999922
1.5429680347442627,0.9930715560913086,0.9432384371757507,5.769999999999921
1.655454397201538,1.0681571960449219,0.956384539604187,5.779999999999921
1.6116300821304321,1.150360107421875,0.9590998888015747,5.789999999999921
1.5791490077972412,1.1990509033203125,1.1361212730407715,5.799999999999921
1.6060283184051514,1.1808109283447266,1.3776136636734009,5.809999999999921
1.5991649627685547,1.1817646026611328,1.5205016136169434,5.81999999999992
1.6734793186187744,1.2090082168579102,1.5258824825286865,5.82999999999992
1.7067768573760986,1.1094427108764648,1.5918514728546143,5.83999999999992
1.7850658893585205,0.9549427032470703,1.6535112857818604,5.84999999999992
1.8795006275177002,0.8914127349853516,1.6174107789993286,5.8599999999999195
2.001708984375,0.8469934463500977,1.5169339179992676,5.869999999999919
2.0842278003692627,0.8814334869384766,1.2491493225097656,5.879999999999919
2.214754343032837,1.1309223175048828,0.8523666262626648,5.889999999999919
2.1362428665161133,1.698019027709961,0.5323583483695984,5.899999999999919
2.089683771133423,2.424527168273926,0.3441556990146637,5.909999999999918
1.993719220161438,3.281538963317871,0.3161025941371918,5.919999999999918
1.903701901435852,4.058445930480957,0.2920306622982025,5.929999999999918
1.9203977584838867,4.561610221862793,0.15365839004516602,5.939999999999918
2.0897133350372314,4.626350402832031,0.03641241788864136,5.949999999999918
2.306828260421753,4.499495506286621,-0.08914786577224731,5.959999999999917
2.5482513904571533,4.155007362365723,-0.1829375922679901,5.969999999999917
2.7228803634643555,3.8610267639160156,-0.2645735740661621,5.979999999999917
2.887902021408081,3.572157859802246,-0.34620359539985657,5.989999999999917
3.0145976543426514,3.3745851516723633,-0.6362099647521973,5.9999999999999165
3.046239137649536,3.2420129776000977,-0.9674010276794434,6.009999999999916
2.8186864852905273,2.9856033325195312,-1.356871247291565,6.019999999999916
2.404521942138672,2.689373016357422,-1.6828148365020752,6.029999999999916
1.88383150100708,2.2985620498657227,-1.9952987432479858,6.039999999999916
1.3439741134643555,1.8828125,-2.2218234539031982,6.0499999999999154
0.6303186416625977,1.6120882034301758,-2.3325626850128174,6.059999999999915
-0.029180943965911865,1.445694923400879,-2.350273847579956,6.069999999999915
-0.5292091369628906,1.1659927368164062,-2.230214834213257,6.079999999999915
-1.0495271682739258,1.0289688110351562,-2.0491929054260254,6.089999999999915
-1.4207788705825806,0.78564453125,-1.8451042175292969,6.099999999999914
-1.804039716720581,0.5603437423706055,-1.5518383979797363,6.109999999999914
-2.15212082862854,0.32666683197021484,-1.2413314580917358,6.119999999999914
-2.3991012573242188,0.0894460678100586,-0.8333310484886169,6.129999999999914
-2.581813097000122,-0.10824966430664062,-0.3285295367240906,6.1399999999999135
-2.5690996646881104,-0.10869407653808594,0.30649352073669434,6.149999999999913
-2.627049446105957,-0.0700235366821289,0.8208698034286499,6.159999999999913
-2.6317501068115234,-0.04965686798095703,1.1641602516174316,6.169999999999913
-2.561720848083496,0.06011009216308594,1.4265902042388916,6.179999999999913
-2.4120259284973145,0.09909820556640625,1.592881679534912,6.1899999999999125
-2.225409984588623,0.14399051666259766,1.7296252250671387,6.199999999999912
-1.86236572265625,0.18283843994140625,1.7793879508972168,6.209999999999912
-1.6691832542419434,0.19884490966796875,1.6828758716583252,6.219999999999912
-1.573906421661377,0.2755470275878906,1.4149473905563354,6.229999999999912
-1.4611034393310547,0.539433479309082,0.8974893093109131,6.239999999999911
-1.2002235651016235,0.8228874206542969,0.12561392784118652,6.249999999999911
-0.9451411962509155,1.0853157043457031,-0.7146248817443848,6.259999999999911
-0.5916264057159424,1.3674612045288086,-1.6188879013061523,6.269999999999911
-0.05525892972946167,1.4470701217651367,-2.4466288089752197,6.2799999999999105
0.23712918162345886,1.4777631759643555,-3.1247591972351074,6.28999999999991
0.4613693356513977,1.340407371520996,-3.424708366394043,6.29999999999991
0.5422092080116272,1.0568504333496094,-3.2248406410217285,6.30999999999991
0.5840718746185303,0.7012605667114258,-2.7519478797912598,6.31999999999991
0.5191335678100586,0.19924449920654297,-2.1243832111358643,6.3299999999999095
0.3724384307861328,-0.3036174774169922,-1.4698197841644287,6.339999999999909
0.08004727959632874,-0.7837209701538086,-0.9427714347839355,6.349999999999909
-0.13924676179885864,-1.2749385833740234,-0.5230486392974854,6.359999999999909
-0.3097683787345886,-1.6245884895324707,-0.2361295223236084,6.369999999999909
-0.5484950542449951,-1.8691401481628418,-0.27237677574157715,6.379999999999908
-0.7782436609268188,-2.040152072906494,-0.5137767791748047,6.389999999999908
-0.9120444655418396,-2.2693729400634766,-0.9003851413726807,6.399999999999908
-0.987046480178833,-2.5687265396118164,-1.2028024196624756,6.409999999999908
-1.023972988128662,-3.0074400901794434,-1.4359028339385986,6.419999999999908
-1.0560253858566284,-3.202672004699707,-1.6600573062896729,6.429999999999907
-1.0952614545822144,-3.494309902191162,-1.727137804031372,6.439999999999907
-1.0318340063095093,-3.954030990600586,-1.6828241348266602,6.449999999999907
-1.061867356300354,-4.373538494110107,-1.749953269958496,6.459999999999907
-1.0896952152252197,-4.652456760406494,-1.782684087753296,6.4699999999999065
-1.179936170578003,-4.738152503967285,-1.8725128173828125,6.479999999999906
-1.135934591293335,-4.688270092010498,-1.8449060916900635,6.489999999999906
-1.1854689121246338,-4.484010219573975,-1.6782431602478027,6.499999999999906
-1.2907395362854004,-4.116204738616943,-1.4871437549591064,6.509999999999906
-1.3106768131256104,-3.585326671600342,-1.3357479572296143,6.519999999999905
-1.338518738746643,-3.104641914367676,-1.1757915019989014,6.529999999999905
-1.5222530364990234,-2.9373860359191895,-1.1048755645751953,6.539999999999905
-1.6869492530822754,-3.0166120529174805,-1.0385196208953857,6.549999999999905
-1.8637208938598633,-3.201216697692871,-1.0169188976287842,6.559999999999905
-1.964020848274231,-3.417161464691162,-1.0731515884399414,6.569999999999904
-1.9615250825881958,-3.7626028060913086,-1.1423180103302002,6.579999999999904
-1.957025170326233,-3.988823890686035,-1.1309518814086914,6.589999999999904
-1.8363137245178223,-4.160600185394287,-1.077286720275879,6.599999999999904
-1.6383147239685059,-4.244639873504639,-1.0074198246002197,6.6099999999999035
-1.526039719581604,-4.3892316818237305,-0.9740505218505859,6.619999999999903
-1.4516148567199707,-4.572746276855469,-0.9005825519561768,6.629999999999903
-1.3288766145706177,-4.747239112854004,-0.8277244567871094,6.639999999999903
-1.222358226776123,-4.94364070892334,-0.7149889469146729,6.649999999999903
-1.100855827331543,-5.094704627990723,-0.560375452041626,6.659999999999902
-0.9307975172996521,-5.17628288269043,-0.43845200538635254,6.669999999999902
-0.8511795997619629,-5.08767032623291,-0.2683985233306885,6.679999999999902
-0.7663958072662354,-4.917116641998291,-0.10834908485412598,6.689999999999902
-0.7004581093788147,-4.54707145690918,0.06000971794128418,6.699999999999902
-0.7583944201469421,-4.109085559844971,0.4611799716949463,6.709999999999901
-0.8417813777923584,-3.631805896759033,1.0302114486694336,6.719999999999901
-0.8785427808761597,-3.0600051879882812,1.5488479137420654,6.729999999999901
-0.7821458578109741,-2.4075374603271484,1.9106268882751465,6.739999999999901
-0.46318042278289795,-1.7741069793701172,2.089822292327881,6.7499999999999005
-0.17422907054424286,-1.0940322875976562,2.1674256324768066,6.7599999999999
0.12391769886016846,-0.20101356506347656,2.0129482746124268,6.7699999999999
0.7627578377723694,0.8607702255249023,1.7822585105895996,6.7799999999999
1.6355183124542236,2.3652238845825195,1.5782227516174316,6.7899999999999
2.2073137760162354,3.992717742919922,1.5545694828033447,6.7999999999998995
2.376620292663574,5.695806503295898,2.195129632949829,6.809999999999899
1.9864976406097412,7.017063140869141,3.7452621459960938,6.819999999999899
1.6112449169158936,7.1710615158081055,5.730713844299316,6.829999999999899
1.5399506092071533,6.841000556945801,7.7147932052612305,6.839999999999899
0.9479990005493164,6.676043510437012,9.047471046447754,6.849999999999898
0.48720782995224,6.358794212341309,9.735771179199219,6.859999999999898
0.490173876285553,5.288159370422363,9.904528617858887,6.869999999999898
0.895552933216095,3.356614112854004,9.785284996032715,6.879999999999898
1.6808269023895264,0.5839509963989258,9.400298118591309,6.8899999999998975
2.394240140914917,-2.3135323524475098,8.067327499389648,6.899999999999897
3.0289032459259033,-4.443510055541992,6.240968227386475,6.909999999999897
3.3535196781158447,-6.091407299041748,3.5651602745056152,6.919999999999897
3.258390188217163,-7.372767925262451,0.9164047241210938,6.929999999999897
2.5612034797668457,-7.719307899475098,-1.1278796195983887,6.9399999999998965
2.17834210395813,-6.252718448638916,-1.9690873622894287,6.949999999999896
1.9327759742736816,-3.9905362129211426,-3.949111223220825,6.959999999999896
1.8182501792907715,-1.552384376525879,-6.259692668914795,6.969999999999896
2.0923995971679688,1.2893552780151367,-7.6315765380859375,6.979999999999896
2.122173309326172,4.908572196960449,-7.836193084716797,6.989999999999895
0.5887219905853271,8.618510246276855,-7.555357456207275,6.999999999999895
-2.055476188659668,11.571422576904297,-6.914556503295898,7.009999999999895
-5.052308082580566,13.761981964111328,-5.2390456199646,7.019999999999895
-7.080995559692383,14.327045440673828,-3.732731819152832,7.0299999999998946
-7.035914421081543,13.497895240783691,-2.2749452590942383,7.039999999999894
-6.3193559646606445,12.11409854888916,-0.612095832824707,7.049999999999894
-6.390624046325684,11.501481056213379,0.5141911506652832,7.059999999999894
-7.210028171539307,12.24246597290039,-0.38816237449645996,7.069999999999894
-8.210007667541504,13.113539695739746,-1.3802235126495361,7.0799999999998935
-7.268893718719482,12.652249336242676,-0.27154111862182617,7.089999999999893
-5.573862552642822,10.60263442993164,1.5256726741790771,7.099999999999893
-4.16433048248291,7.773690223693848,2.3522167205810547,7.109999999999893
-3.1088335514068604,4.710332870483398,1.843980073928833,7.119999999999893
-2.9109017848968506,1.5813617706298828,0.25511932373046875,7.129999999999892
-2.643881320953369,-1.5033578872680664,-1.7505664825439453,7.139999999999892
-2.2010040283203125,-3.787848949432373,-3.818660020828247,7.149999999999892
-1.603907823562622,-4.769848346710205,-5.343475341796875,7.159999999999892
-1.2745625972747803,-4.163957118988037,-6.059460639953613,7.169999999999892
-1.6171057224273682,-2.93984317779541,-5.754173755645752,7.179999999999891
-1.5382732152938843,-2.232027053833008,-5.326939582824707,7.189999999999891
-1.117201805114746,-1.9187803268432617,-5.206026554107666,7.199999999999891
-0.5644489526748657,-1.7475309371948242,-5.131575107574463,7.209999999999891
0.19196614623069763,-1.6264877319335938,-4.941377639770508,7.2199999999998905
0.9058114290237427,-1.6525206565856934,-4.796961307525635,7.22999999999989
1.4683793783187866,-1.7807254791259766,-4.777312278747559,7.23999999999989
1.8389248847961426,-1.8532791137695312,-4.888549327850342,7.24999999999989
2.173933982849121,-1.6954855918884277,-4.85301399230957,7.25999999999989
2.1713602542877197,-1.3334522247314453,-4.798171520233154,7.269999999999889
1.85988187789917,-0.680546760559082,-4.89055871963501,7.279999999999889
1.369157314300537,0.15627288818359375,-5.005635738372803,7.289999999999889
0.9769359827041626,0.9362993240356445,-4.940554141998291,7.299999999999889
0.6148635149002075,1.5935821533203125,-4.590662956237793,7.309999999999889
0.45004236698150635,1.8946237564086914,-3.908115863800049,7.319999999999888
0.527193009853363,1.8307666778564453,-3.0168206691741943,7.329999999999888
0.7189900875091553,1.6109180450439453,-2.1147656440734863,7.339999999999888
0.8700892925262451,1.2427501678466797,-1.3829265832901,7.349999999999888
0.9112432599067688,0.7936210632324219,-0.8369220495223999,7.3599999999998875
0.8400949239730835,0.2756462097167969,-0.42963218688964844,7.369999999999887
0.7358567118644714,-0.39012813568115234,-0.19230985641479492,7.379999999999887
0.5819575190544128,-0.9957666397094727,-0.11726617813110352,7.389999999999887
0.402393102645874,-1.6134405136108398,-0.09346842765808105,7.399999999999887
0.22872686386108398,-2.272230625152588,-0.1605358123779297,7.4099999999998865
-8.107423782348633E-4,-2.8528709411621094,-0.28401660919189453,7.419999999999886
-0.29971712827682495,-3.4204788208007812,-0.43143558502197266,7.429999999999886
-0.667460024356842,-4.032822608947754,-0.7641363143920898,7.439999999999886
-0.9870722889900208,-4.443655490875244,-1.0949153900146484,7.449999999999886
-1.1083908081054688,-4.4189677238464355,-1.2845964431762695,7.459999999999885
-1.0896939039230347,-4.0023908615112305,-1.3614516258239746,7.469999999999885
-1.0253180265426636,-3.2732372283935547,-1.6100218296051025,7.479999999999885
-0.7584537267684937,-2.3584842681884766,-1.9704561233520508,7.489999999999885
-0.42679673433303833,-1.497361183166504,-2.3325116634368896,7.4999999999998845
-0.1300695538520813,-0.6156978607177734,-2.135587453842163,7.509999999999884
0.18793082237243652,-0.06977081298828125,-2.003805637359619,7.519999999999884
0.5242032408714294,0.2030496597290039,-1.8124897480010986,7.529999999999884
0.8691051006317139,0.20795726776123047,-1.6743162870407104,7.539999999999884
1.1412701606750488,0.1318674087524414,-1.3527253866195679,7.5499999999998835
1.3914647102355957,-0.04902935028076172,-0.9772109985351562,7.559999999999883
1.3856403827667236,-0.2771625518798828,-0.5768316984176636,7.569999999999883
1.2943012714385986,-0.4281740188598633,-0.17062222957611084,7.579999999999883
1.4455760717391968,-0.6814975738525391,0.05482017993927002,7.589999999999883
1.660385012626648,-0.9173955917358398,0.12775945663452148,7.599999999999882
1.6638696193695068,-1.1453666687011719,0.21978259086608887,7.609999999999882
1.7652015686035156,-1.2315149307250977,0.3878234624862671,7.619999999999882
1.7445909976959229,-1.2286396026611328,0.5119932889938354,7.629999999999882
1.7051478624343872,-1.1942758560180664,0.4800499677658081,7.6399999999998816
1.6901581287384033,-1.2217302322387695,0.46652811765670776,7.649999999999881
1.5803385972976685,-1.0957746505737305,0.46662330627441406,7.659999999999881
1.3286491632461548,-1.0031700134277344,0.4010828733444214,7.669999999999881
1.0529427528381348,-1.0036897659301758,0.2718791365623474,7.679999999999881
0.8181463479995728,-0.9585790634155273,0.13856542110443115,7.6899999999998805
0.6842032670974731,-0.9468193054199219,0.048413872718811035,7.69999999999988
0.4784109592437744,-0.8559770584106445,0.027647316455841064,7.70999999999988
0.36304771900177,-0.7554960250854492,0.09076321125030518,7.71999999999988
0.24458396434783936,-0.5234642028808594,0.11351269483566284,7.72999999999988
0.15363502502441406,-0.2628469467163086,0.20136100053787231,7.739999999999879
0.08977162837982178,-0.0956277847290039,0.3953564465045929,7.749999999999879
0.14149785041809082,-0.026506423950195312,0.6908320188522339,7.759999999999879
0.19390618801116943,-0.08886528015136719,0.9924085140228271,7.769999999999879
0.1752941608428955,-0.1725625991821289,1.1710352897644043,7.779999999999879
0.22219431400299072,-0.3517169952392578,1.2627066373825073,7.789999999999878
0.260583758354187,-0.523411750793457,1.324790120124817,7.799999999999878
0.15188491344451904,-0.8311347961425781,1.3189024925231934,7.809999999999878
0.300783634185791,-1.023697853088379,1.2499971389770508,7.819999999999878
0.40108364820480347,-1.2806015014648438,1.202260136604309,7.8299999999998775
0.4646337032318115,-1.3913393020629883,1.142881155014038,7.839999999999877
0.5440092086791992,-1.411076545715332,1.1540406942367554,7.849999999999877
0.6366616487503052,-1.2275152206420898,1.0662808418273926,7.859999999999877
0.6825367212295532,-1.0201902389526367,1.006572961807251,7.869999999999877
0.8298198580741882,-0.8034400939941406,1.0297411680221558,7.879999999999876
0.9609752893447876,-0.4744138717651367,1.1591626405715942,7.889999999999876
1.1118288040161133,-0.2843017578125,1.2580000162124634,7.899999999999876
1.1626620292663574,-0.14205646514892578,1.327871561050415,7.909999999999876
1.1780788898468018,-0.06675052642822266,1.3393317461013794,7.919999999999876
1.1365821361541748,0.0038433074951171875,1.3060855865478516,7.929999999999875
1.088411569595337,0.07926559448242188,1.2730116844177246,7.939999999999875
0.9378810524940491,0.06622791290283203,1.2253577709197998,7.949999999999875
0.866690993309021,0.14655017852783203,1.2563703060150146,7.959999999999875
0.7862547636032104,0.25314998626708984,1.2585748434066772,7.9699999999998745
0.7370992302894592,0.40033912658691406,1.2657458782196045,7.979999999999874
0.7381621599197388,0.6287174224853516,1.278076410293579,7.989999999999874
