AccX,AccY,AccZ,SampleRate
0.03499925136566162,-0.6086521148681641,0.4258716106414795,0
0.11955749988555908,-0.44306278228759766,0.40468430519104004,0.01
0.11773085594177246,-0.3061180114746094,0.4446195363998413,0.02
0.2641866207122803,-0.1954507827758789,0.572288453578949,0.03
0.257082462310791,-0.14446640014648438,0.5843136310577393,0.04
0.3331723213195801,-0.1435079574584961,0.5619964599609375,0.05
0.442065954208374,-0.04665851593017578,0.44795212149620056,0.060000000000000005
0.5045261383056641,-0.10507869720458984,0.30685484409332275,0.07
0.5633021593093872,-0.2611675262451172,0.09101468324661255,0.08
0.6659369468688965,-0.42153263092041016,-0.12050408124923706,0.09
0.7238336801528931,-0.4594411849975586,-0.31104138493537903,0.09999999999999999
0.7490034103393555,-0.4252796173095703,-0.3824588656425476,0.10999999999999999
0.7463392019271851,-0.2546062469482422,-0.3105080723762512,0.11999999999999998
0.6658539772033691,-0.03849220275878906,-0.22636443376541138,0.12999999999999998
0.5295480489730835,0.17274761199951172,-0.15868908166885376,0.13999999999999999
0.33784687519073486,0.2858295440673828,-0.11472860723733902,0.15
0.24665415287017822,0.45386314392089844,-0.03227648138999939,0.16
0.144073486328125,0.6456365585327148,0.10996950417757034,0.17
0.06635475158691406,0.7773942947387695,0.18239690363407135,0.18000000000000002
0.035123467445373535,0.8037710189819336,0.323453813791275,0.19000000000000003
-0.042936086654663086,0.7081584930419922,0.42536816000938416,0.20000000000000004
-0.09570711851119995,0.7465219497680664,0.42840576171875,0.21000000000000005
-0.13995301723480225,0.9784736633300781,0.4548152983188629,0.22000000000000006
-0.1613001823425293,1.2626972198486328,0.6125884652137756,0.23000000000000007
-0.12126755714416504,1.5608539581298828,0.8494119048118591,0.24000000000000007
0.05681025981903076,1.7581443786621094,1.0479234457015991,0.25000000000000006
0.2386993169784546,1.8045015335083008,1.2221121788024902,0.26000000000000006
0.4647565484046936,1.829263687133789,1.2666469812393188,0.2700000000000001
0.7681233882904053,1.7440176010131836,1.5475519895553589,0.2800000000000001
1.2319797277450562,1.6708793640136719,1.7843605279922485,0.2900000000000001
1.7789424657821655,1.6385555267333984,1.8877979516983032,0.3000000000000001
2.3052666187286377,1.7402896881103516,1.9699451923370361,0.3100000000000001
2.7813680171966553,1.9807415008544922,2.0449721813201904,0.3200000000000001
3.35971999168396,2.3334646224975586,2.1633622646331787,0.3300000000000001
3.741102933883667,2.614203453063965,2.2104806900024414,0.34000000000000014
4.136322021484375,2.846923828125,2.1623294353485107,0.35000000000000014
4.4762115478515625,2.9551124572753906,1.9009838104248047,0.36000000000000015
4.69150972366333,3.0393028259277344,1.4207775592803955,0.37000000000000016
4.837499141693115,3.1449098587036133,0.921878457069397,0.38000000000000017
4.844523906707764,3.353219985961914,0.5259478688240051,0.3900000000000002
4.7791547775268555,3.5493831634521484,0.2808433175086975,0.4000000000000002
4.679607391357422,3.7525854110717773,0.13678757846355438,0.4100000000000002
4.51727294921875,3.797870635986328,0.06078873574733734,0.4200000000000002
4.390313148498535,3.5682926177978516,-0.13142703473567963,0.4300000000000002
4.291701316833496,3.1957168579101562,-0.3278767168521881,0.4400000000000002
3.9826831817626953,2.7305421829223633,-0.5747333765029907,0.45000000000000023
3.696040630340576,2.39047908782959,-0.7123608589172363,0.46000000000000024
3.2738921642303467,1.9315500259399414,-0.7846300601959229,0.47000000000000025
2.8170485496520996,1.5309257507324219,-0.8543846607208252,0.48000000000000026
2.307049036026001,1.260331153869629,-1.0634523630142212,0.49000000000000027
1.797623872756958,1.0957565307617188,-1.4436222314834595,0.5000000000000002
1.3542704582214355,0.8913183212280273,-1.9382911920547485,0.5100000000000002
0.9349992275238037,0.6256828308105469,-2.42374849319458,0.5200000000000002
0.4309474229812622,0.44733619689941406,-2.8045268058776855,0.5300000000000002
-0.2025313377380371,0.2774696350097656,-3.101649045944214,0.5400000000000003
-0.8666923642158508,0.0731964111328125,-3.181976079940796,0.5500000000000003
-1.6018182039260864,-0.04578399658203125,-3.0722079277038574,0.5600000000000003
-2.2761309146881104,-0.16084957122802734,-2.7990264892578125,0.5700000000000003
-2.8823418617248535,-0.27677249908447266,-2.4712047576904297,0.5800000000000003
-3.327014446258545,-0.3815889358520508,-2.0544896125793457,0.5900000000000003
-3.725667715072632,-0.3892345428466797,-1.5046788454055786,0.6000000000000003
-3.897825002670288,-0.3238840103149414,-0.8794606924057007,0.6100000000000003
-4.024852275848389,-0.013703346252441406,-0.34161627292633057,0.6200000000000003
-4.035044193267822,0.41641902923583984,0.1299598217010498,0.6300000000000003
-3.880549907684326,0.8990993499755859,0.4721207618713379,0.6400000000000003
-3.5102498531341553,1.3645553588867188,0.609565258026123,0.6500000000000004
-3.011317491531372,1.7120552062988281,0.5358046293258667,0.6600000000000004
-2.6117146015167236,1.9536161422729492,0.19533228874206543,0.6700000000000004
-2.4310009479522705,2.2210912704467773,-0.33234310150146484,0.6800000000000004
-2.390929937362671,2.3740386962890625,-0.8360192775726318,0.6900000000000004
-2.2954225540161133,2.375242233276367,-1.181870937347412,0.7000000000000004
-2.1330361366271973,2.368968963623047,-1.2485564947128296,0.7100000000000004
-2.0419042110443115,2.209674835205078,-1.013245940208435,0.7200000000000004
-1.9740207195281982,2.227604866027832,-0.6121324300765991,0.7300000000000004
-1.7253578901290894,2.3004026412963867,-0.1684861183166504,0.7400000000000004
-1.3766343593597412,2.365365982055664,0.20973610877990723,0.7500000000000004
-1.0881255865097046,2.4029455184936523,0.3140432834625244,0.7600000000000005
-0.8483656644821167,2.4989213943481445,0.15809011459350586,0.7700000000000005
-0.6966567039489746,2.4426393508911133,-0.3407461643218994,0.7800000000000005
-0.571481466293335,2.183995246887207,-0.9761238098144531,0.7900000000000005
-0.41290730237960815,1.9121513366699219,-1.693081021308899,0.8000000000000005
-0.43427345156669617,1.713181495666504,-2.180637836456299,0.8100000000000005
-0.20279598236083984,1.3215208053588867,-2.45572566986084,0.8200000000000005
-0.13769006729125977,0.8689565658569336,-2.6263315677642822,0.8300000000000005
-0.08810895681381226,0.35793209075927734,-2.668708562850952,0.8400000000000005
0.07748013734817505,-0.2521381378173828,-2.764784336090088,0.8500000000000005
0.27751100063323975,-0.8872642517089844,-2.7082886695861816,0.8600000000000005
0.35396140813827515,-1.4305853843688965,-2.5513176918029785,0.8700000000000006
0.28495603799819946,-2.054790496826172,-2.3050780296325684,0.8800000000000006
0.19735586643218994,-2.535527229309082,-1.9926576614379883,0.8900000000000006
0.045934200286865234,-3.172288417816162,-1.7593622207641602,0.9000000000000006
-0.08472311496734619,-3.7572479248046875,-1.602276086807251,0.9100000000000006
-0.2008189857006073,-4.305126667022705,-1.597625494003296,0.9200000000000006
-0.20053118467330933,-5.024202346801758,-1.6735777854919434,0.9300000000000006
-0.31417933106422424,-5.95975399017334,-1.8495776653289795,0.9400000000000006
-0.452336847782135,-6.611786365509033,-2.075608015060425,0.9500000000000006
-0.6248244047164917,-7.164592742919922,-2.309074878692627,0.9600000000000006
-0.702430248260498,-7.2668352127075195,-2.2631418704986572,0.9700000000000006
-0.975149929523468,-6.632412433624268,-2.193554162979126,0.9800000000000006
-0.8244202136993408,-5.649768352508545,-2.0761208534240723,0.9900000000000007
-0.7139531373977661,-4.524995803833008,-1.874915599822998,1.0000000000000007
-0.5999719500541687,-3.5905051231384277,-1.6499834060668945,1.0100000000000007
-0.5573083758354187,-2.8578124046325684,-1.4471986293792725,1.0200000000000007
-0.6140997409820557,-2.5014872550964355,-1.368992805480957,1.0300000000000007
-0.7221707701683044,-2.303676128387451,-1.3168997764587402,1.0400000000000007
-0.8405203819274902,-2.3000998497009277,-1.2932629585266113,1.0500000000000007
-1.119152545928955,-2.5885252952575684,-1.365147590637207,1.0600000000000007
-1.2854835987091064,-2.8051419258117676,-1.3889470100402832,1.0700000000000007
-1.3446563482284546,-2.976473331451416,-1.3453168869018555,1.0800000000000007
-1.418809175491333,-3.119278907775879,-1.318058967590332,1.0900000000000007
-1.3339558839797974,-3.412902355194092,-1.2616541385650635,1.1000000000000008
-1.3227039575576782,-3.7423343658447266,-1.2215416431427002,1.1100000000000008
-1.3540788888931274,-4.054849147796631,-1.1403388977050781,1.1200000000000008
-1.3659290075302124,-4.266741752624512,-0.9797825813293457,1.1300000000000008
-1.4086048603057861,-4.468941688537598,-0.7734074592590332,1.1400000000000008
-1.4462007284164429,-4.58485221862793,-0.4806244373321533,1.1500000000000008
-1.3902111053466797,-4.676721572875977,-0.12292337417602539,1.1600000000000008
-1.4105312824249268,-4.713439464569092,0.2543044090270996,1.1700000000000008
-1.4423789978027344,-4.764184951782227,0.5551662445068359,1.1800000000000008
-1.3828729391098022,-4.692348957061768,0.8129005432128906,1.1900000000000008
-1.3513880968093872,-4.514438152313232,0.9935250282287598,1.2000000000000008
-1.347879409790039,-4.268476486206055,1.1898794174194336,1.2100000000000009
-1.4580981731414795,-3.8799853324890137,1.362938404083252,1.2200000000000009
-1.3681070804595947,-3.4777631759643555,1.595445156097412,1.2300000000000009
-1.2138181924819946,-3.0468835830688477,1.85731840133667,1.2400000000000009
-0.846271276473999,-2.5674524307250977,2.1393818855285645,1.2500000000000009
-0.2986457049846649,-2.028560161590576,2.0410921573638916,1.260000000000001
0.36282116174697876,-1.2397527694702148,1.694676399230957,1.270000000000001
1.1437633037567139,-0.14717483520507812,1.1483452320098877,1.280000000000001
2.0918643474578857,1.673243522644043,0.7834882736206055,1.290000000000001
2.8797531127929688,4.209576606750488,0.6761012077331543,1.300000000000001
3.3700332641601562,7.262581825256348,1.2012922763824463,1.310000000000001
2.649282932281494,10.043989181518555,2.4549620151519775,1.320000000000001
0.9569408297538757,11.54533576965332,4.772666931152344,1.330000000000001
0.16591250896453857,10.838004112243652,6.911269187927246,1.340000000000001
-0.2831495702266693,9.450989723205566,8.049890518188477,1.350000000000001
-0.8208814859390259,8.269227981567383,8.027849197387695,1.360000000000001
-0.8637211322784424,7.08662223815918,7.3954877853393555,1.370000000000001
-0.6213737726211548,5.504142761230469,6.588945388793945,1.380000000000001
-0.46099311113357544,3.413508415222168,5.186748504638672,1.390000000000001
0.16353672742843628,1.3233137130737305,3.6511008739471436,1.400000000000001
1.069534182548523,0.39081478118896484,2.4270315170288086,1.410000000000001
1.1482818126678467,1.412912368774414,1.4061708450317383,1.420000000000001
0.8853923678398132,3.533397674560547,0.03398609161376953,1.430000000000001
0.5021747350692749,5.719679832458496,-2.1159560680389404,1.440000000000001
0.056834518909454346,7.231908798217773,-3.7677001953125,1.450000000000001
-0.2633853554725647,7.988293647766113,-4.242555141448975,1.460000000000001
-0.7091161012649536,7.410098075866699,-4.251029968261719,1.470000000000001
-1.7723102569580078,6.288529396057129,-4.283366680145264,1.480000000000001
-3.178605318069458,5.135894775390625,-4.433536052703857,1.490000000000001
-4.87607479095459,4.4112091064453125,-4.348700046539307,1.500000000000001
-6.63873815536499,4.172390937805176,-4.451331615447998,1.5100000000000011
-7.747003078460693,4.694902420043945,-4.3023152351379395,1.5200000000000011
-7.595541954040527,5.229057312011719,-2.8230323791503906,1.5300000000000011
-5.9746479988098145,5.021446228027344,-0.26450085639953613,1.5400000000000011
-4.408888816833496,3.9744205474853516,0.9669594764709473,1.5500000000000012
-3.044650077819824,2.517547607421875,1.10819673538208,1.5600000000000012
-2.5145368576049805,1.066554069519043,0.31169915199279785,1.5700000000000012
-2.7382068634033203,-0.24828624725341797,-1.1798691749572754,1.5800000000000012
-2.9171061515808105,-1.1240782737731934,-2.564324378967285,1.5900000000000012
-3.119962692260742,-1.6149044036865234,-3.293449878692627,1.6000000000000012
-2.9385156631469727,-1.7553319931030273,-3.4273228645324707,1.6100000000000012
-2.4244072437286377,-1.563910961151123,-3.341867208480835,1.6200000000000012
-1.798039197921753,-1.0360641479492188,-3.2980241775512695,1.6300000000000012
-0.9394185543060303,-0.42113780975341797,-3.395172595977783,1.6400000000000012
0.04525423049926758,0.1630697250366211,-3.571798324584961,1.6500000000000012
0.8705165386199951,0.5390520095825195,-3.75419282913208,1.6600000000000013
1.3748540878295898,0.5512685775756836,-4.038728713989258,1.6700000000000013
1.7394955158233643,0.3053436279296875,-4.326411247253418,1.6800000000000013
2.065796375274658,-0.17395877838134766,-4.814186096191406,1.6900000000000013
2.0636935234069824,-0.6127471923828125,-5.214990615844727,1.7000000000000013
1.81069016456604,-0.7611608505249023,-5.657099723815918,1.7100000000000013
1.317628026008606,-0.5133743286132812,-5.747316360473633,1.7200000000000013
0.5753616094589233,-0.0702667236328125,-5.486268997192383,1.7300000000000013
-0.16405951976776123,0.34797191619873047,-4.837080001831055,1.7400000000000013
-0.7602158784866333,0.6307411193847656,-3.6647257804870605,1.7500000000000013
-1.052706241607666,0.5383415222167969,-2.361673355102539,1.7600000000000013
-1.1731311082839966,0.08754348754882812,-1.2656207084655762,1.7700000000000014
-1.1161524057388306,-0.608922004699707,-0.5786426067352295,1.7800000000000014
-0.9758710265159607,-1.3234539031982422,-0.2621479034423828,1.7900000000000014
-0.8150003552436829,-2.0867133140563965,-0.24275422096252441,1.8000000000000014
-0.6459105014801025,-2.759648323059082,-0.35608577728271484,1.8100000000000014
-0.3584277033805847,-3.3159170150756836,-0.545326828956604,1.8200000000000014
-0.03838694095611572,-3.684009075164795,-0.7028039693832397,1.8300000000000014
0.12567472457885742,-3.7136969566345215,-0.8903554677963257,1.8400000000000014
0.21560931205749512,-3.549065589904785,-1.0643991231918335,1.8500000000000014
0.27713799476623535,-3.063793659210205,-1.360748529434204,1.8600000000000014
0.3940788507461548,-2.3084702491760254,-1.8631325960159302,1.8700000000000014
0.3486441373825073,-1.4986028671264648,-2.205570936203003,1.8800000000000014
0.15756261348724365,-0.7896480560302734,-2.6035561561584473,1.8900000000000015
0.026091337203979492,-0.11688804626464844,-2.7532472610473633,1.9000000000000015
-0.1871398687362671,0.2542753219604492,-2.8173115253448486,1.9100000000000015
-0.3196280002593994,0.42457008361816406,-2.7021594047546387,1.9200000000000015
-0.45526570081710815,0.41570186614990234,-2.4196081161499023,1.9300000000000015
-0.5244750380516052,0.30197715759277344,-2.153886318206787,1.9400000000000015
-0.5295407176017761,-0.1054220199584961,-1.947861671447754,1.9500000000000015
-0.551655650138855,-0.3423032760620117,-1.8108490705490112,1.9600000000000015
-0.37765514850616455,-0.5236997604370117,-1.6183600425720215,1.9700000000000015
-0.1414738893508911,-0.7643871307373047,-1.3303139209747314,1.9800000000000015
0.049456119537353516,-1.1358890533447266,-1.010010004043579,1.9900000000000015
0.15217995643615723,-1.260232925415039,-0.6433698534965515,2.0000000000000013
0.2605102062225342,-1.2549753189086914,-0.4408921003341675,2.010000000000001
0.3007241487503052,-1.1729927062988281,-0.45238733291625977,2.020000000000001
0.36885643005371094,-1.0168476104736328,-0.5268403887748718,2.0300000000000007
0.574917197227478,-1.0927143096923828,-0.6235759258270264,2.0400000000000005
0.7874093055725098,-1.032118797302246,-0.6253696084022522,2.0500000000000003
0.8962893486022949,-0.9189252853393555,-0.6471688151359558,2.06
1.105031967163086,-0.937291145324707,-0.7275843024253845,2.07
1.1289892196655273,-0.9268226623535156,-0.9530582427978516,2.0799999999999996
0.8914604187011719,-0.9257955551147461,-1.1892807483673096,2.0899999999999994
0.773127555847168,-0.9104394912719727,-1.1531800031661987,2.099999999999999
0.7118589878082275,-1.0004987716674805,-0.8437901735305786,2.109999999999999
0.8293962478637695,-1.2580757141113281,-0.7244805097579956,2.1199999999999988
0.8189539909362793,-1.4388999938964844,-0.7478744983673096,2.1299999999999986
0.8213289976119995,-1.6170692443847656,-0.7947357892990112,2.1399999999999983
0.9314554929733276,-1.596419334411621,-0.7836164236068726,2.149999999999998
0.9286701679229736,-1.391526222229004,-0.7808118462562561,2.159999999999998
0.8872785568237305,-1.2441768646240234,-0.7496355175971985,2.1699999999999977
0.7717475891113281,-0.8936519622802734,-0.7311217784881592,2.1799999999999975
0.6516550779342651,-0.6246824264526367,-0.656688928604126,2.1899999999999973
0.5201758146286011,-0.4754066467285156,-0.5009357929229736,2.199999999999997
0.4089393615722656,-0.4456968307495117,-0.30056872963905334,2.209999999999997
0.3011596202850342,-0.5066814422607422,-0.19255417585372925,2.2199999999999966
0.24256563186645508,-0.5698280334472656,-0.03822094202041626,2.2299999999999964
0.12790751457214355,-0.5371160507202148,0.047620415687561035,2.239999999999996
0.1318676471710205,-0.45412731170654297,0.1464335322380066,2.249999999999996
0.17792367935180664,-0.2898702621459961,0.20570647716522217,2.259999999999996
0.13918960094451904,-0.27161216735839844,0.2761021554470062,2.2699999999999956
0.05614662170410156,-0.24131393432617188,0.19462144374847412,2.2799999999999954
0.04351019859313965,-0.1870250701904297,0.042484015226364136,2.289999999999995
0.16587090492248535,-0.21401596069335938,0.11427925527095795,2.299999999999995
0.12423598766326904,-0.24091243743896484,0.2596921920776367,2.3099999999999947
0.18661832809448242,-0.18402671813964844,0.3498295545578003,2.3199999999999945
0.17352521419525146,-0.1414957046508789,0.39207330346107483,2.3299999999999943
0.21192634105682373,-0.024834632873535156,0.4078596532344818,2.339999999999994
0.2681037187576294,0.0032968521118164062,0.4594222903251648,2.349999999999994
0.40644800662994385,0.09605979919433594,0.48666396737098694,2.3599999999999937
0.5477842092514038,0.24622058868408203,0.49895960092544556,2.3699999999999934
0.6797567009925842,0.4824371337890625,0.5175285935401917,2.3799999999999932
0.7856511473655701,0.7089471817016602,0.5971361398696899,2.389999999999993
0.9178789854049683,0.9735927581787109,0.6225361824035645,2.399999999999993
1.0403910875320435,1.1711101531982422,0.6676758527755737,2.4099999999999926
1.13376784324646,1.3350696563720703,0.737282395362854,2.4199999999999924
1.1858477592468262,1.412907600402832,0.6829692721366882,2.429999999999992
1.2923542261123657,1.4620981216430664,0.5982667207717896,2.439999999999992
1.3936023712158203,1.4683046340942383,0.5479409694671631,2.4499999999999917
1.4083919525146484,1.4028739929199219,0.5536761283874512,2.4599999999999915
1.3797211647033691,1.363936424255371,0.5390646457672119,2.4699999999999913
1.3626160621643066,1.3179826736450195,0.6119998693466187,2.479999999999991
1.3665943145751953,1.3798036575317383,0.746475100517273,2.489999999999991
1.357956886291504,1.4392948150634766,0.9809728264808655,2.4999999999999907
1.504349946975708,1.4390525817871094,1.3131694793701172,2.5099999999999905
1.7508809566497803,1.4149951934814453,1.5826634168624878,2.5199999999999902
1.956329584121704,1.309737205505371,1.7220606803894043,2.52999999999999
2.211378812789917,1.2596635818481445,1.8004320859909058,2.53999999999999
2.462968349456787,1.2551374435424805,1.7912012338638306,2.5499999999999896
2.7826614379882812,1.210012435913086,1.7852137088775635,2.5599999999999894
2.971662759780884,1.2319374084472656,1.753713846206665,2.569999999999989
3.144998073577881,1.256265640258789,1.7758612632751465,2.579999999999989
3.247748851776123,1.3618803024291992,1.7797801494598389,2.5899999999999888
3.27778959274292,1.5223312377929688,1.7147668600082397,2.5999999999999885
3.3071136474609375,1.689692497253418,1.7383761405944824,2.6099999999999883
3.1229095458984375,1.7993669509887695,1.7831443548202515,2.619999999999988
3.072279930114746,1.896834373474121,1.8631763458251953,2.629999999999988
2.949784517288208,1.852956771850586,1.8442530632019043,2.6399999999999877
2.812837600708008,1.8830842971801758,1.6827876567840576,2.6499999999999875
2.7973783016204834,1.8818960189819336,1.421226978302002,2.6599999999999873
2.759549617767334,1.913996696472168,1.2481789588928223,2.669999999999987
2.789763927459717,1.998509407043457,1.046150803565979,2.679999999999987
2.7129318714141846,2.233448028564453,0.8772387504577637,2.6899999999999866
2.6505045890808105,2.625864028930664,0.6410048604011536,2.6999999999999864
2.6357321739196777,3.0130252838134766,0.421255499124527,2.709999999999986
2.503321647644043,3.0124120712280273,0.07873760163784027,2.719999999999986
2.4303441047668457,2.894754409790039,-0.3704666197299957,2.7299999999999858
2.3976240158081055,2.665066719055176,-0.8241654634475708,2.7399999999999856
2.2974631786346436,2.392949104309082,-1.3046085834503174,2.7499999999999853
2.0848755836486816,2.1766357421875,-1.6780370473861694,2.759999999999985
1.8151894807815552,1.8655986785888672,-1.8676416873931885,2.769999999999985
1.5103673934936523,1.4218721389770508,-1.980232834815979,2.7799999999999847
1.0824357271194458,0.9055643081665039,-2.2524304389953613,2.7899999999999845
0.6735237240791321,0.43170166015625,-2.6964974403381348,2.7999999999999843
0.1485106348991394,0.0745382308959961,-3.0953383445739746,2.809999999999984
-0.36417198181152344,-0.23047542572021484,-3.173792839050293,2.819999999999984
-1.0282089710235596,-0.3494129180908203,-2.7632205486297607,2.8299999999999836
-1.6576474905014038,-0.5073413848876953,-2.184382915496826,2.8399999999999834
-2.2799835205078125,-0.6493558883666992,-1.6478989124298096,2.849999999999983
-2.978154182434082,-0.6488990783691406,-1.2094473838806152,2.859999999999983
-3.5753021240234375,-0.5302619934082031,-0.7402328848838806,2.869999999999983
-4.080479621887207,-0.38948631286621094,-0.2810251712799072,2.8799999999999826
-4.223400115966797,-0.2770986557006836,0.19871151447296143,2.8899999999999824
-4.287155628204346,-0.08796405792236328,0.5078853368759155,2.899999999999982
-3.9411964416503906,0.31888675689697266,0.7247182130813599,2.909999999999982
-3.4956612586975098,0.7926406860351562,0.8669639825820923,2.9199999999999817
-3.052464485168457,1.3190574645996094,0.9091570377349854,2.9299999999999815
-2.5698678493499756,1.7285051345825195,0.9050284624099731,2.9399999999999813
-2.2108640670776367,1.9448328018188477,0.8269840478897095,2.949999999999981
-2.0339784622192383,2.0976057052612305,0.7193303108215332,2.959999999999981
-2.0541069507598877,2.1679515838623047,0.6505393981933594,2.9699999999999807
-2.207247257232666,2.175182342529297,0.5556962490081787,2.9799999999999804
-2.302795648574829,2.1503963470458984,0.432811975479126,2.9899999999999802
-2.425769090652466,2.162838935852051,0.22040271759033203,2.99999999999998
-2.594569444656372,2.169276237487793,-0.049713850021362305,3.00999999999998
-2.5719738006591797,2.1697072982788086,-0.4586918354034424,3.0199999999999796
-2.437039375305176,2.305384635925293,-0.9614524841308594,3.0299999999999794
-1.7941193580627441,2.2008466720581055,-1.2976341247558594,3.039999999999979
-1.3567135334014893,1.9448366165161133,-1.5699212551116943,3.049999999999979
-1.1314582824707031,1.8241033554077148,-1.6812188625335693,3.0599999999999787
-0.8723263740539551,1.8735322952270508,-1.7940120697021484,3.0699999999999785
-0.28686627745628357,2.0256547927856445,-2.108428955078125,3.0799999999999783
0.1300864815711975,1.80487060546875,-2.408055067062378,3.089999999999978
0.20703378319740295,1.101792335510254,-2.435286521911621,3.099999999999978
0.13520726561546326,0.3687562942504883,-2.1661412715911865,3.1099999999999777
-0.02838793396949768,-0.23200225830078125,-1.7626538276672363,3.1199999999999775
-0.054457396268844604,-0.8681678771972656,-1.583465576171875,3.1299999999999772
0.015941739082336426,-1.5110297203063965,-1.3988473415374756,3.139999999999977
0.2211301028728485,-2.234910011291504,-1.1774044036865234,3.149999999999977
0.3247167468070984,-2.7291407585144043,-1.1267616748809814,3.1599999999999766
0.11918893456459045,-3.1282501220703125,-1.1911473274230957,3.1699999999999764
-0.001507103443145752,-3.5308589935302734,-1.4127492904663086,3.179999999999976
-0.0379638671875,-3.8847098350524902,-1.7671291828155518,3.189999999999976
-0.134922057390213,-4.340609073638916,-2.2160463333129883,3.1999999999999758
-0.025654584169387817,-4.898420333862305,-2.5613486766815186,3.2099999999999755
0.06009644269943237,-5.562692642211914,-2.8394997119903564,3.2199999999999753
0.3308049440383911,-6.065471649169922,-2.8165409564971924,3.229999999999975
0.2490461766719818,-6.586202621459961,-2.7874059677124023,3.239999999999975
0.15269261598587036,-6.892812252044678,-2.745330810546875,3.2499999999999747
-0.07557797431945801,-6.861236572265625,-2.6425890922546387,3.2599999999999745
-0.17971476912498474,-6.671388626098633,-2.3762032985687256,3.2699999999999743
-0.42380955815315247,-6.0198445320129395,-2.137528419494629,3.279999999999974
-0.32798200845718384,-5.244594573974609,-1.8518192768096924,3.289999999999974
-0.35240626335144043,-4.556379318237305,-1.6383261680603027,3.2999999999999736
-0.4335581362247467,-4.005383014678955,-1.4130191802978516,3.3099999999999734
-0.4790772795677185,-3.7325310707092285,-1.2666549682617188,3.319999999999973
-0.601919412612915,-3.656135082244873,-1.1250486373901367,3.329999999999973
-0.6685999631881714,-3.5941944122314453,-1.038412094116211,3.3399999999999728
-0.7560577392578125,-3.5609397888183594,-0.9709484577178955,3.3499999999999726
-0.7927237749099731,-3.5850319862365723,-0.8866982460021973,3.3599999999999723
-0.7406152486801147,-3.7070350646972656,-0.7927868366241455,3.369999999999972
-0.7362544536590576,-3.8621387481689453,-0.68461012840271,3.379999999999972
-0.6503676176071167,-3.956880569458008,-0.49787044525146484,3.3899999999999717
-0.6674063205718994,-3.96486234664917,-0.3046095371246338,3.3999999999999715
-0.7680648565292358,-3.8214573860168457,-0.12420272827148438,3.4099999999999713
-0.7966901063919067,-3.605600357055664,0.13402652740478516,3.419999999999971
-0.8514333367347717,-3.3291802406311035,0.4363231658935547,3.429999999999971
-0.7337338924407959,-3.059023380279541,0.7990913391113281,3.4399999999999706
-0.6588555574417114,-2.7374815940856934,1.1740145683288574,3.4499999999999704
-0.6123567819595337,-2.342648506164551,1.4502143859863281,3.45999999999997
-0.624858021736145,-1.8669376373291016,1.6075859069824219,3.46999999999997
-0.6023820638656616,-1.345759391784668,1.7621088027954102,3.47999999999997
-0.44788068532943726,-0.7809457778930664,1.8953545093536377,3.4899999999999696
-0.3134029805660248,-0.11685943603515625,2.0603585243225098,3.4999999999999694
-0.08260521292686462,0.6925382614135742,2.305037260055542,3.509999999999969
0.25540685653686523,1.6742820739746094,2.5595126152038574,3.519999999999969
0.6480823755264282,2.807734489440918,2.796722412109375,3.5299999999999687
1.2262568473815918,4.282647132873535,2.9827606678009033,3.5399999999999685
1.5116922855377197,5.9607343673706055,3.1373395919799805,3.5499999999999683
1.1735572814941406,7.428460121154785,3.4539198875427246,3.559999999999968
0.738540530204773,7.674007415771484,4.17139196395874,3.569999999999968
0.9068579077720642,6.58493709564209,5.198101997375488,3.5799999999999677
0.8361927270889282,5.203561782836914,5.933722019195557,3.5899999999999674
0.5466122031211853,4.009269714355469,6.167387962341309,3.5999999999999672
0.2870215177536011,2.6300010681152344,6.036158561706543,3.609999999999967
0.35708916187286377,1.1223869323730469,5.771720886230469,3.619999999999967
0.6186986565589905,-0.784092903137207,5.290927886962891,3.6299999999999666
0.7577967047691345,-2.744770050048828,4.7373576164245605,3.6399999999999664
0.7356029748916626,-4.345765590667725,3.8787970542907715,3.649999999999966
0.5579603314399719,-4.934516906738281,1.9190144538879395,3.659999999999966
0.4178387522697449,-3.5801310539245605,-0.32680797576904297,3.6699999999999657
0.0949062705039978,-0.8460202217102051,-1.1863212585449219,3.6799999999999655
-0.2011120319366455,1.998112678527832,-1.542149543762207,3.6899999999999653
-0.6069632768630981,4.7239274978637695,-2.865234851837158,3.699999999999965
-0.6299980878829956,7.355958938598633,-4.327144145965576,3.709999999999965
-0.8330409526824951,9.52603530883789,-4.743167877197266,3.7199999999999647
-1.4190843105316162,11.479482650756836,-3.9484951496124268,3.7299999999999645
-2.808420181274414,12.349162101745605,-3.010061740875244,3.7399999999999642
-4.195248603820801,12.305554389953613,-2.6092357635498047,3.749999999999964
-5.581712245941162,10.89541244506836,-2.550804615020752,3.759999999999964
-6.200944900512695,8.905633926391602,-2.606058120727539,3.7699999999999636
-6.236270427703857,7.437614440917969,-2.386012554168701,3.7799999999999634
-5.776583194732666,6.716835021972656,-0.8159685134887695,3.789999999999963
-4.897014617919922,6.201605796813965,1.2922251224517822,3.799999999999963
-3.750558853149414,5.196188926696777,1.9176688194274902,3.8099999999999627
-2.821784496307373,3.6369457244873047,1.188110113143921,3.8199999999999625
-2.6691834926605225,1.8517999649047852,-0.659813642501831,3.8299999999999623
-2.8627748489379883,0.20557212829589844,-2.5114705562591553,3.839999999999962
-2.8810017108917236,-0.8048858642578125,-3.690751075744629,3.849999999999962
-2.671149730682373,-1.057896614074707,-4.243429660797119,3.8599999999999617
-2.3652191162109375,-0.9469995498657227,-4.435387134552002,3.8699999999999615
-1.9461874961853027,-0.6610031127929688,-4.526719570159912,3.8799999999999613
-1.5700024366378784,-0.25051212310791016,-4.627137660980225,3.889999999999961
-1.1978510618209839,0.17364215850830078,-4.765763759613037,3.899999999999961
-0.5117680430412292,0.3711404800415039,-4.829236030578613,3.9099999999999606
0.23448902368545532,0.2956523895263672,-4.902718544006348,3.9199999999999604
0.6991618275642395,0.020885467529296875,-5.086546897888184,3.92999999999996
0.9551170468330383,-0.5199966430664062,-5.40349006652832,3.93999999999996
0.9584482908248901,-1.1015653610229492,-5.650230407714844,3.9499999999999598
0.850974440574646,-1.6873302459716797,-5.626938343048096,3.9599999999999596
0.6611785292625427,-1.912731647491455,-5.73358154296875,3.9699999999999593
0.37714701890945435,-1.6144495010375977,-5.542840003967285,3.979999999999959
0.11122256517410278,-0.8878631591796875,-5.086686134338379,3.989999999999959
-0.0832398533821106,-0.02713489532470703,-4.422065734863281,3.9999999999999587
-0.31496670842170715,0.8336982727050781,-3.4320948123931885,4.009999999999959
-0.24843400716781616,1.2400951385498047,-2.3720173835754395,4.019999999999959
-0.16274958848953247,1.2114934921264648,-1.4248977899551392,4.0299999999999585
0.010782778263092041,0.9109106063842773,-0.7477450370788574,4.039999999999958
0.21968334913253784,0.422515869140625,-0.39801740646362305,4.049999999999958
0.3688342571258545,-0.2173023223876953,-0.4265875816345215,4.059999999999958
0.4902750849723816,-0.9554405212402344,-0.46138453483581543,4.069999999999958
0.5228807330131531,-1.550008773803711,-0.5565128326416016,4.079999999999957
0.5944693088531494,-2.163754463195801,-0.6409629583358765,4.089999999999957
0.7057713270187378,-2.780064582824707,-0.7674943208694458,4.099999999999957
0.7307798862457275,-3.344163417816162,-0.9454636573791504,4.109999999999957
0.6891440153121948,-3.653108596801758,-1.19115149974823,4.119999999999957
0.5953754186630249,-3.7313356399536133,-1.4513922929763794,4.129999999999956
0.47102999687194824,-3.5433950424194336,-1.699589490890503,4.139999999999956
0.3231624364852905,-3.183039665222168,-1.834760069847107,4.149999999999956
4.178285598754883E-4,-2.7103171348571777,-2.0048258304595947,4.159999999999956
-0.30409348011016846,-2.051298141479492,-1.948571801185608,4.1699999999999555
-0.40653377771377563,-1.5003776550292969,-2.079610824584961,4.179999999999955
-0.4866892099380493,-1.0741596221923828,-2.141791820526123,4.189999999999955
-0.6909573078155518,-0.7485380172729492,-2.113626480102539,4.199999999999955
-0.7894922494888306,-0.5091447830200195,-2.0330753326416016,4.209999999999955
-0.7705813646316528,-0.4754972457885742,-1.899768352508545,4.2199999999999545
-0.6109658479690552,-0.5253973007202148,-1.6846823692321777,4.229999999999954
-0.34459125995635986,-0.42681217193603516,-1.4832402467727661,4.239999999999954
0.06219291687011719,-0.42845726013183594,-1.1888290643692017,4.249999999999954
0.32716262340545654,-0.35082340240478516,-0.8019958734512329,4.259999999999954
0.44307827949523926,-0.4211616516113281,-0.327498197555542,4.269999999999953
0.5289943218231201,-0.38331127166748047,-0.08376538753509521,4.279999999999953
0.7259365320205688,-0.15613269805908203,0.013353109359741211,4.289999999999953
0.874010443687439,0.047165870666503906,0.01737356185913086,4.299999999999953
1.0504385232925415,0.09972381591796875,0.04858863353729248,4.3099999999999525
1.1338516473770142,-0.015074729919433594,-0.08674347400665283,4.319999999999952
1.3021385669708252,-0.3042325973510742,-0.26935023069381714,4.329999999999952
1.459980845451355,-0.7555389404296875,-0.4712647795677185,4.339999999999952
1.5788648128509521,-0.8475131988525391,-0.6331523656845093,4.349999999999952
1.5678764581680298,-0.984736442565918,-0.7212909460067749,4.3599999999999515
1.5161014795303345,-1.0262336730957031,-0.758914589881897,4.369999999999951
1.486293077468872,-0.9865894317626953,-0.8293501734733582,4.379999999999951
1.267293930053711,-1.2077350616455078,-0.8846189975738525,4.389999999999951
1.2802356481552124,-1.3617877960205078,-0.8359686136245728,4.399999999999951
1.211583137512207,-1.4296464920043945,-0.7939905524253845,4.40999999999995
1.1066718101501465,-1.368300437927246,-0.8069717288017273,4.41999999999995
1.0345003604888916,-1.3141088485717773,-0.741462767124176,4.42999999999995
0.9444397687911987,-1.2119979858398438,-0.6361658573150635,4.43999999999995
0.8576630353927612,-0.9352521896362305,-0.40752336382865906,4.4499999999999496
0.6950867176055908,-0.6729602813720703,-0.18744271993637085,4.459999999999949
0.549956202507019,-0.5231304168701172,-0.004837691783905029,4.469999999999949
0.4270915985107422,-0.4138975143432617,0.10168534517288208,4.479999999999949
0.32403814792633057,-0.3643455505371094,0.1965455412864685,4.489999999999949
0.2194662094116211,-0.44618701934814453,0.2726755440235138,4.4999999999999485
0.17563891410827637,-0.5612649917602539,0.33023393154144287,4.509999999999948
0.13497698307037354,-0.5947771072387695,0.3553152084350586,4.519999999999948
0.15005767345428467,-0.6735782623291016,0.4345256984233856,4.529999999999948
0.15625786781311035,-0.7187261581420898,0.5205207467079163,4.539999999999948
0.1656116247177124,-0.8067970275878906,0.6664018034934998,4.549999999999947
0.15664935111999512,-0.8157997131347656,0.7985896468162537,4.559999999999947
0.13634395599365234,-0.8629627227783203,0.8287658095359802,4.569999999999947
0.11418163776397705,-0.7425756454467773,0.7043606042861938,4.579999999999947
0.14549052715301514,-0.662898063659668,0.6840363144874573,4.589999999999947
0.13214731216430664,-0.6310338973999023,0.7223091125488281,4.599999999999946
0.17222380638122559,-0.6229896545410156,0.7040242552757263,4.609999999999946
0.24667978286743164,-0.6483030319213867,0.7270782589912415,4.619999999999946
0.2885584831237793,-0.6256237030029297,0.7577906250953674,4.629999999999946
0.3409256935119629,-0.6076078414916992,0.6954429745674133,4.6399999999999455
0.31035447120666504,-0.5846624374389648,0.6379944086074829,4.649999999999945
0.3069865107536316,-0.5089712142944336,0.585392415523529,4.659999999999945
0.3308614492416382,-0.31604671478271484,0.5445036888122559,4.669999999999945
0.252618670463562,-0.15666675567626953,0.46469300985336304,4.679999999999945
0.24430549144744873,0.05051708221435547,0.45335960388183594,4.689999999999944
0.19557732343673706,0.37239837646484375,0.5101647973060608,4.699999999999944
0.2736791968345642,0.7801427841186523,0.6899701356887817,4.709999999999944
0.33714425563812256,1.2473373413085938,0.8610057830810547,4.719999999999944
0.5341365933418274,1.6232566833496094,1.056687831878662,4.729999999999944
0.809480607509613,1.8147287368774414,1.2600809335708618,4.739999999999943
1.0842633247375488,1.7908668518066406,1.358661413192749,4.749999999999943
1.2482962608337402,1.6140985488891602,1.3788132667541504,4.759999999999943
1.3684371709823608,1.4567813873291016,1.371035099029541,4.769999999999943
1.5596882104873657,1.3595218658447266,1.2613884210586548,4.7799999999999425
1.5565264225006104,1.377232551574707,1.1194703578948975,4.789999999999942
1.6078784465789795,1.624558448791504,1.0652731657028198,4.799999999999942
1.6109601259231567,1.9577617645263672,1.0680363178253174,4.809999999999942
1.6498138904571533,2.2858524322509766,1.0655255317687988,4.819999999999942
1.6841164827346802,2.4892568588256836,1.146243929862976,4.8299999999999415
1.7095502614974976,2.618316650390625,1.1522116661071777,4.839999999999941
1.905894160270691,2.6515331268310547,1.1068741083145142,4.849999999999941
1.9455771446228027,2.550731658935547,1.1558125019073486,4.859999999999941
1.9746252298355103,2.3519229888916016,1.248430609703064,4.869999999999941
1.9544200897216797,2.165217399597168,1.3772832155227661,4.87999999999994
1.9349873065948486,1.9451732635498047,1.5637803077697754,4.88999999999994
1.9066133499145508,1.7970190048217773,1.7932584285736084,4.89999999999994
1.909365177154541,1.7804203033447266,1.888321876525879,4.90999999999994
1.9233932495117188,1.8975753784179688,1.980207920074463,4.9199999999999395
2.079694986343384,1.9881134033203125,2.1574134826660156,4.929999999999939
2.2773749828338623,2.1094541549682617,2.2596778869628906,4.939999999999939
2.4995405673980713,2.122860908508301,2.3325095176696777,4.949999999999939
2.74111270904541,2.1169090270996094,2.193922519683838,4.959999999999939
2.9250094890594482,2.1824169158935547,1.8434596061706543,4.9699999999999385
3.010413885116577,2.1973133087158203,1.6157269477844238,4.979999999999938
2.930265426635742,2.168855667114258,1.4676878452301025,4.989999999999938
2.9022600650787354,2.214292526245117,1.3540031909942627,4.999999999999938
2.9000418186187744,2.3024539947509766,1.1214914321899414,5.009999999999938
3.0099563598632812,2.4261369705200195,0.8300500512123108,5.019999999999937
3.102557420730591,2.3557538986206055,0.40287312865257263,5.029999999999937
3.2063775062561035,2.2182931900024414,-0.033567726612091064,5.039999999999937
3.3455557823181152,2.092775344848633,-0.441342830657959,5.049999999999937
3.2615628242492676,1.981602668762207,-0.842786967754364,5.0599999999999365
3.1818883419036865,1.870509147644043,-1.1063544750213623,5.069999999999936
2.980084180831909,1.6233110427856445,-1.3899476528167725,5.079999999999936
2.6228089332580566,1.3096494674682617,-1.6431329250335693,5.089999999999936
2.2228617668151855,1.0373430252075195,-1.8321354389190674,5.099999999999936
1.608320951461792,0.6558341979980469,-1.9352067708969116,5.1099999999999355
0.9208155870437622,0.28734588623046875,-1.9423291683197021,5.119999999999935
0.34268873929977417,-0.024987220764160156,-1.9157744646072388,5.129999999999935
-0.18231387436389923,-0.36722469329833984,-1.8918498754501343,5.139999999999935
-0.4731818437576294,-0.5814228057861328,-1.9787366390228271,5.149999999999935
-0.8298667669296265,-0.7656660079956055,-2.1361005306243896,5.159999999999934
-1.3519046306610107,-0.7213878631591797,-2.050443410873413,5.169999999999934
-1.846954345703125,-0.6806955337524414,-1.713808536529541,5.179999999999934
-2.3501884937286377,-0.6722211837768555,-1.2731046676635742,5.189999999999934
-2.8565590381622314,-0.62896728515625,-0.8271450996398926,5.199999999999934
-3.349714994430542,-0.6586618423461914,-0.3951694965362549,5.209999999999933
-3.71128511428833,-0.6537685394287109,-0.008514344692230225,5.219999999999933
-3.8285369873046875,-0.6145038604736328,0.17896819114685059,5.229999999999933
-3.747000217437744,-0.5315446853637695,0.278589129447937,5.239999999999933
-3.495424747467041,-0.3166770935058594,0.3364766836166382,5.2499999999999325
-2.991520881652832,-0.13276958465576172,0.368893027305603,5.259999999999932
-2.4129042625427246,0.08246326446533203,0.3477764129638672,5.269999999999932
-1.9271278381347656,0.26218414306640625,0.33349084854125977,5.279999999999932
-1.4951269626617432,0.45930957794189453,0.3238699436187744,5.289999999999932
-1.2929677963256836,0.6789646148681641,0.36446666717529297,5.299999999999931
-1.4277853965759277,0.8496494293212891,0.5593286752700806,5.309999999999931
-1.5513592958450317,1.0241527557373047,0.7359391450881958,5.319999999999931
-1.5899369716644287,1.1666288375854492,0.9018073081970215,5.329999999999931
-1.6994529962539673,1.332122802734375,0.8683805465698242,5.339999999999931
-1.7135790586471558,1.5205841064453125,0.6914057731628418,5.34999999999993
-1.6556856632232666,1.808527946472168,0.33786940574645996,5.35999999999993
-1.293026328086853,2.018819808959961,-0.1507267951965332,5.36999999999993
-0.8777764439582825,1.965010643005371,-0.6182428598403931,5.37999999999993
-0.831346869468689,1.941267967224121,-1.0107122659683228,5.3899999999999295
-0.5680426955223083,1.9544143676757812,-1.4274405241012573,5.399999999999929
-0.2304142862558365,1.8559999465942383,-1.7628252506256104,5.409999999999929
0.06569909304380417,1.851944923400879,-2.1946303844451904,5.419999999999929
0.1981157809495926,1.5264158248901367,-2.422694683074951,5.429999999999929
0.3011258840560913,1.0423860549926758,-2.2798237800598145,5.4399999999999284
0.06803127378225327,0.29921627044677734,-1.8202627897262573,5.449999999999928
-0.06591558456420898,-0.4331483840942383,-1.2078633308410645,5.459999999999928
-0.26151803135871887,-1.2700729370117188,-0.6279559135437012,5.469999999999928
-0.3174310624599457,-2.090188503265381,-0.0956885814666748,5.479999999999928
-0.5942028760910034,-2.606945037841797,-0.08393502235412598,5.489999999999927
-0.8110126256942749,-2.981228828430176,-0.2617619037628174,5.499999999999927
-0.9667493104934692,-3.3400516510009766,-0.6123881340026855,5.509999999999927
-0.9809252619743347,-3.721700668334961,-1.0212104320526123,5.519999999999927
-0.8521756529808044,-4.123657703399658,-1.4791953563690186,5.5299999999999265
-0.6304623484611511,-4.497953414916992,-1.8912265300750732,5.539999999999926
-0.4352865517139435,-5.071707725524902,-2.0664873123168945,5.549999999999926
-0.34351447224617004,-5.476011276245117,-2.2120676040649414,5.559999999999926
-0.2910614609718323,-5.553112506866455,-2.1108851432800293,5.569999999999926
-0.2924455404281616,-5.380011081695557,-1.9664251804351807,5.5799999999999255
-0.2562674880027771,-5.191662788391113,-1.7303473949432373,5.589999999999925
-0.388564795255661,-4.701371669769287,-1.5530486106872559,5.599999999999925
-0.47407910227775574,-4.000611782073975,-1.3121311664581299,5.609999999999925
-0.46262645721435547,-3.3434882164001465,-1.1289279460906982,5.619999999999925
-0.4980012774467468,-2.866474151611328,-1.0077741146087646,5.629999999999924
-0.5925754904747009,-2.6817269325256348,-1.0156428813934326,5.639999999999924
-0.6630381345748901,-2.645495891571045,-1.0494673252105713,5.649999999999924
-0.7283605337142944,-2.7862839698791504,-1.169060468673706,5.659999999999924
-0.8723907470703125,-3.082301616668701,-1.2309901714324951,5.6699999999999235
-0.9041587114334106,-3.3947510719299316,-1.2303943634033203,5.679999999999923
-0.9149116277694702,-3.7882471084594727,-1.2389318943023682,5.689999999999923
-0.8692988157272339,-4.202947616577148,-1.2349729537963867,5.699999999999923
-0.8417925834655762,-4.612502098083496,-1.2209279537200928,5.709999999999923
-0.782477855682373,-5.040794372558594,-1.220726490020752,5.7199999999999225
-0.7491746544837952,-5.315670013427734,-1.13376784324646,5.729999999999922
-0.6991515755653381,-5.4301323890686035,-0.9385559558868408,5.739999999999922
-0.6540200710296631,-5.458550453186035,-0.7019236087799072,5.749999999999922
-0.7188887596130371,-5.403367042541504,-0.48601269721984863,5.759999999999922
-0.7261912226676941,-5.255049228668213,-0.2357172966003418,5.769999999999921
-0.7978777885437012,-5.011100769042969,0.024779319763183594,5.779999999999921
-0.9385485649108887,-4.726365566253662,0.30233073234558105,5.789999999999921
-0.930065929889679,-4.383821487426758,0.6514441967010498,5.799999999999921
-1.004016637802124,-3.918539524078369,0.9899909496307373,5.809999999999921
-1.1840099096298218,-3.3468003273010254,1.261777400970459,5.81999999999992
-1.352576494216919,-2.610624313354492,1.560925006866455,5.82999999999992
-1.5239479541778564,-1.8671941757202148,1.851879358291626,5.83999999999992
-1.525172472000122,-1.0150423049926758,2.0816214084625244,5.84999999999992
-1.0875210762023926,0.08308982849121094,2.318732976913452,5.8599999999999195
-0.31605756282806396,1.2894258499145508,2.571380615234375,5.869999999999919
0.5567585825920105,2.9018173217773438,2.5885634422302246,5.879999999999919
1.591941237449646,4.964130401611328,2.7297537326812744,5.889999999999919
2.404791831970215,7.031789779663086,3.222008466720581,5.899999999999919
2.5534474849700928,8.463839530944824,4.091711044311523,5.909999999999918
1.881108045578003,8.815113067626953,5.720263957977295,5.919999999999918
1.6087818145751953,8.106937408447266,7.102790832519531,5.929999999999918
1.46867036819458,7.315030097961426,7.841863632202148,5.939999999999918
1.1180939674377441,6.280585289001465,7.98463249206543,5.949999999999918
0.7571792602539062,4.6965227127075195,8.175874710083008,5.959999999999917
0.5788657665252686,3.2099075317382812,8.378192901611328,5.969999999999917
0.25478774309158325,1.7364234924316406,7.652287483215332,5.979999999999917
-0.0848517119884491,0.5823516845703125,6.275646686553955,5.989999999999917
-0.6348766684532166,0.4080219268798828,4.431327819824219,5.9999999999999165
-0.7541855573654175,2.157528877258301,2.5941286087036133,6.009999999999916
-0.658015787601471,4.743621826171875,1.305586814880371,6.019999999999916
-0.5371790528297424,7.794892311096191,-0.0039958953857421875,6.029999999999916
-0.46063658595085144,10.597691535949707,-2.0978572368621826,6.039999999999916
-0.42490819096565247,13.713927268981934,-3.436220169067383,6.0499999999999154
-1.0490152835845947,15.171072959899902,-3.81545352935791,6.059999999999915
-2.023834705352783,14.131272315979004,-4.161461353302002,6.069999999999915
-2.427502393722534,10.946876525878906,-3.9683103561401367,6.079999999999915
-2.444525957107544,7.008489608764648,-2.5290579795837402,6.089999999999915
-3.118401527404785,3.623075485229492,-1.2743818759918213,6.099999999999914
-4.898777961730957,0.13941001892089844,-1.6204755306243896,6.109999999999914
-6.529922962188721,-2.876384735107422,-2.534268856048584,6.119999999999914
-5.902297019958496,-4.201660633087158,-1.9099912643432617,6.129999999999914
-3.782102584838867,-2.4979491233825684,-0.4337456226348877,6.1399999999999135
-2.3469667434692383,-1.424778938293457,-2.0854790210723877,6.149999999999913
-2.3988113403320312,-1.0361461639404297,-4.227698802947998,6.159999999999913
-2.5712907314300537,-0.9894528388977051,-5.597924709320068,6.169999999999913
-2.376979112625122,-0.743525505065918,-5.653707027435303,6.179999999999913
-1.930933952331543,-0.28798770904541016,-4.87788200378418,6.1899999999999125
-1.482682466506958,0.4051513671875,-4.234106063842773,6.199999999999912
-0.7495051622390747,1.5674524307250977,-4.108648300170898,6.209999999999912
0.2513817548751831,2.9891233444213867,-4.251523494720459,6.219999999999912
1.2027515172958374,4.1085309982299805,-3.9910261631011963,6.229999999999912
2.1177659034729004,4.615455627441406,-3.4947071075439453,6.239999999999911
2.574618101119995,4.420743942260742,-3.19659161567688,6.249999999999911
2.4204416275024414,3.594667434692383,-3.8060457706451416,6.259999999999911
1.7774431705474854,2.397003173828125,-4.423980236053467,6.269999999999911
0.9026731252670288,1.147059440612793,-4.807908058166504,6.2799999999999105
0.1872836947441101,0.11384391784667969,-4.728555679321289,6.28999999999991
-0.11153841018676758,-0.5529203414916992,-4.805317401885986,6.29999999999991
-0.15552818775177002,-0.7155046463012695,-4.847193241119385,6.30999999999991
-0.3597922921180725,-0.4976472854614258,-4.5829949378967285,6.31999999999991
-0.6727068424224854,-0.1530895233154297,-3.832216739654541,6.3299999999999095
-0.7852476239204407,0.2337055206298828,-2.8378052711486816,6.339999999999909
-0.7279602885246277,0.4372091293334961,-1.9878464937210083,6.349999999999909
-0.6957346796989441,0.47623634338378906,-1.4048840999603271,6.359999999999909
-0.7226142883300781,0.2718343734741211,-1.0184383392333984,6.369999999999909
-0.7156872749328613,-0.10632038116455078,-0.7541241645812988,6.379999999999908
-0.6180351972579956,-0.5478315353393555,-0.6075036525726318,6.389999999999908
-0.45896413922309875,-0.9949922561645508,-0.4595601558685303,6.399999999999908
-0.22021466493606567,-1.249009132385254,-0.45711636543273926,6.409999999999908
-0.12021440267562866,-1.4008188247680664,-0.3446614742279053,6.419999999999908
-0.2505471706390381,-1.498255729675293,-0.35460329055786133,6.429999999999907
-0.06271994113922119,-1.5464344024658203,-0.2662391662597656,6.439999999999907
0.19561541080474854,-1.4931845664978027,-0.34194374084472656,6.449999999999907
0.2834275960922241,-1.4177255630493164,-0.703034520149231,6.459999999999907
0.1887165904045105,-1.3224754333496094,-1.124371886253357,6.4699999999999065
0.09858369827270508,-1.2983474731445312,-1.4792301654815674,6.479999999999906
-0.07520145177841187,-1.3739948272705078,-1.7533257007598877,6.489999999999906
-0.284956693649292,-1.4656858444213867,-1.8339977264404297,6.499999999999906
-0.30099737644195557,-1.6214313507080078,-1.8426225185394287,6.509999999999906
-0.19921529293060303,-1.8484678268432617,-1.8890132904052734,6.519999999999905
-0.24216735363006592,-1.9746513366699219,-1.9155213832855225,6.529999999999905
-0.19006550312042236,-2.0001230239868164,-1.941440463066101,6.539999999999905
-0.13354218006134033,-1.884300708770752,-2.0102851390838623,6.549999999999905
-0.19199460744857788,-1.5675592422485352,-2.028987407684326,6.559999999999905
-0.18837213516235352,-1.3658103942871094,-1.9137722253799438,6.569999999999904
-0.1971731185913086,-1.0971336364746094,-1.7462633848190308,6.579999999999904
-0.13015663623809814,-1.0079011917114258,-1.5335662364959717,6.589999999999904
-0.042814016342163086,-0.9256820678710938,-1.3857673406600952,6.599999999999904
0.009736061096191406,-0.9317474365234375,-1.1809405088424683,6.6099999999999035
0.17572283744812012,-1.1406993865966797,-1.0845088958740234,6.619999999999903
0.5010523796081543,-1.2580833435058594,-1.0090446472167969,6.629999999999903
0.6967277526855469,-1.508707046508789,-0.809755802154541,6.639999999999903
0.5998321771621704,-1.8470492362976074,-0.41690731048583984,6.649999999999903
0.531050443649292,-2.0220446586608887,-0.21747362613677979,6.659999999999902
0.519008994102478,-2.1942272186279297,-0.2773626446723938,6.669999999999902
0.5036734342575073,-2.1843109130859375,-0.440385639667511,6.679999999999902
0.6259320974349976,-2.0571165084838867,-0.6079397797584534,6.689999999999902
0.6701160669326782,-1.9538545608520508,-0.6602389812469482,6.699999999999902
0.7650445103645325,-1.809908390045166,-0.6163480281829834,6.709999999999901
0.8194321393966675,-1.7376842498779297,-0.5264256596565247,6.719999999999901
0.8378050923347473,-1.5625228881835938,-0.41897469758987427,6.729999999999901
0.9182263612747192,-1.377828598022461,-0.20992761850357056,6.739999999999901
0.9123640060424805,-1.159698486328125,-0.1383114457130432,6.7499999999999005
0.9925952553749084,-0.9583654403686523,-0.11562496423721313,6.7599999999999
1.01301908493042,-0.8717985153198242,-0.1540941596031189,6.7699999999999
0.9665635228157043,-0.806553840637207,-0.2804306447505951,6.7799999999999
0.868106484413147,-0.8128414154052734,-0.3296624720096588,6.7899999999999
0.8927945494651794,-0.7830133438110352,-0.33295488357543945,6.7999999999998995
0.8661454916000366,-0.8032026290893555,-0.2305273711681366,6.809999999999899
0.7979488372802734,-0.8733444213867188,-0.1254522204399109,6.819999999999899
0.8439871668815613,-0.8905448913574219,-0.06384524703025818,6.829999999999899
0.8462610244750977,-0.921778678894043,-0.025323688983917236,6.839999999999899
0.8478944897651672,-0.8044357299804688,0.013407528400421143,6.849999999999898
0.8776019811630249,-0.6654624938964844,0.040543511509895325,6.859999999999898
0.7847738862037659,-0.5479564666748047,0.11877046525478363,6.869999999999898
0.6701934933662415,-0.45431041717529297,0.17411011457443237,6.879999999999898
0.5890939235687256,-0.3056049346923828,0.25910982489585876,6.8899999999998975
0.42420464754104614,-0.113861083984375,0.3783756196498871,6.899999999999897
0.3164626359939575,0.08023452758789062,0.5222577452659607,6.909999999999897
0.2632240653038025,0.252777099609375,0.7435869574546814,6.919999999999897
0.17073535919189453,0.39426612854003906,1.0092835426330566,6.929999999999897
0.1677396297454834,0.6075830459594727,1.1639798879623413,6.9399999999998965
0.1724960207939148,0.7754878997802734,1.15980064868927,6.949999999999896
0.27555006742477417,0.8765163421630859,1.1281213760375977,6.959999999999896
0.3135112524032593,0.8629484176635742,1.1478215456008911,6.969999999999896
0.353289932012558,0.7994623184204102,1.1972070932388306,6.979999999999896
0.3521094024181366,0.688481330871582,1.2498829364776611,6.989999999999895
0.41282176971435547,0.7213230133056641,1.3152177333831787,6.999999999999895
0.43944403529167175,0.7997474670410156,1.2829036712646484,7.009999999999895
0.5417795777320862,0.823237419128418,1.2483932971954346,7.019999999999895
0.7341668605804443,0.8707246780395508,1.2545979022979736,7.0299999999998946
0.820006251335144,0.949315071105957,0.9543774127960205,7.039999999999894
1.162959098815918,0.9394054412841797,0.8578901290893555,7.049999999999894
1.4904683828353882,0.8770027160644531,0.95395827293396,7.059999999999894
1.6830143928527832,0.735905647277832,1.0375709533691406,7.069999999999894
1.903210163116455,0.5210056304931641,1.0373125076293945,7.0799999999998935
2.091507911682129,0.4260587692260742,0.9914593696594238,7.089999999999893
2.3318939208984375,0.3911170959472656,1.0098284482955933,7.099999999999893
2.444972515106201,0.5786724090576172,1.0896070003509521,7.109999999999893
2.5911169052124023,0.7588710784912109,1.3165473937988281,7.119999999999893
2.7269515991210938,0.96038818359375,1.5324010848999023,7.129999999999892
2.9673383235931396,1.2716255187988281,1.5622247457504272,7.139999999999892
3.2453837394714355,1.4389686584472656,1.6452441215515137,7.149999999999892
3.381497621536255,1.496058464050293,1.7526979446411133,7.159999999999892
3.4520528316497803,1.6079912185668945,1.769643783569336,7.169999999999892
3.624631881713867,1.6574974060058594,1.7413113117218018,7.179999999999891
3.645350217819214,1.7115507125854492,1.6409775018692017,7.189999999999891
3.6192398071289062,1.7509737014770508,1.566493034362793,7.199999999999891
3.5772087574005127,1.8092212677001953,1.3669085502624512,7.209999999999891
3.5499207973480225,1.8479633331298828,1.027710199356079,7.2199999999998905
3.357250213623047,2.005838394165039,0.5413882732391357,7.22999999999989
3.1489529609680176,2.210909843444824,0.005958616733551025,7.23999999999989
2.7855873107910156,2.537236213684082,-0.312924325466156,7.24999999999989
2.4777722358703613,2.972728729248047,-0.4440818428993225,7.25999999999989
2.1993768215179443,3.433584213256836,-0.5361087322235107,7.269999999999889
2.087184429168701,3.5348291397094727,-0.5630593299865723,7.279999999999889
1.9380333423614502,3.4012622833251953,-0.6045598983764648,7.289999999999889
1.955768346786499,3.0140867233276367,-0.5894366502761841,7.299999999999889
2.002601146697998,2.6343135833740234,-0.5138126611709595,7.309999999999889
2.009026050567627,2.2452335357666016,-0.4958811402320862,7.319999999999888
2.0537538528442383,1.9330368041992188,-0.4285947382450104,7.329999999999888
2.005629539489746,1.927332878112793,-0.33373844623565674,7.339999999999888
1.9105899333953857,2.132288932800293,-0.3115648031234741,7.349999999999888
1.6662213802337646,2.4235191345214844,-0.3638543486595154,7.3599999999998875
1.3519498109817505,2.55722713470459,-0.5667107105255127,7.369999999999887
0.953716516494751,2.6557607650756836,-0.8435996770858765,7.379999999999887
0.5940752625465393,2.525700569152832,-1.1513220071792603,7.389999999999887
0.21167698502540588,2.150820732116699,-1.4414458274841309,7.399999999999887
-0.2380634844303131,1.6607303619384766,-1.5574438571929932,7.4099999999998865
-0.8070032596588135,1.1441192626953125,-1.3104546070098877,7.419999999999886
-1.2668843269348145,0.5770206451416016,-1.0225815773010254,7.429999999999886
-1.782474160194397,0.11466121673583984,-0.8315519094467163,7.439999999999886
-2.2415244579315186,-0.052138328552246094,-0.7347646355628967,7.449999999999886
-2.577725410461426,-0.10817432403564453,-0.8290625810623169,7.459999999999885
-2.804103374481201,-0.03951072692871094,-0.8794705271720886,7.469999999999885
-2.9337708950042725,0.012353897094726562,-0.8402543067932129,7.479999999999885
-2.866952896118164,0.09039592742919922,-0.7030942440032959,7.489999999999885
-2.7951245307922363,0.2115335464477539,-0.48084789514541626,7.4999999999998845
-2.4745349884033203,0.3856782913208008,-0.06737387180328369,7.509999999999884
-2.138066053390503,0.5916261672973633,0.46256446838378906,7.519999999999884
-1.625929832458496,0.9038352966308594,1.0661027431488037,7.529999999999884
-1.227100133895874,1.1957941055297852,1.5384844541549683,7.539999999999884
-1.131962776184082,1.537078857421875,1.850981593132019,7.5499999999998835
-1.196020245552063,1.800889015197754,1.9762561321258545,7.559999999999883
-1.2414199113845825,2.027867317199707,1.762947916984558,7.569999999999883
-1.313726544380188,2.1126956939697266,1.2893935441970825,7.579999999999883
-1.2189995050430298,2.148588180541992,0.6266770362854004,7.589999999999883
-1.0146143436431885,2.0014753341674805,-0.1927347183227539,7.599999999999882
-0.8563254475593567,1.733597755432129,-1.1201789379119873,7.609999999999882
-0.8192486763000488,1.4812650680541992,-2.0451130867004395,7.619999999999882
-0.8319519758224487,1.119943618774414,-2.8092195987701416,7.629999999999882
-0.6834777593612671,0.8123064041137695,-3.4963908195495605,7.6399999999998816
-0.4835757315158844,0.47237300872802734,-3.9305834770202637,7.649999999999881
-0.32569578289985657,0.2177734375,-4.1352081298828125,7.659999999999881
-0.4305436611175537,0.007978439331054688,-3.9773049354553223,7.669999999999881
-0.6286466121673584,-0.24564361572265625,-3.5859687328338623,7.679999999999881
-0.8244351744651794,-0.6511354446411133,-2.998056173324585,7.6899999999998805
-1.0206776857376099,-1.0966606140136719,-2.4627342224121094,7.69999999999988
-1.2040610313415527,-1.5827860832214355,-2.0621113777160645,7.70999999999988
-1.147868037223816,-1.8849210739135742,-1.8005789518356323,7.71999999999988
-1.1228829622268677,-2.096435546875,-1.8460549116134644,7.72999999999988
-1.0093744993209839,-2.382361888885498,-1.8519500494003296,7.739999999999879
-0.984828531742096,-2.616112232208252,-1.7342908382415771,7.749999999999879
-0.9462029933929443,-2.881753921508789,-1.5476787090301514,7.759999999999879
-0.7157163619995117,-3.28238582611084,-1.4542467594146729,7.769999999999879
-0.7549861073493958,-3.6457552909851074,-1.4802796840667725,7.779999999999879
-0.7744125127792358,-3.7732796669006348,-1.6239020824432373,7.789999999999878
-0.6682084798812866,-3.9593300819396973,-1.6724226474761963,7.799999999999878
-0.6945266127586365,-4.091588497161865,-1.6592903137207031,7.809999999999878
-0.7928791046142578,-4.273012638092041,-1.641960859298706,7.819999999999878
-0.8473823666572571,-4.517870903015137,-1.6541025638580322,7.8299999999998775
-1.0654659271240234,-4.675253391265869,-1.7918856143951416,7.839999999999877
-1.236586093902588,-4.570694446563721,-1.8066585063934326,7.849999999999877
-1.3510907888412476,-4.482025146484375,-1.7151131629943848,7.859999999999877
-1.4213513135910034,-4.340092182159424,-1.5959312915802002,7.869999999999877
-1.4138271808624268,-4.04703426361084,-1.4466159343719482,7.879999999999876
-1.4484446048736572,-3.770571231842041,-1.3267309665679932,7.889999999999876
-1.4491229057312012,-3.5945229530334473,-1.290982723236084,7.899999999999876
-1.4857069253921509,-3.4279847145080566,-1.2530667781829834,7.909999999999876
-1.4033786058425903,-3.464597702026367,-1.1843886375427246,7.919999999999876
-1.4011709690093994,-3.5222697257995605,-1.1498241424560547,7.929999999999875
-1.3739473819732666,-3.7873997688293457,-1.101675033569336,7.939999999999875
-1.3674113750457764,-4.039823055267334,-1.0373859405517578,7.949999999999875
-1.331648588180542,-4.318020820617676,-1.0162787437438965,7.959999999999875
-1.3577170372009277,-4.576710224151611,-0.9613306522369385,7.9699999999998745
-1.500658392906189,-4.761075019836426,-1.020400047302246,7.979999999999874
-1.4875811338424683,-4.890353202819824,-1.0975301265716553,7.989999999999874
-1.4714183807373047,-4.98130989074707,-1.0922036170959473,7.999999999999874
