AccX,AccY,AccZ,SampleRate
-0.7587577104568481,0.35054779052734375,-2.1894874572753906,0
-0.583800196647644,0.15950298309326172,-1.9777406454086304,0.01
-0.24690231680870056,-0.04623985290527344,-1.335902214050293,0.02
-0.01461118459701538,-0.47756195068359375,-0.7054567337036133,0.03
0.12782162427902222,-0.8456211090087891,-0.17069697380065918,0.04
0.18677544593811035,-1.3258442878723145,0.011731624603271484,0.05
0.09502381086349487,-1.837425708770752,-0.24057388305664062,0.060000000000000005
-0.09231111407279968,-2.320842742919922,-0.8075840473175049,0.07
-0.12918037176132202,-3.003483295440674,-1.4046247005462646,0.08
-0.10470426082611084,-4.069213390350342,-2.0634069442749023,0.09
-0.12976619601249695,-5.271245956420898,-2.5501179695129395,0.09999999999999999
0.052350640296936035,-6.554460525512695,-2.8198354244232178,0.10999999999999999
-0.08288317918777466,-7.30656099319458,-2.985480785369873,0.11999999999999998
-0.2880868911743164,-7.0692925453186035,-2.879408836364746,0.12999999999999998
-0.1383553147315979,-6.052443027496338,-2.5656068325042725,0.13999999999999999
-0.1043441891670227,-5.379589080810547,-2.164428472518921,0.15
-0.3556232750415802,-4.3998332023620605,-1.9606528282165527,0.16
0.04912227392196655,-3.3138742446899414,-1.648763656616211,0.17
0.22851485013961792,-2.6622672080993652,-1.5350403785705566,0.18000000000000002
-0.012000679969787598,-2.535688877105713,-1.5926246643066406,0.19000000000000003
-0.2780601978302002,-2.5991244316101074,-1.7611701488494873,0.20000000000000004
-0.6090741157531738,-2.895787239074707,-1.9516105651855469,0.21000000000000005
-0.9258852005004883,-3.227125644683838,-2.1086771488189697,0.22000000000000006
-1.0782321691513062,-3.705688953399658,-2.1651182174682617,0.23000000000000007
-1.3009504079818726,-4.21203088760376,-2.0798890590667725,0.24000000000000007
-1.4248244762420654,-4.652935981750488,-1.8792645931243896,0.25000000000000006
-1.4508955478668213,-5.100198745727539,-1.632622241973877,0.26000000000000006
-1.4087519645690918,-5.498676776885986,-1.3185763359069824,0.2700000000000001
-1.3420498371124268,-5.788478851318359,-1.0353660583496094,0.2800000000000001
-1.222357988357544,-5.97662878036499,-0.8119630813598633,0.2900000000000001
-1.1048879623413086,-6.0389814376831055,-0.6319751739501953,0.3000000000000001
-1.027877926826477,-5.992107391357422,-0.3952674865722656,0.3100000000000001
-0.8479501008987427,-5.795128345489502,-0.15491771697998047,0.3200000000000001
-0.7304722666740417,-5.541130065917969,0.11261510848999023,0.3300000000000001
-0.5871717929840088,-5.342161178588867,0.40445375442504883,0.34000000000000014
-0.5808322429656982,-5.030188083648682,0.5164752006530762,0.35000000000000014
-0.5773884057998657,-4.7074875831604,0.617581844329834,0.36000000000000015
-0.535881519317627,-4.236964225769043,0.6799983978271484,0.37000000000000016
-0.5370876789093018,-3.6035585403442383,0.7426056861877441,0.38000000000000017
-0.4769148826599121,-2.8138680458068848,0.7486205101013184,0.3900000000000002
-0.3275038003921509,-1.9722237586975098,0.5328564643859863,0.4000000000000002
-0.20411567389965057,-1.0513334274291992,0.2552952766418457,0.4100000000000002
-0.1459989845752716,-0.03117656707763672,0.03985738754272461,0.4200000000000002
-0.030471116304397583,1.015172004699707,-0.1312575340270996,0.4300000000000002
0.17411920428276062,2.442807197570801,-0.17081856727600098,0.4400000000000002
0.2686912417411804,4.790207862854004,0.19333100318908691,0.45000000000000023
-0.17967037856578827,7.520844459533691,1.3693268299102783,0.46000000000000024
-0.9166077971458435,9.875367164611816,3.6937479972839355,0.47000000000000025
-0.7255508303642273,9.973225593566895,6.263134002685547,0.48000000000000026
-0.0529789924621582,8.84156608581543,8.02876091003418,0.49000000000000027
-0.0566888153553009,7.71430778503418,9.30137825012207,0.5000000000000002
-0.12720678746700287,6.417824745178223,9.535123825073242,0.5100000000000002
0.178615003824234,4.463386535644531,9.085174560546875,0.5200000000000002
0.1965242624282837,1.5501985549926758,8.093873977661133,0.5300000000000002
-0.25168895721435547,-1.2793617248535156,5.875481128692627,0.5400000000000003
-0.9979085326194763,-2.187204360961914,2.3056259155273438,0.5500000000000003
-1.3279792070388794,0.0774993896484375,0.35984182357788086,0.5600000000000003
-1.8991999626159668,3.9028749465942383,-0.040392398834228516,0.5700000000000003
-2.201286792755127,7.849184989929199,-0.10700798034667969,0.5800000000000003
-1.9367846250534058,11.469161987304688,-1.2837224006652832,0.5900000000000003
-1.8349403142929077,14.024131774902344,-3.3339877128601074,0.6000000000000003
-1.7340608835220337,14.628952980041504,-4.743157863616943,0.6100000000000003
-1.8290773630142212,12.814605712890625,-5.063729286193848,0.6200000000000003
-3.331918478012085,9.702535629272461,-4.797183990478516,0.6300000000000003
-5.229233741760254,5.904600143432617,-3.9843766689300537,0.6400000000000003
-5.687169075012207,2.4741783142089844,-3.133805751800537,0.6500000000000004
-5.00253963470459,-0.05819416046142578,-2.3229851722717285,0.6600000000000004
-4.281004428863525,-0.361053466796875,-0.06818628311157227,0.6700000000000004
-3.3018929958343506,0.6291933059692383,0.3038907051086426,0.6800000000000004
-2.7418906688690186,1.4002304077148438,-1.043144941329956,0.6900000000000004
-3.074418306350708,1.577387809753418,-3.0478453636169434,0.7000000000000004
-3.607262372970581,1.147965431213379,-4.710529327392578,0.7100000000000004
-3.653686761856079,0.8090152740478516,-5.356199741363525,0.7200000000000004
-3.159952402114868,0.9307146072387695,-4.801243782043457,0.7300000000000004
-2.6738979816436768,1.5979108810424805,-3.918520212173462,0.7400000000000004
-2.169078826904297,2.4162111282348633,-3.6305501461029053,0.7500000000000004
-1.2800663709640503,3.141510009765625,-3.4557039737701416,0.7600000000000005
-0.5128210783004761,3.7687854766845703,-3.294687271118164,0.7700000000000005
0.2919640839099884,4.165633201599121,-3.121126651763916,0.7800000000000005
1.2804255485534668,4.232995986938477,-3.2836029529571533,0.7900000000000005
1.6135313510894775,3.9324216842651367,-3.839887857437134,0.8000000000000005
1.4369298219680786,3.309854507446289,-4.021547317504883,0.8100000000000005
1.3720706701278687,2.4071884155273438,-3.863713502883911,0.8200000000000005
1.3219789266586304,1.4152069091796875,-3.8692593574523926,0.8300000000000005
1.1533455848693848,0.5865755081176758,-3.902092218399048,0.8400000000000005
0.9584755897521973,0.041717529296875,-4.107866287231445,0.8500000000000005
1.021843433380127,-0.39362430572509766,-4.413906574249268,0.8600000000000005
0.969571053981781,-0.5710697174072266,-4.653687000274658,0.8700000000000006
0.898733377456665,-0.6462030410766602,-4.84002685546875,0.8800000000000006
0.6118378043174744,-0.6215057373046875,-4.777458667755127,0.8900000000000006
0.2585204839706421,-0.6527681350708008,-4.526007175445557,0.9000000000000006
-0.13448631763458252,-0.8263444900512695,-3.982599973678589,0.9100000000000006
-0.509984016418457,-1.0397281646728516,-3.182387351989746,0.9200000000000006
-0.8067618608474731,-1.2549066543579102,-2.4858901500701904,0.9300000000000006
-0.8515965342521667,-1.4670453071594238,-2.0028958320617676,0.9400000000000006
-0.6985485553741455,-1.673567295074463,-1.6210647821426392,0.9500000000000006
-0.6484493613243103,-1.6828627586364746,-1.3217264413833618,0.9600000000000006
-0.5760183334350586,-1.7722477912902832,-1.004913568496704,0.9700000000000006
-0.2522580027580261,-1.673788070678711,-0.7352526187896729,0.9800000000000006
0.013940811157226562,-1.5838871002197266,-0.5291645526885986,0.9900000000000007
0.14582794904708862,-1.4523568153381348,-0.5346601009368896,1.0000000000000007
0.19817835092544556,-1.5135688781738281,-0.5744631290435791,1.0100000000000007
0.10902178287506104,-1.6169285774230957,-0.5590963363647461,1.0200000000000007
-0.11147886514663696,-1.8223977088928223,-0.7795724868774414,1.0300000000000007
-0.33780378103256226,-2.206533432006836,-1.1611071825027466,1.0400000000000007
-0.5618398189544678,-2.6088294982910156,-1.6538245677947998,1.0500000000000007
-0.6773442029953003,-2.9645819664001465,-2.0862808227539062,1.0600000000000007
-0.8439260721206665,-3.0083627700805664,-2.2536001205444336,1.0700000000000007
-0.862005889415741,-2.862610340118408,-2.3356800079345703,1.0800000000000007
-0.9754879474639893,-2.448732852935791,-2.3516929149627686,1.0900000000000007
-1.1391164064407349,-2.125809669494629,-2.3827037811279297,1.1000000000000008
-1.1235072612762451,-1.8746209144592285,-2.4740169048309326,1.1100000000000008
-0.9670228958129883,-1.7141518592834473,-2.5423195362091064,1.1200000000000008
-0.6863354444503784,-1.6870708465576172,-2.3931689262390137,1.1300000000000008
-0.3589005470275879,-1.757065773010254,-2.0591626167297363,1.1400000000000008
-0.19116461277008057,-1.7877740859985352,-1.3512933254241943,1.1500000000000008
-0.14528179168701172,-1.678938865661621,-0.6782113313674927,1.1600000000000008
0.0681452751159668,-1.6986680030822754,-0.3287085294723511,1.1700000000000008
0.4849303960800171,-1.6914458274841309,-0.23778676986694336,1.1800000000000008
0.8798902034759521,-1.5640630722045898,-0.24494647979736328,1.1900000000000008
1.173774003982544,-1.4578313827514648,-0.289658784866333,1.2000000000000008
1.4718754291534424,-1.2916555404663086,-0.2820775508880615,1.2100000000000009
1.7148045301437378,-1.027547836303711,-0.2357271909713745,1.2200000000000009
1.8914076089859009,-0.6586294174194336,-0.12143874168395996,1.2300000000000009
2.002453327178955,-0.3835468292236328,-0.1212613582611084,1.2400000000000009
2.0194642543792725,-0.2045001983642578,-0.15673863887786865,1.2500000000000009
2.045058012008667,-0.12367820739746094,-0.1468290090560913,1.260000000000001
1.9450712203979492,-0.18396568298339844,-0.12028169631958008,1.270000000000001
1.7269185781478882,-0.24652385711669922,-0.0985875129699707,1.280000000000001
1.5993016958236694,-0.3975238800048828,-0.014664173126220703,1.290000000000001
1.3615610599517822,-0.5627346038818359,-0.11043703556060791,1.300000000000001
1.0782768726348877,-0.6870479583740234,-0.40794485807418823,1.310000000000001
0.9191924333572388,-0.7657232284545898,-0.4622545838356018,1.320000000000001
0.8194674253463745,-0.8323240280151367,-0.3211647868156433,1.330000000000001
0.7118014097213745,-0.9107532501220703,-0.14498108625411987,1.340000000000001
0.6532086133956909,-1.0440044403076172,0.020965516567230225,1.350000000000001
0.705501914024353,-1.0957021713256836,0.1793401837348938,1.360000000000001
0.6937786340713501,-1.080277442932129,0.28008514642715454,1.370000000000001
0.6633760929107666,-1.1627779006958008,0.31847620010375977,1.380000000000001
0.7147184610366821,-1.2522258758544922,0.28996533155441284,1.390000000000001
0.7044054269790649,-1.157327651977539,0.16572219133377075,1.400000000000001
0.6375695466995239,-1.0768108367919922,0.10129296779632568,1.410000000000001
0.5525437593460083,-1.1876001358032227,0.09184086322784424,1.420000000000001
0.5811262130737305,-1.2001705169677734,0.09437793493270874,1.430000000000001
0.4935896396636963,-1.0739860534667969,0.1327589750289917,1.440000000000001
0.474573016166687,-0.9455509185791016,0.27618032693862915,1.450000000000001
0.39993715286254883,-0.6212120056152344,0.43837666511535645,1.460000000000001
0.3557014465332031,-0.2589998245239258,0.559374213218689,1.470000000000001
0.31759321689605713,-0.13390350341796875,0.6609897613525391,1.480000000000001
0.3405792713165283,-0.14041519165039062,0.6980074644088745,1.490000000000001
0.3311110734939575,-0.17790985107421875,0.6395128965377808,1.500000000000001
0.29142510890960693,-0.25349998474121094,0.6102896928787231,1.5100000000000011
0.283547043800354,-0.29776763916015625,0.5866296291351318,1.5200000000000011
0.2187950611114502,-0.27484989166259766,0.527664065361023,1.5300000000000011
0.24782085418701172,-0.1895885467529297,0.5766636729240417,1.5400000000000011
0.25357675552368164,0.0033483505249023438,0.7599760293960571,1.5500000000000012
0.2553502321243286,0.34208202362060547,0.8570107817649841,1.5600000000000012
0.3558562397956848,0.6901588439941406,0.8241125345230103,1.5700000000000012
0.4163500666618347,0.9232158660888672,0.7758500576019287,1.5800000000000012
0.4556322693824768,1.1131610870361328,0.6737739443778992,1.5900000000000012
0.5191074013710022,1.1739568710327148,0.5655875205993652,1.6000000000000012
0.5709114074707031,1.2085628509521484,0.45111221075057983,1.6100000000000012
0.5392360091209412,1.0711450576782227,0.4642011523246765,1.6200000000000012
0.47687864303588867,0.8312454223632812,0.549926221370697,1.6300000000000012
0.46777820587158203,0.6946029663085938,0.7012114524841309,1.6400000000000012
0.5286417603492737,0.6921586990356445,0.7409180402755737,1.6500000000000012
0.6210603713989258,0.7543973922729492,0.72412109375,1.6600000000000013
0.8619706034660339,0.8119106292724609,0.7731550931930542,1.6700000000000013
1.0380338430404663,0.7834415435791016,0.8525522351264954,1.6800000000000013
1.3212476968765259,0.8340930938720703,0.9337378144264221,1.6900000000000013
1.534328579902649,0.8729162216186523,0.9713903665542603,1.7000000000000013
1.811040997505188,0.9716577529907227,1.063521146774292,1.7100000000000013
2.1010379791259766,1.19000244140625,1.135790467262268,1.7200000000000013
2.3228328227996826,1.4512672424316406,1.1616365909576416,1.7300000000000013
2.5266401767730713,1.6286535263061523,1.2222621440887451,1.7400000000000013
2.7602744102478027,1.6505022048950195,1.3389267921447754,1.7500000000000013
2.875436305999756,1.6054468154907227,1.3940794467926025,1.7600000000000013
2.850393056869507,1.4720239639282227,1.4305164813995361,1.7700000000000014
2.8140196800231934,1.4153356552124023,1.4986064434051514,1.7800000000000014
2.8522398471832275,1.3205013275146484,1.5386481285095215,1.7900000000000014
2.9385647773742676,1.3716621398925781,1.4501575231552124,1.8000000000000014
3.0029852390289307,1.5064411163330078,1.1850683689117432,1.8100000000000014
2.96085524559021,1.7725229263305664,0.8768834471702576,1.8200000000000014
2.8835959434509277,2.262955665588379,0.6829469203948975,1.8300000000000014
2.826066017150879,2.7646350860595703,0.6556000113487244,1.8400000000000014
2.6832611560821533,3.1770925521850586,0.6341926455497742,1.8500000000000014
2.6756083965301514,3.47171688079834,0.6016114950180054,1.8600000000000014
2.7627339363098145,3.5386571884155273,0.5984528064727783,1.8700000000000014
2.9377362728118896,3.4451494216918945,0.4738074541091919,1.8800000000000014
3.2057769298553467,3.2941951751708984,0.1747646927833557,1.8900000000000015
3.3926615715026855,3.0858659744262695,-0.23428350687026978,1.9000000000000015
3.51796293258667,2.9517574310302734,-0.6388359069824219,1.9100000000000015
3.498593330383301,2.901355743408203,-1.0202659368515015,1.9200000000000015
3.2731025218963623,2.7480697631835938,-1.386409044265747,1.9300000000000015
2.825204372406006,2.5303287506103516,-1.766767144203186,1.9400000000000015
2.220175266265869,2.2650184631347656,-2.130971908569336,1.9500000000000015
1.5041357278823853,1.9690380096435547,-2.4411768913269043,1.9600000000000015
0.9387627840042114,1.7692766189575195,-2.601827621459961,1.9700000000000015
0.031240850687026978,1.8499135971069336,-2.7158944606781006,1.9800000000000015
-0.6434144377708435,2.0410003662109375,-2.7643322944641113,1.9900000000000015
-1.1562645435333252,2.0365209579467773,-2.7689106464385986,2.0000000000000013
-1.811110019683838,2.169339179992676,-2.636472225189209,2.010000000000001
-2.248939037322998,2.186079978942871,-2.3424034118652344,2.020000000000001
-2.6707777976989746,1.9532079696655273,-1.9428037405014038,2.0300000000000007
-3.0813181400299072,1.6265983581542969,-1.5027376413345337,2.0400000000000005
-3.46389102935791,1.2159671783447266,-1.0701388120651245,2.0500000000000003
-3.6488265991210938,0.931757926940918,-0.6138472557067871,2.06
-3.79009747505188,0.6875514984130859,-0.169746994972229,2.07
-3.9275870323181152,0.6958608627319336,0.2571451663970947,2.0799999999999996
-3.80511474609375,0.8579368591308594,0.6647014617919922,2.0899999999999994
-3.4846224784851074,1.0415563583374023,0.9071887731552124,2.099999999999999
-2.9167914390563965,1.2056331634521484,0.7846438884735107,2.109999999999999
-2.355027914047241,1.2687864303588867,0.33660387992858887,2.1199999999999988
-2.009138584136963,1.233729362487793,-0.26502013206481934,2.1299999999999986
-1.775589942932129,1.1941604614257812,-0.8054627180099487,2.1399999999999983
-1.6518625020980835,1.0404987335205078,-1.1130658388137817,2.149999999999998
-1.558960199356079,0.8593807220458984,-1.159369707107544,2.159999999999998
-1.4340739250183105,0.7229337692260742,-0.9368566274642944,2.1699999999999977
-1.2063815593719482,0.7485742568969727,-0.6647061109542847,2.1799999999999975
-1.177610158920288,0.8119688034057617,-0.5157183408737183,2.1899999999999973
-1.397005558013916,0.9156179428100586,-0.5160536766052246,2.199999999999997
-1.4433867931365967,0.9424200057983398,-0.6053980588912964,2.209999999999997
-1.4868751764297485,0.8016948699951172,-0.7879798412322998,2.2199999999999966
-1.3669779300689697,0.6466608047485352,-1.125033974647522,2.2299999999999964
-1.1752026081085205,0.6446037292480469,-1.5937609672546387,2.239999999999996
-0.8842347264289856,0.7041511535644531,-2.120539665222168,2.249999999999996
-0.72529137134552,0.7123870849609375,-2.7488386631011963,2.259999999999996
-0.5578653812408447,0.8147468566894531,-3.4124042987823486,2.2699999999999956
-0.5836915373802185,0.8840303421020508,-3.947702169418335,2.2799999999999954
-0.5782091617584229,0.6787033081054688,-4.264145374298096,2.289999999999995
-0.631980299949646,0.3760261535644531,-4.297695159912109,2.299999999999995
-0.8166767358779907,-0.3348684310913086,-3.940960168838501,2.3099999999999947
-1.0845054388046265,-1.1428909301757812,-3.4282491207122803,2.3199999999999945
-1.2132171392440796,-2.1440744400024414,-2.6654114723205566,2.3299999999999943
-1.0429062843322754,-3.1860194206237793,-1.428457498550415,2.339999999999994
-0.9711578488349915,-4.185673713684082,-0.2403395175933838,2.349999999999994
-1.0552173852920532,-4.784475803375244,0.23389101028442383,2.3599999999999937
-0.9593738317489624,-4.918015480041504,0.07270359992980957,2.3699999999999934
-1.0252833366394043,-4.904470920562744,-0.5810062885284424,2.3799999999999932
-0.9118759632110596,-4.746214389801025,-1.1128830909729004,2.389999999999993
-0.869292140007019,-4.742276191711426,-1.4229860305786133,2.399999999999993
-0.8543147444725037,-4.667497158050537,-1.7322113513946533,2.4099999999999926
-0.797857403755188,-4.4523024559021,-1.9218354225158691,2.4199999999999924
-0.7002645134925842,-4.350024700164795,-2.0405666828155518,2.429999999999992
-0.6760169863700867,-4.20749044418335,-2.0455238819122314,2.439999999999992
-0.6025617718696594,-3.8791561126708984,-1.9363572597503662,2.4499999999999917
-0.6740254759788513,-3.55208683013916,-1.741271734237671,2.4599999999999915
-0.6895913481712341,-3.2433223724365234,-1.4741699695587158,2.4699999999999913
-0.630506157875061,-2.9460678100585938,-1.151146411895752,2.479999999999991
-0.6337490081787109,-2.7514286041259766,-0.8794379234313965,2.489999999999991
-0.5942458510398865,-2.559234619140625,-0.6726627349853516,2.4999999999999907
-0.6318193078041077,-2.5466418266296387,-0.525632381439209,2.5099999999999905
-0.7055703401565552,-2.5842795372009277,-0.49103283882141113,2.5199999999999902
-0.695513129234314,-2.760679244995117,-0.4824962615966797,2.52999999999999
-0.6472877264022827,-2.8987436294555664,-0.5693473815917969,2.53999999999999
-0.5827662348747253,-3.029458999633789,-0.6800549030303955,2.5499999999999896
-0.5568019151687622,-3.344179630279541,-0.7690656185150146,2.5599999999999894
-0.6293376684188843,-3.82354736328125,-0.8220541477203369,2.569999999999989
-0.6140683889389038,-4.063002109527588,-0.8586699962615967,2.579999999999989
-0.5993703603744507,-4.246888637542725,-0.7833974361419678,2.5899999999999888
-0.6091469526290894,-4.3131489753723145,-0.6297223567962646,2.5999999999999885
-0.5504136681556702,-4.450897693634033,-0.4644775390625,2.6099999999999883
-0.468975305557251,-4.5477094650268555,-0.2492213249206543,2.619999999999988
-0.480104923248291,-4.675379753112793,-0.048426151275634766,2.629999999999988
-0.43558114767074585,-4.7740702629089355,0.12367725372314453,2.6399999999999877
-0.5100107192993164,-4.815077781677246,0.3389315605163574,2.6499999999999875
-0.4738037884235382,-4.834336280822754,0.5855131149291992,2.6599999999999873
-0.4492069482803345,-4.826942443847656,0.7891793251037598,2.669999999999987
-0.493558406829834,-4.670827388763428,0.9977211952209473,2.679999999999987
-0.44138073921203613,-4.428025722503662,1.2226266860961914,2.6899999999999866
-0.41183075308799744,-4.091084957122803,1.3795437812805176,2.6999999999999864
-0.37832915782928467,-3.587855339050293,1.522552728652954,2.709999999999986
-0.32796430587768555,-2.9467363357543945,1.8084166049957275,2.719999999999986
-0.03704416751861572,-2.33473539352417,2.226083755493164,2.7299999999999858
0.2800089716911316,-1.6336932182312012,2.457308292388916,2.7399999999999856
0.7939388751983643,-0.767822265625,1.9715583324432373,2.7499999999999853
1.4598846435546875,0.4611368179321289,0.8085336685180664,2.759999999999985
1.7999897003173828,2.0214710235595703,-0.47306084632873535,2.769999999999985
1.9387006759643555,3.7896480560302734,-0.6860396862030029,2.7799999999999847
1.7565871477127075,5.801373481750488,0.42148828506469727,2.7899999999999845
0.8843110203742981,7.885437965393066,3.0214638710021973,2.7999999999999843
0.19154715538024902,9.269902229309082,6.369713306427002,2.809999999999984
0.11076653003692627,9.697538375854492,9.25958251953125,2.819999999999984
-0.0873422920703888,9.747597694396973,11.952924728393555,2.8299999999999836
-0.20622605085372925,9.625580787658691,12.826070785522461,2.8399999999999834
-0.2278299331665039,7.792236328125,11.681442260742188,2.849999999999983
0.2504870891571045,4.148828506469727,10.273656845092773,2.859999999999983
0.5328859090805054,-0.36534786224365234,8.109453201293945,2.869999999999983
0.6390928030014038,-4.323298931121826,6.160122871398926,2.8799999999999826
1.1142489910125732,-5.862364768981934,4.158236980438232,2.8899999999999824
1.6167047023773193,-5.382381439208984,1.2145113945007324,2.899999999999982
1.2052923440933228,-3.2345662117004395,-1.1751961708068848,2.909999999999982
-0.06178721785545349,-0.015230178833007812,-2.5153279304504395,2.9199999999999817
-1.217747688293457,3.5361557006835938,-3.658543348312378,2.9299999999999815
-1.25899338722229,7.021716117858887,-5.214841365814209,2.9399999999999813
-1.2684365510940552,10.214654922485352,-6.958922386169434,2.949999999999981
-2.4618940353393555,12.179916381835938,-8.11842155456543,2.959999999999981
-4.300586223602295,12.710868835449219,-7.912550926208496,2.9699999999999807
-7.500832557678223,11.620442390441895,-7.5149970054626465,2.9799999999999804
-9.328036308288574,9.279903411865234,-6.465112686157227,2.9899999999999802
-8.073817253112793,7.01728630065918,-2.860299587249756,2.99999999999998
-6.991024017333984,4.932284355163574,-0.4324650764465332,3.00999999999998
-5.038431644439697,3.975752830505371,0.7125463485717773,3.0199999999999796
-3.9813923835754395,5.176857948303223,0.6673626899719238,3.0299999999999794
-3.5667340755462646,5.963820457458496,0.4064645767211914,3.039999999999979
-2.9826912879943848,4.691764831542969,-0.1096658706665039,3.049999999999979
-2.879035472869873,2.280266761779785,-1.6556894779205322,3.0599999999999787
-2.9250850677490234,0.33109092712402344,-3.266118049621582,3.0699999999999785
-2.6620640754699707,-0.8823776245117188,-4.348501205444336,3.0799999999999783
-2.397927761077881,-1.037093162536621,-4.8246965408325195,3.089999999999978
-2.2787792682647705,-0.3517646789550781,-4.777369976043701,3.099999999999978
-2.10207462310791,0.5136318206787109,-4.68044376373291,3.1099999999999777
-1.810068130493164,1.3198919296264648,-4.670578479766846,3.1199999999999775
-1.1577038764953613,2.0596418380737305,-4.570007801055908,3.1299999999999772
-0.46887797117233276,2.567376136779785,-4.338894367218018,3.139999999999977
0.23677963018417358,2.6966676712036133,-4.089795112609863,3.149999999999977
0.8122391104698181,2.5765371322631836,-4.091172695159912,3.1599999999999766
1.1066757440567017,2.080500602722168,-4.105306625366211,3.1699999999999764
1.2782870531082153,1.331583023071289,-4.243049621582031,3.179999999999976
1.2650549411773682,0.5750207901000977,-4.310117244720459,3.189999999999976
1.13662850856781,-0.008653640747070312,-4.333077907562256,3.1999999999999758
1.00687575340271,-0.3565206527709961,-4.2905073165893555,3.2099999999999755
0.9307560920715332,-0.5805540084838867,-4.2587971687316895,3.2199999999999753
0.7717387676239014,-0.5467643737792969,-4.179355621337891,3.229999999999975
0.3674648404121399,-0.33197593688964844,-4.086073398590088,3.239999999999975
0.0646941065788269,-0.07764053344726562,-3.8807668685913086,3.2499999999999747
-0.25178655982017517,0.09650897979736328,-3.565812587738037,3.2599999999999745
-0.487032413482666,0.06369209289550781,-3.0668821334838867,3.2699999999999743
-0.4338771104812622,-0.17586612701416016,-2.716524839401245,3.279999999999974
-0.38565999269485474,-0.4784526824951172,-2.3088436126708984,3.289999999999974
-0.12550213932991028,-0.8082113265991211,-1.9632165431976318,3.2999999999999736
0.32445287704467773,-1.260824203491211,-1.6793909072875977,3.3099999999999734
0.6429525017738342,-1.525345802307129,-1.4762372970581055,3.319999999999973
0.7932860255241394,-1.8530488014221191,-1.3010174036026,3.329999999999973
0.9474968314170837,-1.997706413269043,-0.9523293972015381,3.3399999999999728
1.137235403060913,-2.1629395484924316,-0.7312699556350708,3.3499999999999726
1.1980540752410889,-2.2698874473571777,-0.604074239730835,3.3599999999999723
1.2433745861053467,-2.44309139251709,-0.4483916759490967,3.369999999999972
1.0276718139648438,-2.649167060852051,-0.42154645919799805,3.379999999999972
0.7789053916931152,-2.8929052352905273,-0.5161237716674805,3.3899999999999717
0.6077585816383362,-3.1216940879821777,-0.7319889068603516,3.3999999999999715
0.5150765776634216,-3.24947452545166,-0.9760669469833374,3.4099999999999713
0.6089650392532349,-3.3957929611206055,-1.2492551803588867,3.419999999999971
0.7003742456436157,-3.2329254150390625,-1.4518568515777588,3.429999999999971
0.6981249451637268,-2.8903989791870117,-1.4428422451019287,3.4399999999999706
0.5995038151741028,-2.4976091384887695,-1.4397751092910767,3.4499999999999704
0.5670109987258911,-2.104919910430908,-1.2891919612884521,3.45999999999997
0.4350164532661438,-1.7242765426635742,-1.1848304271697998,3.46999999999997
0.29379886388778687,-1.4440526962280273,-1.114866018295288,3.47999999999997
0.28201740980148315,-1.3238449096679688,-1.0007638931274414,3.4899999999999696
0.28961437940597534,-1.253434181213379,-0.840583324432373,3.4999999999999694
0.25202882289886475,-1.096491813659668,-0.5650702118873596,3.509999999999969
0.31501561403274536,-1.1065731048583984,-0.35387659072875977,3.519999999999969
0.5095494985580444,-1.0730648040771484,-0.20466125011444092,3.5299999999999687
0.6005725264549255,-1.1705904006958008,-0.019021987915039062,3.5399999999999685
0.8027660846710205,-1.0905933380126953,0.19422507286071777,3.5499999999999683
1.1381855010986328,-1.3115339279174805,0.3867166042327881,3.559999999999968
1.3080552816390991,-1.342844009399414,0.6512446403503418,3.569999999999968
1.2577970027923584,-1.3738126754760742,1.043622612953186,3.5799999999999677
1.195803165435791,-1.4763002395629883,1.2178750038146973,3.5899999999999674
1.2490230798721313,-1.4733457565307617,1.248832106590271,3.5999999999999672
1.3362452983856201,-1.4368782043457031,1.1561967134475708,3.609999999999967
1.426560401916504,-1.3430824279785156,1.0577071905136108,3.619999999999967
1.558401346206665,-1.2279224395751953,0.8865872621536255,3.6299999999999666
1.6771043539047241,-1.0244770050048828,0.6905707120895386,3.6399999999999664
1.6681921482086182,-0.8165750503540039,0.560697078704834,3.649999999999966
1.7093749046325684,-0.6521215438842773,0.5115891098976135,3.659999999999966
1.619560718536377,-0.5311050415039062,0.39235711097717285,3.6699999999999657
1.5261728763580322,-0.4199810028076172,0.2741374373435974,3.6799999999999655
1.4605388641357422,-0.36411380767822266,0.2468830943107605,3.6899999999999653
1.2282333374023438,-0.511570930480957,0.28129255771636963,3.699999999999965
1.1163302659988403,-0.6444606781005859,0.22836685180664062,3.709999999999965
1.0071730613708496,-0.8870687484741211,0.14957264065742493,3.7199999999999647
0.7019177675247192,-1.0479297637939453,-0.04155546426773071,3.7299999999999645
0.1887776255607605,-0.971745491027832,-0.21311572194099426,3.7399999999999642
-0.18749207258224487,-0.8788690567016602,0.08073925971984863,3.749999999999964
-0.3047384023666382,-1.0132780075073242,0.3574821650981903,3.759999999999964
-0.4385412633419037,-1.0948686599731445,0.4132969081401825,3.7699999999999636
-0.5941617488861084,-1.1427593231201172,0.4246353507041931,3.7799999999999634
-0.5881487131118774,-0.9871549606323242,0.2454136461019516,3.789999999999963
-0.6221427917480469,-0.8817424774169922,0.11833281815052032,3.799999999999963
-0.6010950803756714,-0.7499008178710938,0.0033294185996055603,3.8099999999999627
-0.7123293876647949,-0.3285808563232422,-0.28648510575294495,3.8199999999999625
-0.45600566267967224,-0.06528663635253906,-0.06209751218557358,3.8299999999999623
-0.31596681475639343,0.09279441833496094,0.14947408437728882,3.839999999999962
-0.14409291744232178,0.10992908477783203,0.3837766945362091,3.849999999999962
-0.021799027919769287,0.05800342559814453,0.563971757888794,3.8599999999999617
-0.03245168924331665,0.0016222000122070312,0.637656033039093,3.8699999999999615
-0.03216606378555298,-0.009027481079101562,0.6267824769020081,3.8799999999999613
-0.0805540680885315,0.05706310272216797,0.6515675783157349,3.889999999999961
0.009362280368804932,0.2643404006958008,0.6502960324287415,3.899999999999961
0.03936105966567993,0.5241365432739258,0.6351866722106934,3.9099999999999606
0.17719513177871704,0.7742061614990234,0.6204743385314941,3.9199999999999604
0.29853472113609314,0.9547691345214844,0.5292066335678101,3.92999999999996
0.42987456917762756,1.030024528503418,0.4853903651237488,3.93999999999996
0.5901763439178467,1.0407543182373047,0.5389916896820068,3.9499999999999598
0.7243719100952148,1.042038917541504,0.6159939765930176,3.9599999999999596
0.9787113666534424,1.1510448455810547,0.7380438446998596,3.9699999999999593
1.2958511114120483,1.355682373046875,0.8572918176651001,3.979999999999959
1.6157872676849365,1.500406265258789,0.904233992099762,3.989999999999959
2.0076191425323486,1.5948610305786133,0.9410673379898071,3.9999999999999587
2.3417794704437256,1.7036628723144531,0.8599141836166382,4.009999999999959
2.6657674312591553,1.9224395751953125,0.7302356958389282,4.019999999999959
2.9173057079315186,2.210399627685547,0.6932224035263062,4.0299999999999585
3.1394503116607666,2.4550580978393555,0.7031470537185669,4.039999999999958
3.2292630672454834,2.675558090209961,0.7356019616127014,4.049999999999958
3.2730770111083984,2.864710807800293,0.8068406581878662,4.059999999999958
3.2519774436950684,2.8288230895996094,0.9952645301818848,4.069999999999958
3.192465305328369,2.7331161499023438,1.17123281955719,4.079999999999957
3.118345022201538,2.5728368759155273,1.3677998781204224,4.089999999999957
2.9434545040130615,2.469967842102051,1.5869519710540771,4.099999999999957
2.7511515617370605,2.331157684326172,1.8667738437652588,4.109999999999957
2.5698888301849365,2.2066545486450195,2.185676097869873,4.119999999999957
2.341799736022949,2.101207733154297,2.407294511795044,4.129999999999956
2.2818288803100586,2.084136962890625,2.577338695526123,4.139999999999956
2.075608491897583,2.260540008544922,2.447299003601074,4.149999999999956
1.9971723556518555,2.5153932571411133,2.180162191390991,4.159999999999956
2.1318275928497314,2.745779037475586,1.941162109375,4.1699999999999555
2.2929389476776123,2.9756059646606445,1.619692087173462,4.179999999999955
2.4544520378112793,3.302837371826172,1.2001806497573853,4.189999999999955
2.5688283443450928,3.548006057739258,1.016729712486267,4.199999999999955
2.739297866821289,3.505634307861328,0.9470235705375671,4.209999999999955
2.9612233638763428,3.228778839111328,0.8454543948173523,4.2199999999999545
3.2566802501678467,2.8971519470214844,0.48254653811454773,4.229999999999954
3.3555071353912354,2.482168197631836,-0.06581687927246094,4.239999999999954
3.480553388595581,2.027052879333496,-0.6136598587036133,4.249999999999954
3.3903253078460693,1.6276273727416992,-1.1206386089324951,4.259999999999954
3.3868701457977295,1.0137968063354492,-1.5194895267486572,4.269999999999953
3.176776885986328,0.475311279296875,-2.1186418533325195,4.279999999999953
2.8139660358428955,0.17960834503173828,-2.6692235469818115,4.289999999999953
2.359769582748413,-0.007365226745605469,-2.9821555614471436,4.299999999999953
1.751165509223938,0.0028600692749023438,-3.0159647464752197,4.3099999999999525
0.9895133376121521,0.0642852783203125,-2.8461568355560303,4.319999999999952
0.06590414047241211,0.1697397232055664,-2.6414954662323,4.329999999999952
-0.6649757623672485,0.25226688385009766,-2.5567784309387207,4.339999999999952
-1.2821627855300903,0.32385826110839844,-2.408851385116577,4.349999999999952
-1.8083326816558838,0.27208709716796875,-2.0689778327941895,4.3599999999999515
-2.163782835006714,0.2117443084716797,-1.6762707233428955,4.369999999999951
-2.4057791233062744,0.2861490249633789,-1.2341434955596924,4.379999999999951
-2.392072916030884,0.47827625274658203,-0.8333600759506226,4.389999999999951
-2.2745347023010254,0.761627197265625,-0.4003632664680481,4.399999999999951
-2.193065881729126,1.1360359191894531,0.028601408004760742,4.40999999999995
-2.2245638370513916,1.6085643768310547,0.34037327766418457,4.41999999999995
-2.322976589202881,1.9735727310180664,0.45462584495544434,4.42999999999995
-2.6112492084503174,2.3247432708740234,0.43837010860443115,4.43999999999995
-2.934791326522827,2.595531463623047,0.38244104385375977,4.4499999999999496
-3.2537264823913574,2.7552270889282227,0.4554018974304199,4.459999999999949
-3.5618889331817627,2.842349052429199,0.592566967010498,4.469999999999949
-3.8032732009887695,2.868971824645996,0.5841375589370728,4.479999999999949
-3.8309719562530518,2.847100257873535,0.31879961490631104,4.489999999999949
-3.4822845458984375,2.6883058547973633,-0.11149561405181885,4.4999999999999485
-2.9623610973358154,2.770486831665039,-0.614656925201416,4.509999999999948
-2.270940065383911,2.438065528869629,-1.1585242748260498,4.519999999999948
-1.7038918733596802,2.071619987487793,-1.7542387247085571,4.529999999999948
-1.315146565437317,1.5803098678588867,-2.2629082202911377,4.539999999999948
-0.8853974938392639,1.0671510696411133,-2.7374320030212402,4.549999999999947
-0.6335221529006958,0.7473535537719727,-3.0295751094818115,4.559999999999947
-0.6040539145469666,0.3291177749633789,-3.1114342212677,4.569999999999947
-0.47607097029685974,-0.18018817901611328,-2.9476213455200195,4.579999999999947
-0.47886189818382263,-0.8164892196655273,-2.664499044418335,4.589999999999947
-0.5117332339286804,-1.6325626373291016,-2.2802817821502686,4.599999999999946
-0.4377484917640686,-2.3801774978637695,-1.7429553270339966,4.609999999999946
-0.5461460947990417,-3.289867401123047,-1.1221237182617188,4.619999999999946
-0.6392470598220825,-4.0153117179870605,-0.8901546001434326,4.629999999999946
-0.8219265937805176,-4.508825778961182,-0.8991129398345947,4.6399999999999455
-0.6916952133178711,-4.352052211761475,-1.0133936405181885,4.649999999999945
-0.5327876806259155,-4.481100559234619,-1.1342401504516602,4.659999999999945
-0.390816330909729,-4.582604885101318,-1.3547308444976807,4.669999999999945
-0.21764017641544342,-4.97710657119751,-1.5624947547912598,4.679999999999945
-0.0964406207203865,-5.329408168792725,-1.8058853149414062,4.689999999999944
-0.14373254776000977,-5.644354820251465,-2.0636003017425537,4.699999999999944
-0.06761787831783295,-5.733067512512207,-2.1828994750976562,4.709999999999944
0.10340821743011475,-5.799108982086182,-2.1712703704833984,4.719999999999944
0.07038252055644989,-5.653682231903076,-2.181939125061035,4.729999999999944
0.02730279043316841,-5.187142372131348,-2.1287989616394043,4.739999999999943
0.012025130912661552,-4.589049339294434,-1.9613163471221924,4.749999999999943
-0.047570519149303436,-4.058278560638428,-1.7127399444580078,4.759999999999943
-0.077415831387043,-3.618844985961914,-1.5503110885620117,4.769999999999943
-0.09658783674240112,-3.4022746086120605,-1.4881384372711182,4.7799999999999425
-0.23943307995796204,-3.317474365234375,-1.483078956604004,4.789999999999942
-0.37682393193244934,-3.4837827682495117,-1.5806987285614014,4.799999999999942
-0.4733923375606537,-3.6977601051330566,-1.5535483360290527,4.809999999999942
-0.5610847473144531,-3.7204132080078125,-1.489959955215454,4.819999999999942
-0.5951130986213684,-3.793689250946045,-1.3680839538574219,4.8299999999999415
-0.666827917098999,-3.908224105834961,-1.2711730003356934,4.839999999999941
-0.6832391619682312,-4.061679363250732,-1.1272377967834473,4.849999999999941
-0.8477294445037842,-4.222995281219482,-0.9217839241027832,4.859999999999941
-0.8639235496520996,-4.294239044189453,-0.6784756183624268,4.869999999999941
-0.7896808385848999,-4.364008903503418,-0.46652984619140625,4.87999999999994
-0.7877679467201233,-4.432157039642334,-0.24297785758972168,4.88999999999994
-0.7573826909065247,-4.476851463317871,-0.013031482696533203,4.89999999999994
-0.7247137427330017,-4.481065273284912,0.2778816223144531,4.90999999999994
-0.6347841620445251,-4.504255294799805,0.5430903434753418,4.9199999999999395
-0.5569727420806885,-4.404868125915527,0.750838041305542,4.929999999999939
-0.4768757224082947,-4.225560188293457,0.8931021690368652,4.939999999999939
-0.4875843822956085,-3.9992318153381348,1.0069150924682617,4.949999999999939
-0.6510119438171387,-3.648803234100342,1.2129883766174316,4.959999999999939
-0.6102079153060913,-3.255263328552246,1.660820722579956,4.9699999999999385
-0.40795964002609253,-2.755847454071045,2.152458906173706,4.979999999999938
-0.012316018342971802,-2.19992733001709,2.369631767272949,4.989999999999938
0.29051971435546875,-1.4645204544067383,2.4243032932281494,4.999999999999938
0.769700288772583,-0.5514049530029297,2.428752899169922,5.009999999999938
1.1104298830032349,0.6570758819580078,2.3470983505249023,5.019999999999937
1.6724773645401,2.0150747299194336,2.2687132358551025,5.029999999999937
2.0583088397979736,3.393599510192871,2.245004892349243,5.039999999999937
2.332972526550293,4.912528038024902,2.451918363571167,5.049999999999937
2.2592477798461914,6.538453102111816,3.0466721057891846,5.0599999999999365
1.612334966659546,7.4891767501831055,4.041833877563477,5.069999999999936
1.2458455562591553,7.355924606323242,5.291238784790039,5.079999999999936
0.9443979859352112,6.796526908874512,6.501499176025391,5.089999999999936
0.3944644629955292,6.264606475830078,7.090264320373535,5.099999999999936
-0.08422839641571045,5.565049171447754,7.1405792236328125,5.1099999999999355
-0.41124486923217773,4.361547470092773,6.864948272705078,5.119999999999935
-0.5787537097930908,2.371151924133301,6.381270408630371,5.129999999999935
-1.1049211025238037,0.666346549987793,4.507512092590332,5.139999999999935
-1.6276129484176636,0.3958559036254883,1.7728948593139648,5.149999999999935
-1.499438762664795,2.553755760192871,0.2105565071105957,5.159999999999934
-1.945815920829773,5.478697776794434,-0.6897644996643066,5.169999999999934
-3.0019776821136475,8.725934982299805,-1.3650238513946533,5.179999999999934
-3.6897594928741455,12.29508113861084,-2.7040278911590576,5.189999999999934
-4.234887599945068,14.955765724182129,-3.5891072750091553,5.199999999999934
-3.9222168922424316,15.509173393249512,-3.5220727920532227,5.209999999999933
-3.4810824394226074,13.81175422668457,-3.209768533706665,5.219999999999933
-4.110800743103027,10.848527908325195,-2.929530143737793,5.229999999999933
-4.9972028732299805,7.363093376159668,-2.3558969497680664,5.239999999999933
-5.747368335723877,3.6411123275756836,-2.1626477241516113,5.2499999999999325
-6.1712212562561035,1.1981925964355469,-2.735633611679077,5.259999999999932
-6.059741497039795,0.27156829833984375,-2.803256034851074,5.269999999999932
-4.875475883483887,0.7026405334472656,-1.3247954845428467,5.279999999999932
-3.546652317047119,0.6819906234741211,-1.225949764251709,5.289999999999932
-2.7712674140930176,-0.016979217529296875,-2.0485689640045166,5.299999999999931
-2.2786266803741455,-0.8929166793823242,-2.8465240001678467,5.309999999999931
-1.9410221576690674,-1.3437690734863281,-3.5110063552856445,5.319999999999931
-1.5443216562271118,-1.0970573425292969,-3.8495543003082275,5.329999999999931
-1.0815069675445557,-0.30728816986083984,-4.000191688537598,5.339999999999931
-0.6277077198028564,0.8479537963867188,-4.082729816436768,5.34999999999993
0.09526655077934265,2.096865653991699,-4.089914321899414,5.35999999999993
1.0175260305404663,3.095996856689453,-3.9301071166992188,5.36999999999993
2.0348076820373535,3.75115966796875,-3.774963855743408,5.37999999999993
2.9814436435699463,3.949488639831543,-3.80370831489563,5.3899999999999295
3.278151750564575,3.5836668014526367,-4.2086029052734375,5.399999999999929
3.1007461547851562,2.7240447998046875,-4.6114325523376465,5.409999999999929
2.6826772689819336,1.5918149948120117,-4.819180488586426,5.419999999999929
2.3579390048980713,0.3915271759033203,-4.967576503753662,5.429999999999929
1.8291493654251099,-0.6339731216430664,-5.087885856628418,5.4399999999999284
1.3019875288009644,-1.4213733673095703,-5.21441125869751,5.449999999999928
0.8168085217475891,-1.747267723083496,-5.250296592712402,5.459999999999928
0.40387147665023804,-1.4750466346740723,-4.906783103942871,5.469999999999928
0.061526358127593994,-0.9254398345947266,-4.37026834487915,5.479999999999928
-0.38997751474380493,-0.350067138671875,-3.389862060546875,5.489999999999927
-0.7368744015693665,-0.005405426025390625,-2.2993075847625732,5.499999999999927
-0.9563723206520081,-0.023450851440429688,-1.26149582862854,5.509999999999927
-1.0417871475219727,-0.4258289337158203,-0.645294189453125,5.519999999999927
-0.9405093193054199,-1.0234241485595703,-0.3034992218017578,5.5299999999999265
-0.7482673525810242,-1.7107691764831543,-0.1305713653564453,5.539999999999926
-0.5253293514251709,-2.379812240600586,-0.14878320693969727,5.549999999999926
-0.31726551055908203,-2.8842926025390625,-0.4048013687133789,5.559999999999926
-0.18844002485275269,-3.1835689544677734,-0.5979520082473755,5.569999999999926
0.0147627592086792,-3.4333906173706055,-0.7164719104766846,5.5799999999999255
0.1706397533416748,-3.445159912109375,-0.826836347579956,5.589999999999925
0.20775210857391357,-3.4466872215270996,-0.93266761302948,5.599999999999925
0.1720883846282959,-3.3713631629943848,-1.2265305519104004,5.609999999999925
0.10689866542816162,-3.2241787910461426,-1.6240425109863281,5.619999999999925
0.024352312088012695,-3.1963863372802734,-2.0921616554260254,5.629999999999924
0.05881667137145996,-2.9960174560546875,-2.473681926727295,5.639999999999924
0.04521739482879639,-2.663738250732422,-2.8415064811706543,5.649999999999924
0.10312974452972412,-2.2617082595825195,-3.0962700843811035,5.659999999999924
0.07676315307617188,-1.7254419326782227,-3.104435443878174,5.6699999999999235
0.016152143478393555,-1.3253898620605469,-2.930548667907715,5.679999999999923
-0.19325679540634155,-0.7962465286254883,-2.5258586406707764,5.689999999999923
-0.40543878078460693,-0.5856008529663086,-2.0732009410858154,5.699999999999923
-0.6156860589981079,-0.568903923034668,-1.7100613117218018,5.709999999999923
-0.7383228540420532,-0.6192073822021484,-1.509753704071045,5.7199999999999225
-0.538752019405365,-0.8008747100830078,-1.436942458152771,5.729999999999922
-0.21001625061035156,-1.3263092041015625,-1.2451728582382202,5.739999999999922
-0.2211819291114807,-1.4345035552978516,-0.8093782663345337,5.749999999999922
-0.2591937184333801,-1.5013399124145508,-0.13242769241333008,5.759999999999922
-0.17613738775253296,-1.5795259475708008,0.35537731647491455,5.769999999999921
0.020794987678527832,-1.508932113647461,0.5661070346832275,5.779999999999921
0.2334669828414917,-1.3137006759643555,0.5695297122001648,5.789999999999921
0.40910911560058594,-1.1972455978393555,0.4066362977027893,5.799999999999921
0.6625411510467529,-0.9610300064086914,0.10156035423278809,5.809999999999921
0.7639815807342529,-0.882624626159668,-0.19665217399597168,5.81999999999992
0.9504917860031128,-0.9188899993896484,-0.3842209279537201,5.82999999999992
1.0238256454467773,-0.9262714385986328,-0.6473249793052673,5.83999999999992
0.9891784191131592,-0.7541847229003906,-1.0670275688171387,5.84999999999992
0.8942538499832153,-0.8332061767578125,-1.4013910293579102,5.8599999999999195
0.6983679533004761,-0.9358158111572266,-1.7796928882598877,5.869999999999919
0.45641374588012695,-0.9997482299804688,-1.9988210201263428,5.879999999999919
0.24739885330200195,-1.0799903869628906,-2.067005157470703,5.889999999999919
-0.05543583631515503,-1.0951919555664062,-1.9470223188400269,5.899999999999919
-0.41141629219055176,-1.0238838195800781,-1.6186506748199463,5.909999999999918
-0.703509509563446,-0.7585630416870117,-1.239112138748169,5.919999999999918
-1.0879340171813965,-0.31857967376708984,-0.9482857584953308,5.929999999999918
-1.182306170463562,0.006481170654296875,-0.29159075021743774,5.939999999999918
-1.255046010017395,0.1401958465576172,0.4679669737815857,5.949999999999918
-1.2539315223693848,0.2884092330932617,1.005479097366333,5.959999999999917
-1.1363227367401123,0.31957149505615234,1.386375904083252,5.969999999999917
-0.99122554063797,0.35337257385253906,1.5273717641830444,5.979999999999917
-0.7616456747055054,0.3228464126586914,1.4264734983444214,5.989999999999917
-0.540669322013855,0.21607303619384766,1.3118964433670044,5.9999999999999165
-0.30433472990989685,0.09052181243896484,1.1293498277664185,6.009999999999916
0.028595387935638428,-0.05138969421386719,0.9442099928855896,6.019999999999916
0.3672811985015869,-0.14029979705810547,0.728486955165863,6.029999999999916
0.6589650511741638,-0.2695016860961914,0.5714126825332642,6.039999999999916
0.951655387878418,-0.35285282135009766,0.41117599606513977,6.0499999999999154
1.2027628421783447,-0.26369190216064453,0.25996407866477966,6.059999999999915
1.4150161743164062,-0.08831119537353516,0.12738415598869324,6.069999999999915
1.488286018371582,0.07513999938964844,0.03481227159500122,6.079999999999915
1.6140528917312622,0.25058650970458984,0.07015836238861084,6.089999999999915
1.6655157804489136,0.47623538970947266,0.16794613003730774,6.099999999999914
1.702779769897461,0.6539478302001953,0.3442246615886688,6.109999999999914
1.7621510028839111,0.9080677032470703,0.5147489309310913,6.119999999999914
1.6258478164672852,1.142822265625,0.6383832097053528,6.129999999999914
1.564347743988037,1.312739372253418,0.7240321636199951,6.1399999999999135
1.479849100112915,1.5039091110229492,0.7521075010299683,6.149999999999913
1.4897804260253906,1.692336082458496,0.8298940062522888,6.159999999999913
1.3931851387023926,1.8588857650756836,0.8833967447280884,6.169999999999913
1.340818166732788,1.967759132385254,0.9706707000732422,6.179999999999913
1.2726967334747314,2.0931777954101562,0.9748494625091553,6.1899999999999125
1.2581404447555542,2.208828926086426,0.9464343786239624,6.199999999999912
1.3255658149719238,2.257354736328125,0.9860246777534485,6.209999999999912
1.4100269079208374,2.277118682861328,1.0722253322601318,6.219999999999912
1.4895256757736206,2.1725387573242188,1.11907958984375,6.229999999999912
1.637763261795044,2.103978157043457,1.088404893875122,6.239999999999911
1.718111276626587,2.0427093505859375,1.066519021987915,6.249999999999911
1.864420771598816,2.0078630447387695,1.0894800424575806,6.259999999999911
1.9501280784606934,1.970712661743164,1.1119236946105957,6.269999999999911
2.0565037727355957,1.8786306381225586,1.1671264171600342,6.2799999999999105
2.1309375762939453,1.6958017349243164,1.2621392011642456,6.28999999999991
2.171328067779541,1.5203571319580078,1.415961742401123,6.29999999999991
2.1537795066833496,1.3833551406860352,1.5734374523162842,6.30999999999991
2.138339042663574,1.2082271575927734,1.844585657119751,6.31999999999991
2.1418421268463135,1.0691442489624023,2.0762686729431152,6.3299999999999095
2.1451141834259033,0.9708175659179688,2.2348623275756836,6.339999999999909
2.207900285720825,0.8940296173095703,2.3512251377105713,6.349999999999909
2.306105136871338,0.8315277099609375,2.3675880432128906,6.359999999999909
2.4299466609954834,0.7712774276733398,2.3816165924072266,6.369999999999909
2.4881067276000977,0.8328037261962891,2.2568228244781494,6.379999999999908
2.638211965560913,0.8556737899780273,2.1003355979919434,6.389999999999908
2.7266852855682373,1.0024528503417969,1.7656620740890503,6.399999999999908
2.7171735763549805,1.2538042068481445,1.3051700592041016,6.409999999999908
2.7145822048187256,1.5139350891113281,0.8742741346359253,6.419999999999908
2.5149593353271484,1.7708606719970703,0.4152677655220032,6.429999999999907
2.343017578125,2.1441402435302734,0.04998880624771118,6.439999999999907
2.225471258163452,2.49501895904541,-0.10655856132507324,6.449999999999907
2.0097949504852295,2.7638206481933594,-0.08298671245574951,6.459999999999907
1.8523075580596924,2.845489501953125,0.012871325016021729,6.4699999999999065
1.724821925163269,2.479654312133789,0.18298864364624023,6.479999999999906
1.5247224569320679,2.137929916381836,0.3931792974472046,6.489999999999906
1.381551742553711,1.7150602340698242,0.5154181122779846,6.499999999999906
1.4364593029022217,1.50048828125,0.4887816309928894,6.509999999999906
1.6942452192306519,1.321868896484375,0.3124595880508423,6.519999999999905
1.9779253005981445,1.296462059020996,0.0719251036643982,6.529999999999905
2.1729719638824463,1.4123077392578125,-0.17842990159988403,6.539999999999905
2.074066162109375,1.5212574005126953,-0.344987690448761,6.549999999999905
1.7701290845870972,1.623642921447754,-0.40015652775764465,6.559999999999905
1.2540125846862793,1.5428152084350586,-0.5220953822135925,6.569999999999904
0.5999915599822998,1.3605384826660156,-0.6716368794441223,6.579999999999904
0.15067413449287415,1.1584510803222656,-0.7188647985458374,6.589999999999904
-0.2252141237258911,0.8195819854736328,-0.7366759777069092,6.599999999999904
-0.563636302947998,0.5617494583129883,-0.8370531797409058,6.6099999999999035
-0.9628680348396301,0.28665733337402344,-0.9462080597877502,6.619999999999903
-1.396713376045227,0.12307548522949219,-1.103003978729248,6.629999999999903
-1.8172558546066284,-0.07781219482421875,-1.4843945503234863,6.639999999999903
-1.9896478652954102,-0.2588968276977539,-1.922696590423584,6.649999999999903
-2.291797637939453,-0.5709228515625,-2.2695767879486084,6.659999999999902
-2.456035852432251,-0.7769041061401367,-2.2244937419891357,6.669999999999902
-2.485363721847534,-0.9006814956665039,-1.7525403499603271,6.679999999999902
-2.579163074493408,-0.8583393096923828,-1.1441810131072998,6.689999999999902
-2.5003888607025146,-0.5611972808837891,-0.5530639290809631,6.699999999999902
-2.1480906009674072,0.009953498840332031,0.02612936496734619,6.709999999999901
-1.8595856428146362,0.5536890029907227,0.5743814706802368,6.719999999999901
-1.761911153793335,0.9982233047485352,1.0363069772720337,6.729999999999901
-2.0417516231536865,1.3816614151000977,1.2998006343841553,6.739999999999901
-2.444870710372925,1.777923583984375,1.3646522760391235,6.7499999999999005
-2.76438307762146,2.244283676147461,1.0236091613769531,6.7599999999999
-2.819972276687622,2.720974922180176,0.4010024070739746,6.7699999999999
-2.7690775394439697,3.0958023071289062,-0.28368496894836426,6.7799999999999
-2.3891355991363525,3.2160911560058594,-0.9570294618606567,6.7899999999999
-2.0642409324645996,3.0606460571289062,-1.487288236618042,6.7999999999998995
-1.75300931930542,2.579500198364258,-1.9003803730010986,6.809999999999899
-1.3848179578781128,1.9331378936767578,-2.2222139835357666,6.819999999999899
-1.1306333541870117,1.2697839736938477,-2.483206272125244,6.829999999999899
-1.1531119346618652,0.9309415817260742,-2.593730926513672,6.839999999999899
-0.8627356886863708,0.6572084426879883,-2.7192790508270264,6.849999999999898
-0.7243975400924683,0.28553295135498047,-2.8305201530456543,6.859999999999898
-0.7040141820907593,-0.39681148529052734,-2.822610855102539,6.869999999999898
-0.7635130882263184,-1.0160703659057617,-2.7639408111572266,6.879999999999898
-1.1099162101745605,-1.6177301406860352,-2.508955717086792,6.8899999999998975
-1.2759685516357422,-2.5155105590820312,-2.0663530826568604,6.899999999999897
-1.2087757587432861,-3.319817066192627,-1.724528431892395,6.909999999999897
-1.1108580827713013,-4.033617973327637,-1.4633255004882812,6.919999999999897
-0.9794204831123352,-4.501864910125732,-1.4306154251098633,6.929999999999897
-0.8149034976959229,-4.897091388702393,-1.3944342136383057,6.9399999999998965
-0.6156038641929626,-5.161827087402344,-1.4082024097442627,6.949999999999896
-0.32635271549224854,-5.482688903808594,-1.3718287944793701,6.959999999999896
-0.09927771985530853,-5.833270072937012,-1.4410574436187744,6.969999999999896
0.07592172920703888,-6.038898944854736,-1.5754764080047607,6.979999999999896
0.019968479871749878,-6.001590728759766,-1.773094892501831,6.989999999999895
0.14240428805351257,-5.7718634605407715,-1.840285301208496,6.999999999999895
0.19219805300235748,-5.503229141235352,-1.760063886642456,7.009999999999895
0.14770762622356415,-5.062168121337891,-1.6109344959259033,7.019999999999895
0.16688746213912964,-4.619042873382568,-1.423375129699707,7.0299999999998946
0.07504798471927643,-4.305592060089111,-1.3262088298797607,7.039999999999894
0.04390154778957367,-3.9807772636413574,-1.295123815536499,7.049999999999894
-0.008378848433494568,-3.8407087326049805,-1.3109686374664307,7.059999999999894
-0.022504478693008423,-3.8063035011291504,-1.2875776290893555,7.069999999999894
-0.04193335771560669,-3.884644031524658,-1.198667049407959,7.0799999999998935
-0.12681779265403748,-4.066073894500732,-1.0083646774291992,7.089999999999893
-0.24890457093715668,-4.23092794418335,-0.7526319026947021,7.099999999999893
-0.3440489172935486,-4.427140712738037,-0.42415428161621094,7.109999999999893
-0.4892798960208893,-4.551931858062744,-0.03713560104370117,7.119999999999893
-0.579486608505249,-4.636446475982666,0.35102224349975586,7.129999999999892
-0.6696755886077881,-4.718875885009766,0.6541571617126465,7.139999999999892
-0.7715510129928589,-4.763155937194824,0.8817052841186523,7.149999999999892
-0.8636072278022766,-4.706912040710449,1.1003739833831787,7.159999999999892
-0.9151421785354614,-4.540437698364258,1.3026340007781982,7.169999999999892
-1.1442830562591553,-4.270631790161133,1.3969495296478271,7.179999999999891
-1.0317447185516357,-4.019043445587158,1.5044384002685547,7.189999999999891
-0.9960803985595703,-3.7181005477905273,1.6980230808258057,7.199999999999891
-0.924368143081665,-3.3313021659851074,1.892380952835083,7.209999999999891
-0.8308988809585571,-2.9441261291503906,2.150385618209839,7.2199999999998905
-0.624321460723877,-2.4818811416625977,2.441795825958252,7.22999999999989
-0.17711636424064636,-1.9704256057739258,2.6861472129821777,7.23999999999989
0.4351235032081604,-1.3444595336914062,2.6157307624816895,7.24999999999989
1.1027432680130005,-0.6127071380615234,2.1849186420440674,7.25999999999989
1.9915993213653564,0.5844297409057617,1.6251592636108398,7.269999999999889
2.7312417030334473,2.2114181518554688,1.103435754776001,7.279999999999889
2.980910539627075,4.306601524353027,0.9597361087799072,7.289999999999889
2.9828436374664307,6.630205154418945,1.526310682296753,7.299999999999889
2.4109838008880615,8.79361629486084,3.0826478004455566,7.309999999999889
1.4807913303375244,9.494865417480469,5.256369590759277,7.319999999999888
0.9560848474502563,8.918436050415039,7.417304039001465,7.329999999999888
0.4332190752029419,8.040349006652832,8.652854919433594,7.339999999999888
0.21503031253814697,6.981877326965332,8.509861946105957,7.349999999999888
0.4380148649215698,5.368896484375,8.267125129699707,7.3599999999998875
0.7931751608848572,3.002735137939453,7.41472053527832,7.369999999999887
1.5706303119659424,-0.5418720245361328,6.439809799194336,7.379999999999887
2.5467028617858887,-4.880568981170654,5.0688323974609375,7.389999999999887
2.4723081588745117,-7.796695232391357,3.566831588745117,7.399999999999887
1.3939909934997559,-8.348583221435547,1.7716822624206543,7.4099999999998865
0.25258347392082214,-6.101322174072266,-0.7604975700378418,7.419999999999886
-0.27583611011505127,-2.4965829849243164,-4.008850574493408,7.429999999999886
0.3046276867389679,1.422903060913086,-6.219406604766846,7.439999999999886
0.20404091477394104,5.55345344543457,-7.643350601196289,7.449999999999886
-2.2762601375579834,9.517401695251465,-9.059024810791016,7.459999999999885
-6.083013534545898,13.575970649719238,-9.953689575195312,7.469999999999885
-10.3931884765625,17.095260620117188,-9.300700187683105,7.479999999999885
-13.156037330627441,19.666690826416016,-7.936873435974121,7.489999999999885
-12.287578582763672,20.443954467773438,-6.232757091522217,7.4999999999998845
-9.087446212768555,18.32592010498047,-3.268217086791992,7.509999999999884
-6.8771467208862305,13.282175064086914,-0.1976635456085205,7.519999999999884
-6.2882466316223145,8.956345558166504,1.7534990310668945,7.529999999999884
-6.307782173156738,5.638986587524414,1.5872328281402588,7.539999999999884
-5.363986968994141,2.657931327819824,1.4298830032348633,7.5499999999998835
-3.772472381591797,0.16591835021972656,1.8611955642700195,7.559999999999883
-3.5210537910461426,-2.001189708709717,0.598416805267334,7.569999999999883
-3.7646055221557617,-3.7025809288024902,-1.5365808010101318,7.579999999999883
-3.159238815307617,-4.734010219573975,-3.562159538269043,7.589999999999883
-2.5930328369140625,-4.419917106628418,-4.8556013107299805,7.599999999999882
-2.248122215270996,-3.4456586837768555,-5.2688307762146,7.609999999999882
-1.715770959854126,-2.4187135696411133,-5.079796314239502,7.619999999999882
-0.8312733173370361,-1.3562302589416504,-4.752301216125488,7.629999999999882
0.2467050850391388,-0.30688953399658203,-4.195831775665283,7.6399999999998816
1.1288988590240479,0.5033912658691406,-3.4600179195404053,7.649999999999881
2.09570574760437,0.9753789901733398,-2.5839474201202393,7.659999999999881
3.015409231185913,1.015263557434082,-2.4207491874694824,7.669999999999881
3.573521375656128,0.6785116195678711,-2.937507390975952,7.679999999999881
3.8475213050842285,-0.041228294372558594,-3.7531723976135254,7.6899999999998805
3.5338187217712402,-0.9636945724487305,-4.594974040985107,7.69999999999988
2.930084466934204,-1.8390746116638184,-5.069867134094238,7.70999999999988
2.293583631515503,-2.158876419067383,-5.199272155761719,7.71999999999988
1.9550702571868896,-1.936380386352539,-4.826452732086182,7.72999999999988
1.7281663417816162,-1.3987741470336914,-4.086326599121094,7.739999999999879
1.2978310585021973,-0.907628059387207,-3.345534324645996,7.749999999999879
0.8649004697799683,-0.5420761108398438,-2.74951171875,7.759999999999879
0.5199918746948242,-0.4289865493774414,-2.3692128658294678,7.769999999999879
0.2796599268913269,-0.5419797897338867,-2.0771896839141846,7.779999999999879
0.20336389541625977,-0.8354301452636719,-1.8637611865997314,7.789999999999878
0.29991835355758667,-1.1894798278808594,-1.657606840133667,7.799999999999878
0.5993372797966003,-1.5369062423706055,-1.3688255548477173,7.809999999999878
0.885451078414917,-2.0426840782165527,-0.8567506074905396,7.819999999999878
1.1093952655792236,-2.5680036544799805,-0.3031306266784668,7.8299999999998775
1.1864588260650635,-2.9909915924072266,0.2924964427947998,7.839999999999877
1.1805915832519531,-3.4553661346435547,0.7681385278701782,7.849999999999877
1.2063281536102295,-3.903881072998047,1.0890387296676636,7.859999999999877
1.1080846786499023,-4.104788303375244,1.0793588161468506,7.869999999999877
0.9915434122085571,-4.233186721801758,0.9152772426605225,7.879999999999876
0.8908637762069702,-4.3300652503967285,0.5863151550292969,7.889999999999876
0.787461519241333,-4.204280853271484,0.06464803218841553,7.899999999999876
0.7755800485610962,-3.8943886756896973,-0.44874000549316406,7.909999999999876
0.8894368410110474,-3.2163610458374023,-1.0578125715255737,7.919999999999876
0.9525821208953857,-2.2734313011169434,-1.5119924545288086,7.929999999999875
1.1405659914016724,-1.3648443222045898,-1.7952933311462402,7.939999999999875
1.4331004619598389,-0.8252420425415039,-1.804671287536621,7.949999999999875
1.1129567623138428,-0.020540237426757812,-1.4119787216186523,7.959999999999875
0.4243438243865967,0.6519231796264648,-0.8777928352355957,7.9699999999998745
0.10401856899261475,0.9484357833862305,-0.6332170963287354,7.979999999999874
-0.15906143188476562,1.2974920272827148,-0.6957939863204956,7.989999999999874
