AccX,AccY,AccZ,SampleRate
0.5820741653442383,-1.0025815963745117,1.158933401107788,0
0.33177804946899414,-0.7916622161865234,1.216553807258606,0.01
0.2625546455383301,-0.6128768920898438,1.3514471054077148,0.02
0.19819927215576172,-0.3763313293457031,1.5695806741714478,0.03
0.11062145233154297,-0.07415771484375,1.8475875854492188,0.04
0.2263641357421875,-5.578994750976562E-4,1.7680332660675049,0.05
0.34504246711730957,0.03836536407470703,1.6404911279678345,0.060000000000000005
0.8518364429473877,0.0055294036865234375,1.181643009185791,0.07
1.391054630279541,0.008089065551757812,0.44234657287597656,0.08
1.7841918468475342,0.1837921142578125,-0.05189776420593262,0.09
2.1472907066345215,0.4366121292114258,0.2532839775085449,0.09999999999999999
1.9821271896362305,0.7413949966430664,1.082161545753479,0.10999999999999999
1.716242790222168,1.2379388809204102,1.6016521453857422,0.11999999999999998
1.741814136505127,1.2402238845825195,1.6401846408843994,0.12999999999999998
1.5685312747955322,1.723154067993164,1.6576378345489502,0.13999999999999999
2.245518207550049,3.14894962310791,1.2337546348571777,0.15
3.0746092796325684,3.601696014404297,1.5241172313690186,0.16
4.088710784912109,3.595950126647949,1.9646356105804443,0.17
4.947439670562744,3.3631086349487305,2.313978433609009,0.18000000000000002
5.370497226715088,3.1521358489990234,2.231865406036377,0.19000000000000003
5.543037414550781,3.1540708541870117,1.7087773084640503,0.20000000000000004
5.489358901977539,3.0690956115722656,1.1132993698120117,0.21000000000000005
5.411298751831055,2.305448532104492,0.6012301445007324,0.22000000000000006
4.917515754699707,1.5675067901611328,0.15841460227966309,0.23000000000000007
3.496884346008301,0.5449085235595703,0.43652278184890747,0.24000000000000007
2.0138001441955566,0.2846803665161133,0.6929352879524231,0.25000000000000006
0.2742760181427002,0.3002281188964844,0.1604354977607727,0.26000000000000006
-1.3287805318832397,0.335174560546875,-0.8236742615699768,0.2700000000000001
-2.0631165504455566,0.7690448760986328,-1.0682556629180908,0.2800000000000001
-2.0020155906677246,1.3034210205078125,-0.7370604872703552,0.2900000000000001
-1.8065487146377563,1.1921510696411133,-0.4672096073627472,0.3000000000000001
-2.004378080368042,1.110626220703125,-0.8213039040565491,0.3100000000000001
-2.631160020828247,1.3990821838378906,-1.5793025493621826,0.3200000000000001
-2.9964749813079834,1.8988037109375,-1.899251937866211,0.3300000000000001
-2.7503137588500977,2.1295394897460938,-1.551973581314087,0.34000000000000014
-2.0069661140441895,2.2450037002563477,-0.8199349641799927,0.35000000000000014
-0.8003735542297363,2.004563331604004,-0.42368412017822266,0.36000000000000015
-0.0792398452758789,2.2159252166748047,-0.5336812734603882,0.37000000000000016
0.34537482261657715,2.292403221130371,-0.08863091468811035,0.38000000000000017
0.9207146167755127,1.7087602615356445,0.9068610668182373,0.3900000000000002
1.2488718032836914,0.9698448181152344,1.6500942707061768,0.4000000000000002
1.2030136585235596,0.33335399627685547,0.9330151081085205,0.4100000000000002
1.018876314163208,-0.6115179061889648,-1.056865930557251,0.4200000000000002
0.9071922302246094,-1.3938794136047363,-3.1468915939331055,0.4300000000000002
0.6844058036804199,-2.1458773612976074,-4.965731620788574,0.4400000000000002
0.563359260559082,-2.7191739082336426,-5.797180652618408,0.45000000000000023
0.6022727489471436,-2.8572916984558105,-5.515927314758301,0.46000000000000024
0.2574784755706787,-2.7799391746520996,-4.64318323135376,0.47000000000000025
-0.8248002529144287,-2.4484410285949707,-3.5600476264953613,0.48000000000000026
-1.7842596769332886,-1.897681713104248,-2.7750344276428223,0.49000000000000027
-2.7089061737060547,-1.4303431510925293,-1.829675316810608,0.5000000000000002
-3.529649496078491,-1.243476390838623,-1.3610553741455078,0.5100000000000002
-4.066122055053711,-1.2905826568603516,-1.2821574211120605,0.5200000000000002
-3.969916820526123,-1.9588289260864258,-1.0827631950378418,0.5300000000000002
-3.9435081481933594,-1.9350605010986328,-1.1532206535339355,0.5400000000000003
-3.249852418899536,-3.2255678176879883,-1.2805418968200684,0.5500000000000003
-3.0050604343414307,-3.8560304641723633,-1.4252793788909912,0.5600000000000003
-2.9394750595092773,-4.2708001136779785,-1.2881779670715332,0.5700000000000003
-2.9480268955230713,-4.587875843048096,-0.9504096508026123,0.5800000000000003
-2.7764086723327637,-4.821078300476074,-0.7732810974121094,0.5900000000000003
-2.6207308769226074,-4.878606796264648,-0.3989875316619873,0.6000000000000003
-2.472874879837036,-4.661581039428711,0.13617944717407227,0.6100000000000003
-2.168808937072754,-4.205862522125244,1.1810765266418457,0.6200000000000003
-1.6083394289016724,-3.524191379547119,2.4040367603302,0.6300000000000003
-0.8069648742675781,-2.6056532859802246,3.309539794921875,0.6400000000000003
0.3865070343017578,-1.2684016227722168,3.944237470626831,0.6500000000000004
2.1865642070770264,1.1651792526245117,3.994119644165039,0.6600000000000004
3.476534128189087,3.791788101196289,4.083233833312988,0.6700000000000004
4.83889102935791,6.888434410095215,4.092785835266113,0.6800000000000004
6.259682655334473,9.298245429992676,3.730916738510132,0.6900000000000004
6.673307418823242,9.679868698120117,2.2598049640655518,0.7000000000000004
4.86719274520874,6.851051330566406,1.3033795356750488,0.7100000000000004
1.0545165538787842,3.9058494567871094,1.2828359603881836,0.7200000000000004
-2.3159000873565674,2.285944938659668,1.8182344436645508,0.7300000000000004
-5.247588157653809,0.37894153594970703,3.3957746028900146,0.7400000000000004
-6.748500347137451,-1.1102519035339355,4.842126846313477,0.7500000000000004
-7.198071479797363,-1.7114028930664062,4.63421630859375,0.7600000000000005
-5.580507278442383,-2.0414481163024902,3.5378100872039795,0.7700000000000005
-3.6511640548706055,-1.221235752105713,1.2976243495941162,0.7800000000000005
-2.0116090774536133,1.399216651916504,-1.4065767526626587,0.7900000000000005
-0.3402881622314453,5.760169982910156,-6.927865028381348,0.8000000000000005
0.5441086292266846,9.422955513000488,-11.84512710571289,0.8100000000000005
-0.7199523448944092,11.176753044128418,-13.497150421142578,0.8200000000000005
-2.7967519760131836,10.517809867858887,-7.872282028198242,0.8300000000000005
-0.4517672061920166,4.21748161315918,1.9729657173156738,0.8400000000000005
1.1449365615844727,-1.39536714553833,5.188429355621338,0.8500000000000005
1.6964225769042969,-5.665558815002441,4.197711944580078,0.8600000000000005
0.5718071460723877,-7.052373886108398,0.7625517845153809,0.8700000000000006
-1.9172712564468384,-6.6984758377075195,-3.6615774631500244,0.8800000000000006
-3.501011610031128,-6.170516014099121,-8.575398445129395,0.8900000000000006
-4.120279788970947,-4.206783294677734,-12.132990837097168,0.9000000000000006
-4.265725612640381,-3.42435359954834,-11.878478050231934,0.9100000000000006
-4.359911918640137,-2.282320976257324,-10.238486289978027,0.9200000000000006
-3.720076084136963,-1.3617405891418457,-7.4971604347229,0.9300000000000006
-1.800447940826416,0.5120277404785156,-1.3991588354110718,0.9400000000000006
0.3952486515045166,2.904463768005371,6.647149562835693,0.9500000000000006
2.0662243366241455,2.790935516357422,5.515659809112549,0.9600000000000006
2.3078174591064453,2.1960248947143555,1.5471465587615967,0.9700000000000006
2.5205516815185547,2.140483856201172,-0.9836679697036743,0.9800000000000006
3.115511178970337,1.4585390090942383,-1.4174555540084839,0.9900000000000007
3.3462703227996826,-0.3430147171020508,-1.315989375114441,1.0000000000000007
2.8007912635803223,-1.9069676399230957,-0.08576703071594238,1.0100000000000007
2.159303903579712,-2.557572364807129,1.60483980178833,1.0200000000000007
1.8066682815551758,-2.507188320159912,2.1555798053741455,1.0300000000000007
1.5529906749725342,-1.7855424880981445,1.5006263256072998,1.0400000000000007
1.4602141380310059,-1.1847095489501953,0.0028294920921325684,1.0500000000000007
1.2991998195648193,-0.9932746887207031,-0.4277363419532776,1.0600000000000007
1.286003828048706,-0.9678201675415039,0.3298337161540985,1.0700000000000007
1.2317309379577637,-1.1281051635742188,1.4148876667022705,1.0800000000000007
1.1396934986114502,-1.4876995086669922,1.9451406002044678,1.0900000000000007
1.1362156867980957,-1.7803478240966797,2.0851471424102783,1.1000000000000008
1.383772373199463,-1.9940500259399414,1.430934190750122,1.1100000000000008
1.6866769790649414,-2.0189881324768066,0.3808935284614563,1.1200000000000008
1.9579191207885742,-1.8581786155700684,-0.45831990242004395,1.1300000000000008
1.5935604572296143,-1.378448486328125,-0.33941423892974854,1.1400000000000008
0.9998929500579834,-0.7439813613891602,0.4865126609802246,1.1500000000000008
0.3726980686187744,-0.10869979858398438,1.7595058679580688,1.1600000000000008
-0.06299829483032227,0.08228874206542969,2.440980911254883,1.1700000000000008
-0.4236922264099121,0.16575336456298828,2.4015018939971924,1.1800000000000008
-0.6643373966217041,0.21643733978271484,1.7593038082122803,1.1900000000000008
-0.3226335048675537,0.47559452056884766,1.0294299125671387,1.2000000000000008
0.16033720970153809,0.9160499572753906,0.9115838408470154,1.2100000000000009
0.7389280796051025,1.4029541015625,1.3416842222213745,1.2200000000000009
1.3622863292694092,1.6892127990722656,1.860244631767273,1.2300000000000009
1.9718000888824463,1.5767583847045898,2.220432996749878,1.2400000000000009
2.251650094985962,1.2070722579956055,1.9674807786941528,1.2500000000000009
2.4199252128601074,0.9965639114379883,1.496282935142517,1.260000000000001
2.5853419303894043,1.2101545333862305,1.3745038509368896,1.270000000000001
2.9930222034454346,1.9684810638427734,1.4254083633422852,1.280000000000001
3.685680627822876,2.851696014404297,1.7159130573272705,1.290000000000001
4.570656776428223,3.412930488586426,1.795520305633545,1.300000000000001
4.510433673858643,3.4225568771362305,1.7759199142456055,1.310000000000001
5.861802101135254,2.9812917709350586,1.431754231452942,1.320000000000001
6.042980194091797,2.228160858154297,0.8567212820053101,1.330000000000001
5.984766006469727,1.430582046508789,0.09156060218811035,1.340000000000001
5.465358734130859,1.1115264892578125,0.16350603103637695,1.350000000000001
4.456361770629883,0.8963680267333984,0.9443973302841187,1.360000000000001
2.5841870307922363,1.1536188125610352,1.207971215248108,1.370000000000001
0.40246033668518066,1.593820571899414,0.02518165111541748,1.380000000000001
-0.9710640907287598,2.0219335556030273,-0.6262235641479492,1.390000000000001
-1.2219429016113281,2.393756866455078,-0.6746277809143066,1.400000000000001
-0.8008203506469727,2.3698577880859375,-0.5914596319198608,1.410000000000001
-0.9520928859710693,2.0955076217651367,-1.0074670314788818,1.420000000000001
-1.4915728569030762,1.9610328674316406,-1.806688666343689,1.430000000000001
-2.270615816116333,2.300569534301758,-2.5579967498779297,1.440000000000001
-2.6757943630218506,2.7495012283325195,-2.2450859546661377,1.450000000000001
-3.2710788249969482,3.4271230697631836,-1.619236707687378,1.460000000000001
-3.2238941192626953,4.004988670349121,-0.9850738048553467,1.470000000000001
-2.573702573776245,4.489640235900879,0.2456604242324829,1.480000000000001
-1.1491252183914185,3.833402633666992,2.547391891479492,1.490000000000001
0.15262651443481445,2.6668577194213867,3.7340075969696045,1.500000000000001
0.8438313007354736,1.7433195114135742,2.2823705673217773,1.5100000000000011
1.1098520755767822,0.6566390991210938,-2.1015567779541016,1.5200000000000011
0.3472118377685547,-0.4020814895629883,-4.941693305969238,1.5300000000000011
-0.07422232627868652,-1.4436049461364746,-5.83936071395874,1.5400000000000011
0.1399838924407959,-2.534386157989502,-5.063836097717285,1.5500000000000012
0.5843391418457031,-3.655386447906494,-3.9344515800476074,1.5600000000000012
0.803565263748169,-4.414055824279785,-4.140725135803223,1.5700000000000012
0.5738117694854736,-5.067136764526367,-4.245285511016846,1.5800000000000012
-0.7821207046508789,-5.002531051635742,-4.322842121124268,1.5900000000000012
-2.534682273864746,-4.661002159118652,-4.237918853759766,1.6000000000000012
-4.117266654968262,-4.141791820526123,-4.093714714050293,1.6100000000000012
-5.175724029541016,-3.701198101043701,-3.40101957321167,1.6200000000000012
-5.54652214050293,-3.512007236480713,-3.0398435592651367,1.6300000000000012
-5.377546310424805,-3.6061391830444336,-2.9429426193237305,1.6400000000000012
-4.694774150848389,-4.006327152252197,-2.8366827964782715,1.6500000000000012
-3.921938419342041,-4.44594669342041,-2.320056676864624,1.6600000000000013
-3.7100236415863037,-4.88913631439209,-1.4896743297576904,1.6700000000000013
-3.5839853286743164,-5.197339057922363,-0.23789310455322266,1.6800000000000013
-3.515101671218872,-5.208710670471191,0.72467041015625,1.6900000000000013
-3.3028886318206787,-4.7850341796875,1.7234201431274414,1.7000000000000013
-2.741250514984131,-4.141935348510742,2.9462759494781494,1.7100000000000013
-2.0857644081115723,-3.228243827819824,3.851261854171753,1.7200000000000013
-1.120967149734497,-1.5642213821411133,4.015157699584961,1.7300000000000013
1.0514636039733887,1.5520734786987305,2.926832437515259,1.7400000000000013
3.0545670986175537,5.3816938400268555,2.1096608638763428,1.7500000000000013
5.515148162841797,10.249419212341309,2.7057337760925293,1.7600000000000013
8.237338066101074,13.092315673828125,3.6914284229278564,1.7700000000000014
10.78995418548584,11.464554786682129,3.9524292945861816,1.7800000000000014
7.856889724731445,6.503801345825195,4.968413352966309,1.7900000000000014
0.5004894733428955,2.511098861694336,4.7702860832214355,1.8000000000000014
-3.1171154975891113,0.40902042388916016,4.507463455200195,1.8100000000000014
-5.402324199676514,-1.2785329818725586,3.6909005641937256,1.8200000000000014
-6.839346885681152,-2.2938108444213867,2.7984745502471924,1.8300000000000014
-6.837823390960693,-2.880019187927246,1.7495243549346924,1.8400000000000014
-6.0113420486450195,-3.514462471008301,0.24344849586486816,1.8500000000000014
-4.331099033355713,-1.0638132095336914,-3.5086326599121094,1.8600000000000014
-2.573214530944824,2.1165409088134766,-7.317226886749268,1.8700000000000014
-1.119307041168213,6.1237335205078125,-11.994085311889648,1.8800000000000014
-1.3960920572280884,9.795945167541504,-15.111528396606445,1.8900000000000015
-3.2259254455566406,13.33655071258545,-10.822216033935547,1.9000000000000015
-4.1832451820373535,14.43189525604248,1.3349356651306152,1.9100000000000015
0.6633641719818115,5.993366241455078,6.728154182434082,1.9200000000000015
3.081115484237671,-0.0261688232421875,4.526596546173096,1.9300000000000015
3.861098527908325,-4.408829689025879,0.8949171304702759,1.9400000000000015
2.575744390487671,-7.412446975708008,-2.945448637008667,1.9500000000000015
-0.5761728286743164,-7.750075340270996,-8.110857009887695,1.9600000000000015
-2.8484368324279785,-5.633111000061035,-11.742237091064453,1.9700000000000015
-3.488736152648926,-4.303043365478516,-12.156940460205078,1.9800000000000015
-3.8094873428344727,-3.3472461700439453,-10.703243255615234,1.9900000000000015
-3.255173921585083,-2.6452202796936035,-8.975261688232422,2.0000000000000013
-1.405066728591919,-0.8987550735473633,-6.375665664672852,2.010000000000001
1.7294399738311768,1.7350473403930664,4.801923751831055,2.020000000000001
3.8616182804107666,2.9061203002929688,10.767966270446777,2.0300000000000007
3.746654510498047,2.543900489807129,7.462449550628662,2.0400000000000005
3.433013677597046,1.3550033569335938,3.2355687618255615,2.0500000000000003
2.2723753452301025,-0.14751434326171875,-1.7838836908340454,2.06
-0.31484484672546387,-0.7098407745361328,-2.778094530105591,2.07
-1.1080440282821655,-1.6455035209655762,-1.015843152999878,2.0799999999999996
-0.793205738067627,-2.1053905487060547,1.2000575065612793,2.0899999999999994
-0.10351800918579102,-2.2269105911254883,3.006603240966797,2.099999999999999
0.20162463188171387,-1.675537109375,3.2005984783172607,2.109999999999999
0.2607390880584717,-1.4179272651672363,2.2539126873016357,2.1199999999999988
1.0125362873077393,-1.1752204895019531,0.6277808547019958,2.1299999999999986
2.0470354557037354,-1.0046806335449219,-0.39817291498184204,2.1399999999999983
2.347696304321289,-1.0328302383422852,-0.398160457611084,2.149999999999998
1.957627296447754,-1.462569236755371,0.8457984328269958,2.159999999999998
1.4994893074035645,-2.0844526290893555,1.427473545074463,2.1699999999999977
1.1846764087677002,-2.802138328552246,1.0944602489471436,2.1799999999999975
0.7770373821258545,-3.186504364013672,0.6471946835517883,2.1899999999999973
0.7422177791595459,-3.0829052925109863,0.1760348677635193,2.199999999999997
0.8180654048919678,-2.5374770164489746,0.104439377784729,2.209999999999997
1.158860206604004,-1.1121110916137695,0.5971243381500244,2.2199999999999966
1.586531162261963,0.011297225952148438,1.4963574409484863,2.2299999999999964
1.6566596031188965,0.7838401794433594,2.578104257583618,2.239999999999996
0.9436666965484619,0.8343963623046875,2.4544620513916016,2.249999999999996
-0.009339570999145508,0.5456008911132812,1.3042608499526978,2.259999999999996
-0.641792893409729,0.44341564178466797,0.5011731386184692,2.2699999999999956
-0.4947659969329834,0.790278434753418,0.40461063385009766,2.2799999999999954
0.15807223320007324,1.3273067474365234,0.774566113948822,2.289999999999995
1.1417973041534424,1.5828609466552734,1.4334080219268799,2.299999999999995
1.646268606185913,1.5959692001342773,1.727028250694275,2.3099999999999947
2.1625609397888184,1.5088071823120117,1.062816858291626,2.3199999999999945
2.687972068786621,1.8232078552246094,0.5145263671875,2.3299999999999943
3.7909281253814697,2.5090370178222656,0.6475569009780884,2.339999999999994
4.883625507354736,3.0503244400024414,1.1245784759521484,2.349999999999994
5.733803749084473,3.270322799682617,1.6805400848388672,2.3599999999999937
6.429826736450195,2.9068193435668945,1.7753846645355225,2.3699999999999934
6.8960418701171875,2.1805429458618164,1.3397325277328491,2.3799999999999932
6.715925216674805,1.381392478942871,0.7906358242034912,2.389999999999993
6.115111351013184,0.9771785736083984,0.3256721496582031,2.399999999999993
4.552777290344238,1.3299674987792969,0.5346301794052124,2.4099999999999926
2.7333219051361084,1.6396827697753906,1.284144401550293,2.4199999999999924
1.2891721725463867,1.7040739059448242,1.249759316444397,2.429999999999992
-0.36275315284729004,2.19699764251709,0.6538033485412598,2.439999999999992
-1.6651476621627808,2.6280384063720703,0.1848347783088684,2.4499999999999917
-1.828269124031067,2.7217369079589844,0.2947614789009094,2.4599999999999915
-1.3716810941696167,2.57827091217041,0.30202823877334595,2.4699999999999913
-0.9930858612060547,2.438589096069336,-0.27691468596458435,2.479999999999991
-1.3088622093200684,2.80367374420166,-1.356007695198059,2.489999999999991
-1.9373806715011597,3.2545852661132812,-2.609421730041504,2.4999999999999907
-2.3696422576904297,3.295376777648926,-3.117062568664551,2.5099999999999905
-1.9212158918380737,2.6885299682617188,-2.3272385597229004,2.5199999999999902
-1.387942910194397,2.449435234069824,-1.2658908367156982,2.52999999999999
-0.3410186767578125,2.094228744506836,-0.6885242462158203,2.53999999999999
0.7743020057678223,1.8284883499145508,0.33713674545288086,2.5499999999999896
1.5090117454528809,1.8942184448242188,3.008314371109009,2.5599999999999894
2.166229724884033,1.2117424011230469,4.369206428527832,2.569999999999989
2.049471616744995,0.2930755615234375,2.9108359813690186,2.579999999999989
1.1796338558197021,-0.16380023956298828,-0.412522554397583,2.5899999999999888
0.04386401176452637,-0.5194721221923828,-3.1966774463653564,2.5999999999999885
-0.28319287300109863,-1.1507525444030762,-4.917510509490967,2.6099999999999883
-0.41832447052001953,-1.7828145027160645,-5.4467692375183105,2.619999999999988
-0.37693309783935547,-2.378702163696289,-4.941000461578369,2.629999999999988
-0.3040030002593994,-3.177046775817871,-4.416593551635742,2.6399999999999877
-0.49466681480407715,-3.8356456756591797,-4.807728290557861,2.6499999999999875
-1.4026000499725342,-4.234780311584473,-6.373453140258789,2.6599999999999873
-2.432877540588379,-4.488241195678711,-6.703278541564941,2.669999999999987
-3.6115691661834717,-4.265954971313477,-6.247923374176025,2.679999999999987
-4.797006130218506,-3.990424156188965,-5.832314491271973,2.6899999999999866
-5.80312967300415,-3.830897331237793,-4.800703048706055,2.6999999999999864
-6.087403774261475,-3.8725500106811523,-3.944518804550171,2.709999999999986
-6.01599645614624,-4.239804267883301,-2.780102491378784,2.719999999999986
-5.607882499694824,-4.883995056152344,-1.7406227588653564,2.7299999999999858
-5.2248921394348145,-5.4950103759765625,-1.124720811843872,2.7399999999999856
-4.808235168457031,-5.722053050994873,-0.6083066463470459,2.7499999999999853
-4.50057315826416,-5.494807720184326,0.07617616653442383,2.759999999999985
-4.198105335235596,-4.965481758117676,0.9722201824188232,2.769999999999985
-3.215627431869507,-4.068123817443848,2.8949191570281982,2.7799999999999847
-1.9526357650756836,-2.8936667442321777,4.769759178161621,2.7899999999999845
-0.34153270721435547,-1.0357122421264648,5.35345458984375,2.7999999999999843
1.963113784790039,2.4564123153686523,4.355536460876465,2.809999999999984
5.424135684967041,9.089067459106445,2.98272705078125,2.819999999999984
7.941473007202148,13.630616188049316,5.2834320068359375,2.8299999999999836
11.522727966308594,14.831799507141113,7.3515424728393555,2.8399999999999834
13.264850616455078,10.730138778686523,7.245443344116211,2.849999999999983
7.21122932434082,5.9186859130859375,5.289833068847656,2.859999999999983
-0.22479581832885742,3.185708999633789,3.267869710922241,2.869999999999983
-4.449573040008545,0.7067861557006836,2.3190815448760986,2.8799999999999826
-6.09697961807251,-0.2675457000732422,2.0416927337646484,2.8899999999999824
-7.137825012207031,-0.4767589569091797,1.4249367713928223,2.899999999999982
-6.656455993652344,-0.5609264373779297,0.8405778408050537,2.909999999999982
-5.656258583068848,-0.23283672332763672,-1.1106125116348267,2.9199999999999817
-3.9445626735687256,2.0001020431518555,-5.797513008117676,2.9299999999999815
-2.3079237937927246,5.455377578735352,-11.228829383850098,2.9399999999999813
-2.284719228744507,7.847856521606445,-13.762846946716309,2.949999999999981
-4.143349647521973,9.38883113861084,-12.495635986328125,2.959999999999981
-4.8957624435424805,9.053792953491211,-4.99193000793457,2.9699999999999807
-1.3316926956176758,3.8182144165039062,2.6230146884918213,2.9799999999999804
1.326507568359375,-1.0663118362426758,4.198749542236328,2.9899999999999802
2.764178991317749,-4.906301021575928,2.1071131229400635,2.99999999999998
2.9864888191223145,-7.0144195556640625,-0.22504973411560059,3.00999999999998
0.9825611114501953,-7.740901947021484,-3.3004894256591797,3.0199999999999796
-0.8763649463653564,-6.458789825439453,-7.959968566894531,3.0299999999999794
-2.2852189540863037,-3.8379926681518555,-11.444772720336914,3.039999999999979
-2.9798731803894043,-1.4304404258728027,-11.305097579956055,3.049999999999979
-2.9395806789398193,-0.3406562805175781,-9.081928253173828,3.0599999999999787
-1.8947358131408691,0.17500877380371094,-6.630937099456787,3.0699999999999785
0.015863656997680664,1.7363243103027344,-0.04751616716384888,3.0799999999999783
2.412956476211548,3.07379150390625,7.076223850250244,3.089999999999978
3.3578450679779053,2.4438838958740234,6.577300071716309,3.099999999999978
3.5744223594665527,1.415618896484375,3.9296178817749023,3.1099999999999777
3.5900557041168213,-0.6204004287719727,0.8591079115867615,3.1199999999999775
3.109956741333008,-1.9440560340881348,-0.7309277057647705,3.1299999999999772
1.254603624343872,-2.4135336875915527,-0.2747812271118164,3.139999999999977
-0.06974053382873535,-2.4135513305664062,0.7203767895698547,3.149999999999977
-0.31926846504211426,-2.2384748458862305,1.06830894947052,3.1599999999999766
0.14016151428222656,-1.8745574951171875,1.0294244289398193,3.1699999999999764
0.960939884185791,-1.7478861808776855,1.3399778604507446,3.179999999999976
0.9499645233154297,-1.2727546691894531,1.6776624917984009,3.189999999999976
0.8184828758239746,-0.7726993560791016,1.481912612915039,3.1999999999999758
0.8618984222412109,-0.7666015625,0.7664024829864502,3.2099999999999755
0.9333577156066895,-1.1443185806274414,-0.13367658853530884,3.2199999999999753
1.027409315109253,-1.8748626708984375,0.09869629144668579,3.229999999999975
1.1614406108856201,-2.422537326812744,0.8550642728805542,3.239999999999975
1.1285219192504883,-2.6078853607177734,0.9532941579818726,3.2499999999999747
1.0106289386749268,-2.6232895851135254,0.8435391187667847,3.2599999999999745
0.9959907531738281,-2.55503511428833,0.42481184005737305,3.2699999999999743
0.9762389659881592,-2.2295727729797363,-0.10838007926940918,3.279999999999974
0.780005693435669,-1.5335707664489746,-0.2672865390777588,3.289999999999974
0.5772144794464111,-0.2783231735229492,0.5497958064079285,3.2999999999999736
0.4976327419281006,0.46108531951904297,1.727384090423584,3.3099999999999734
0.19371271133422852,1.0061368942260742,2.5206260681152344,3.319999999999973
-0.02049851417541504,1.2080974578857422,2.2926228046417236,3.329999999999973
0.2441082000732422,1.295781135559082,1.6883621215820312,3.3399999999999728
0.9382321834564209,1.8111867904663086,1.1456162929534912,3.3499999999999726
2.0122945308685303,2.02451229095459,1.2181353569030762,3.3599999999999723
2.8835785388946533,1.7197237014770508,1.7481318712234497,3.369999999999972
3.499725580215454,1.1063623428344727,1.9301069974899292,3.379999999999972
3.8452248573303223,0.9759979248046875,1.4398696422576904,3.3899999999999717
4.266970634460449,1.9167108535766602,1.162976861000061,3.3999999999999715
4.8389692306518555,2.9205446243286133,1.5613422393798828,3.4099999999999713
5.55495548248291,3.324615478515625,1.7703897953033447,3.419999999999971
6.513999938964844,3.16573429107666,1.7633371353149414,3.429999999999971
7.389374256134033,2.446833610534668,1.3904902935028076,3.4399999999999706
7.527369499206543,1.5301752090454102,0.8514727354049683,3.4499999999999704
7.30788516998291,0.5491123199462891,-0.1052325963973999,3.45999999999997
5.962306976318359,0.7036228179931641,-0.26765596866607666,3.46999999999997
3.7505955696105957,1.0587406158447266,0.41845762729644775,3.47999999999997
2.2330310344696045,1.1705265045166016,0.6504104733467102,3.4899999999999696
0.4179105758666992,1.8411035537719727,-0.16939568519592285,3.4999999999999694
-1.0836389064788818,2.806863784790039,-1.0236105918884277,3.509999999999969
-1.6965584754943848,3.3944129943847656,-1.0494296550750732,3.519999999999969
-1.5892877578735352,3.4117422103881836,-0.6308830380439758,3.5299999999999687
-1.5388354063034058,3.3190107345581055,-0.5849934816360474,3.5399999999999685
-1.873847484588623,3.3073692321777344,-0.964004397392273,3.5499999999999683
-2.527336835861206,3.4000558853149414,-1.6839362382888794,3.559999999999968
-3.238675117492676,3.686014175415039,-2.000652313232422,3.569999999999968
-3.3307137489318848,3.2420597076416016,-1.3339719772338867,3.5799999999999677
-2.9846599102020264,3.322906494140625,-0.5506312847137451,3.5899999999999674
-2.135974884033203,3.2652835845947266,-0.31679463386535645,3.5999999999999672
-1.6214969158172607,3.627969741821289,0.48781299591064453,3.609999999999967
-0.47475099563598633,3.10445499420166,1.9492385387420654,3.619999999999967
0.46040868759155273,1.8932514190673828,2.5224268436431885,3.6299999999999666
0.7676384449005127,0.9620904922485352,0.6876778602600098,3.6399999999999664
0.5240864753723145,0.4416065216064453,-3.244776725769043,3.649999999999966
-0.07000565528869629,-0.4446754455566406,-6.408702850341797,3.659999999999966
0.32744503021240234,-1.3312087059020996,-7.368556976318359,3.6699999999999657
0.6485917568206787,-2.576418399810791,-7.245947360992432,3.6799999999999655
0.902834415435791,-3.756875514984131,-6.018075466156006,3.6899999999999653
0.36776304244995117,-4.40416145324707,-5.483367919921875,3.699999999999965
-0.498187780380249,-4.916686058044434,-5.048233985900879,3.709999999999965
-2.283247232437134,-4.442968368530273,-4.293457508087158,3.7199999999999647
-3.7264211177825928,-3.658853054046631,-3.7007925510406494,3.7299999999999645
-5.181202411651611,-3.0389060974121094,-3.252527952194214,3.7399999999999642
-6.092131614685059,-2.5575313568115234,-2.837099313735962,3.749999999999964
-6.552854537963867,-2.419625759124756,-2.2015981674194336,3.759999999999964
-6.612977981567383,-2.952197551727295,-1.6526572704315186,3.7699999999999636
-5.955723762512207,-4.020237922668457,-1.030346393585205,3.7799999999999634
-5.138420104980469,-4.829471588134766,-0.6455259323120117,3.789999999999963
-4.319941997528076,-5.500489234924316,-0.2029399871826172,3.799999999999963
-3.648744583129883,-5.810366630554199,0.24124956130981445,3.8099999999999627
-2.727870464324951,-5.982000350952148,0.7378716468811035,3.8199999999999625
-1.765574336051941,-5.861822128295898,1.3861713409423828,3.8299999999999623
-0.6395394802093506,-5.547359466552734,1.850555658340454,3.839999999999962
0.126389741897583,-4.803613662719727,2.0432820320129395,3.849999999999962
1.1176388263702393,-2.9941439628601074,1.880690097808838,3.8599999999999617
2.4325735569000244,-0.055533409118652344,1.4564719200134277,3.8699999999999615
3.793832540512085,4.561917304992676,1.3073723316192627,3.8799999999999613
5.689477443695068,10.989500999450684,3.465824604034424,3.889999999999961
8.132872581481934,15.041069984436035,5.7746076583862305,3.899999999999961
10.020523071289062,14.391901969909668,5.946398735046387,3.9099999999999606
6.8996381759643555,8.30235767364502,4.359088897705078,3.9199999999999604
1.9106900691986084,4.152536392211914,2.890620470046997,3.92999999999996
-3.0115480422973633,1.0992469787597656,2.638702392578125,3.93999999999996
-6.558225631713867,-1.592514991760254,3.1260697841644287,3.9499999999999598
-8.551823616027832,-3.887695789337158,3.9448752403259277,3.9599999999999596
-8.834074020385742,-4.283650875091553,3.6729133129119873,3.9699999999999593
-7.340571403503418,-3.940267562866211,3.166736125946045,3.979999999999959
-5.042542457580566,-1.5301098823547363,0.860379695892334,3.989999999999959
-2.320596218109131,2.5677108764648438,-4.280725002288818,3.9999999999999587
-0.04672527313232422,6.411079406738281,-10.24140739440918,4.009999999999959
0.06057238578796387,6.296012878417969,-9.977328300476074,4.019999999999959
-2.057892084121704,12.894461631774902,-15.213906288146973,4.0299999999999585
-3.321232318878174,12.206313133239746,-6.6597418785095215,4.039999999999958
0.6656889915466309,6.821475028991699,3.041891098022461,4.049999999999958
3.157008409500122,0.8072614669799805,5.84248161315918,4.059999999999958
3.5893707275390625,-4.222507953643799,5.075559616088867,4.069999999999958
2.791712522506714,-7.714395999908447,1.0873322486877441,4.079999999999957
0.07033610343933105,-7.767207145690918,-3.9244296550750732,4.089999999999957
-2.7900333404541016,-5.258379936218262,-8.540614128112793,4.099999999999957
-3.390866756439209,-3.4840168952941895,-11.56911849975586,4.109999999999957
-4.053675174713135,-2.855297565460205,-11.587869644165039,4.119999999999957
-4.54348611831665,-2.2355475425720215,-9.686234474182129,4.129999999999956
-4.4912943840026855,-1.3270907402038574,-7.168931007385254,4.139999999999956
-3.2402632236480713,0.3489704132080078,-2.849717617034912,4.149999999999956
-0.8202924728393555,2.1972122192382812,4.57598352432251,4.159999999999956
1.1261851787567139,2.256999969482422,5.892483234405518,4.1699999999999555
1.9892919063568115,1.4691143035888672,3.185634136199951,4.179999999999955
2.182363748550415,0.6476421356201172,0.3289962708950043,4.189999999999955
2.193284273147583,-0.696162223815918,-1.3809030055999756,4.199999999999955
1.8543860912322998,-1.638622760772705,-1.415855050086975,4.209999999999955
1.3458144664764404,-2.279675006866455,-0.6560838222503662,4.2199999999999545
1.0798163414001465,-2.417025566101074,0.40497875213623047,4.229999999999954
0.8281741142272949,-2.1523818969726562,1.6126630306243896,4.239999999999954
0.48439979553222656,-1.7907795906066895,1.647200107574463,4.249999999999954
0.19574856758117676,-1.2815589904785156,0.5111703276634216,4.259999999999954
0.5040600299835205,-1.0170259475708008,0.22632482647895813,4.269999999999953
0.7136363983154297,-0.846867561340332,0.5675627589225769,4.279999999999953
0.8588831424713135,-1.0219078063964844,0.8632060289382935,4.289999999999953
0.8833193778991699,-1.4471616744995117,0.8656229376792908,4.299999999999953
0.8203561305999756,-1.6365694999694824,1.4283291101455688,4.3099999999999525
0.9354069232940674,-1.9758915901184082,1.3097076416015625,4.319999999999952
1.136380910873413,-2.1290884017944336,0.60622239112854,4.329999999999952
1.0648748874664307,-1.946103572845459,0.08916854858398438,4.339999999999952
0.7739923000335693,-1.6723566055297852,0.287839412689209,4.349999999999952
0.5341048240661621,-1.0370903015136719,0.9649659395217896,4.3599999999999515
0.39980363845825195,-0.3580169677734375,2.0470850467681885,4.369999999999951
0.5127947330474854,-0.048919677734375,2.391098737716675,4.379999999999951
0.7532098293304443,-0.035236358642578125,1.6280595064163208,4.389999999999951
0.9562547206878662,0.34734535217285156,0.8707211017608643,4.399999999999951
1.3125200271606445,1.1494455337524414,1.0929358005523682,4.40999999999995
1.783876657485962,1.8487968444824219,2.0046818256378174,4.41999999999995
2.432563066482544,2.1450605392456055,2.419996976852417,4.42999999999995
2.86271595954895,1.476426124572754,2.1074509620666504,4.43999999999995
2.816242218017578,0.8436222076416016,1.9329946041107178,4.4499999999999496
2.5848276615142822,0.4109621047973633,2.0057458877563477,4.459999999999949
2.610718250274658,0.6840600967407227,1.8604638576507568,4.469999999999949
2.9069037437438965,1.8680248260498047,1.8482944965362549,4.479999999999949
3.617673635482788,2.8507089614868164,2.3948206901550293,4.489999999999949
4.761791229248047,3.224771499633789,2.482135057449341,4.4999999999999485
5.347072601318359,2.9788637161254883,1.7613532543182373,4.509999999999948
6.508216381072998,2.006911277770996,1.0422996282577515,4.519999999999948
7.08939266204834,0.8663501739501953,0.22833466529846191,4.529999999999948
7.048470497131348,0.2876138687133789,-0.13879084587097168,4.539999999999948
6.391139030456543,0.5400686264038086,-0.14016783237457275,4.549999999999947
4.387036323547363,1.1279840469360352,0.41121625900268555,4.559999999999947
2.096006155014038,1.9202690124511719,-0.013890504837036133,4.569999999999947
-0.0578155517578125,2.8984336853027344,-0.847636878490448,4.579999999999947
-0.8711438179016113,3.602510452270508,-0.7505143284797668,4.589999999999947
-0.5368773937225342,3.8676910400390625,-0.3423912823200226,4.599999999999946
0.02848505973815918,4.048223495483398,-0.4438056945800781,4.609999999999946
-0.19419622421264648,4.716510772705078,-1.1114572286605835,4.619999999999946
-0.8401355743408203,5.154095649719238,-1.9996206760406494,4.629999999999946
-2.14022159576416,5.236942291259766,-2.44063138961792,4.6399999999999455
-3.084486246109009,4.675732612609863,-1.9108535051345825,4.649999999999945
-3.8620495796203613,4.347774505615234,-0.8358355760574341,4.659999999999945
-3.958216905593872,4.128209114074707,-0.06815481185913086,4.669999999999945
-3.297430992126465,4.178194046020508,1.8883211612701416,4.679999999999945
-1.6408274173736572,3.2412824630737305,3.941699743270874,4.689999999999944
-0.2917063236236572,1.7723979949951172,4.876008987426758,4.699999999999944
0.11633872985839844,0.7703189849853516,2.7826316356658936,4.709999999999944
0.2871983051300049,-0.14798641204833984,-0.4643056392669678,4.719999999999944
0.1943817138671875,-1.1939544677734375,-3.5935544967651367,4.729999999999944
0.06323623657226562,-2.20930814743042,-7.0486249923706055,4.739999999999943
-0.060942888259887695,-3.1278581619262695,-9.800344467163086,4.749999999999943
0.019326448440551758,-3.815977096557617,-9.696075439453125,4.759999999999943
0.2803366184234619,-4.6254777908325195,-8.013802528381348,4.769999999999943
0.2810935974121094,-5.42844820022583,-6.3095808029174805,4.7799999999999425
-0.7086308002471924,-5.5865302085876465,-4.704048156738281,4.789999999999942
-2.7881546020507812,-4.720118522644043,-3.5739545822143555,4.799999999999942
-4.137444972991943,-4.212461471557617,-3.2632741928100586,4.809999999999942
-5.301383972167969,-4.106278896331787,-3.007111072540283,4.819999999999942
-6.271376609802246,-4.152151584625244,-2.9659290313720703,4.8299999999999415
-6.871983528137207,-4.390467643737793,-2.8600292205810547,4.839999999999941
-7.291704177856445,-4.95175838470459,-2.3084828853607178,4.849999999999941
-7.481956481933594,-5.726022720336914,-1.3828420639038086,4.859999999999941
-7.307864189147949,-6.256307125091553,-0.47780895233154297,4.869999999999941
-6.702554702758789,-6.60694694519043,0.22644281387329102,4.87999999999994
-6.0095109939575195,-6.525359153747559,1.014711856842041,4.88999999999994
-6.044112205505371,-6.58448600769043,1.1633710861206055,4.89999999999994
-3.000755548477173,-4.93275785446167,3.4101507663726807,4.90999999999994
-0.4274616241455078,-2.9907236099243164,4.5480546951293945,4.9199999999999395
2.4775612354278564,-0.058465003967285156,4.387060165405273,4.929999999999939
5.630562782287598,5.904025077819824,2.796072244644165,4.939999999999939
8.895066261291504,12.907055854797363,2.0968997478485107,4.949999999999939
12.972330093383789,17.04642105102539,3.1725714206695557,4.959999999999939
16.32089614868164,13.724910736083984,4.448461532592773,4.9699999999999385
11.55632209777832,6.358589172363281,4.963900566101074,4.979999999999938
4.111865043640137,3.748594284057617,4.002453804016113,4.989999999999938
-1.9515466690063477,1.5213298797607422,3.1636803150177,4.999999999999938
-5.860353469848633,-0.39690589904785156,3.1495258808135986,5.009999999999938
-7.53766393661499,-1.1703810691833496,4.267658710479736,5.019999999999937
-8.018112182617188,-1.3894829750061035,4.0105791091918945,5.029999999999937
-6.996167182922363,-1.4694023132324219,1.5899865627288818,5.039999999999937
-5.595880031585693,0.523036003112793,-3.076216459274292,5.049999999999937
-3.803530693054199,3.9865646362304688,-9.73289966583252,5.0599999999999365
-2.9151830673217773,8.152022361755371,-15.275482177734375,5.069999999999936
-4.207713603973389,11.414441108703613,-17.432559967041016,5.079999999999936
-6.043431758880615,11.899605751037598,-11.455629348754883,5.089999999999936
-2.7131917476654053,6.830171585083008,2.5748801231384277,5.099999999999936
0.2123243808746338,1.1220970153808594,5.573019981384277,5.1099999999999355
2.140667676925659,-3.7863340377807617,3.0766091346740723,5.119999999999935
2.4896440505981445,-7.355161190032959,-0.3071615695953369,5.129999999999935
1.3620107173919678,-8.867259979248047,-4.125396728515625,5.139999999999935
-1.328723430633545,-6.886264801025391,-9.195717811584473,5.149999999999935
-2.6957225799560547,-4.209017276763916,-11.931325912475586,5.159999999999934
-3.3872907161712646,-3.1584959030151367,-11.270051002502441,5.169999999999934
-3.9552860260009766,-2.1663970947265625,-9.350733757019043,5.179999999999934
-3.4056379795074463,-1.3600568771362305,-7.511394023895264,5.189999999999934
-2.2224700450897217,0.20058345794677734,-5.465449333190918,5.199999999999934
-0.04133343696594238,2.3624963760375977,2.9014203548431396,5.209999999999933
2.6431000232696533,3.4347610473632812,9.419862747192383,5.219999999999933
3.0145020484924316,2.8095178604125977,6.481391429901123,5.229999999999933
3.0928714275360107,1.8363981246948242,2.472294807434082,5.239999999999933
3.8901824951171875,-0.3739204406738281,-0.17634493112564087,5.2499999999999325
4.17457389831543,-2.6828579902648926,-2.224045753479004,5.259999999999932
4.103781700134277,-2.6469693183898926,-1.987612009048462,5.269999999999932
2.4667582511901855,-3.7495083808898926,-1.65256929397583,5.279999999999932
0.09244823455810547,-2.718790054321289,2.200934648513794,5.289999999999932
0.2564566135406494,-1.845888614654541,3.114159345626831,5.299999999999931
0.10147213935852051,-1.1272039413452148,2.0157310962677,5.309999999999931
-0.23099899291992188,-0.38608551025390625,0.29321521520614624,5.319999999999931
-0.18288159370422363,-0.031258583068847656,0.09755486249923706,5.329999999999931
0.03772091865539551,-0.247161865234375,0.38310706615448,5.339999999999931
0.37744140625,-1.0068626403808594,0.6194471120834351,5.34999999999993
0.5959007740020752,-1.6817469596862793,1.0110938549041748,5.35999999999993
0.675739049911499,-2.0330638885498047,1.6411848068237305,5.36999999999993
0.7763316631317139,-2.141078472137451,1.3083430528640747,5.37999999999993
1.1794147491455078,-2.1707863807678223,0.4769982695579529,5.3899999999999295
1.2587411403656006,-1.7430024147033691,-0.04288601875305176,5.399999999999929
1.14493727684021,-1.119154930114746,0.3919162154197693,5.409999999999929
1.095245361328125,-0.38550376892089844,1.2994986772537231,5.419999999999929
1.0181488990783691,0.055194854736328125,2.1903738975524902,5.429999999999929
0.8796515464782715,0.33936023712158203,2.11175537109375,5.4399999999999284
0.9000704288482666,0.7128133773803711,1.7110635042190552,5.449999999999928
1.178192138671875,1.2487173080444336,1.7984546422958374,5.459999999999928
1.8034968376159668,1.7639741897583008,1.866741418838501,5.469999999999928
2.531973123550415,1.8912630081176758,1.9084198474884033,5.479999999999928
2.9576563835144043,1.491384506225586,2.035794496536255,5.489999999999927
3.185478687286377,1.0944833755493164,1.9195419549942017,5.499999999999927
3.3956074714660645,1.1982040405273438,1.4974485635757446,5.509999999999927
3.767317295074463,2.175417900085449,1.7154415845870972,5.519999999999927
4.241738319396973,3.0534114837646484,1.8034428358078003,5.5299999999999265
4.940604209899902,3.5183658599853516,1.6194193363189697,5.539999999999926
5.719610691070557,3.2357101440429688,1.146630883216858,5.549999999999926
6.152466297149658,2.127044677734375,0.6813002824783325,5.559999999999926
6.365460395812988,0.9726877212524414,-0.2826368808746338,5.569999999999926
6.0109663009643555,0.8177480697631836,-0.7170108556747437,5.5799999999999255
5.370853900909424,1.1692304611206055,-0.2501099109649658,5.589999999999925
3.5769731998443604,1.9718294143676758,0.9242579936981201,5.599999999999925
1.3602807521820068,3.0736083984375,0.8461138010025024,5.609999999999925
-0.04634737968444824,3.827639579772949,-0.08234858512878418,5.619999999999925
-0.8882811069488525,4.047651290893555,-0.42720943689346313,5.629999999999924
-1.3497002124786377,3.960362434387207,-0.3266969919204712,5.639999999999924
-1.6244721412658691,3.870907783508301,-0.57218337059021,5.649999999999924
-1.9447624683380127,3.7570714950561523,-1.076991081237793,5.659999999999924
-2.615872859954834,3.4420461654663086,-1.7773973941802979,5.6699999999999235
-3.3995559215545654,3.1782913208007812,-2.0695300102233887,5.679999999999923
-3.8282523155212402,2.6135854721069336,-1.705798625946045,5.689999999999923
-3.527960777282715,2.3189868927001953,-0.8968444466590881,5.699999999999923
-2.667947292327881,1.8560361862182617,-0.5375326871871948,5.709999999999923
-1.6098272800445557,1.8124656677246094,-0.18160569667816162,5.7199999999999225
-0.6342360973358154,1.6447257995605469,1.1566200256347656,5.729999999999922
0.34463953971862793,0.9848613739013672,2.419980764389038,5.739999999999922
0.6269598007202148,0.1940011978149414,2.278043270111084,5.749999999999922
0.27605462074279785,-0.6155691146850586,-0.17414426803588867,5.759999999999922
0.025611162185668945,-1.154799461364746,-2.872194528579712,5.769999999999921
-0.3591928482055664,-1.752589225769043,-5.856520652770996,5.779999999999921
-0.961338996887207,-2.2540202140808105,-8.722081184387207,5.789999999999921
-0.6608266830444336,-2.6036620140075684,-8.869384765625,5.799999999999921
-0.47281646728515625,-3.002211093902588,-7.188479423522949,5.809999999999921
-0.5569424629211426,-3.4972805976867676,-4.524902820587158,5.81999999999992
-1.4000437259674072,-3.450477123260498,-3.848512649536133,5.82999999999992
-2.5084972381591797,-3.318110942840576,-3.464850902557373,5.83999999999992
-3.865074396133423,-3.176760673522949,-3.2281415462493896,5.84999999999992
-5.157879829406738,-3.055032253265381,-2.815189838409424,5.8599999999999195
-5.834698677062988,-3.0878453254699707,-2.3207151889801025,5.869999999999919
-6.398736953735352,-3.335562229156494,-2.1706347465515137,5.879999999999919
-6.693488121032715,-3.612496852874756,-2.188438892364502,5.889999999999919
-6.447780609130859,-4.190793991088867,-1.785395622253418,5.899999999999919
-5.683224678039551,-4.8557586669921875,-0.9067754745483398,5.909999999999918
-4.928509712219238,-5.369626045227051,-0.03560352325439453,5.919999999999918
-4.089022159576416,-5.5437517166137695,1.1013736724853516,5.929999999999918
-3.187835931777954,-5.110889434814453,2.1359028816223145,5.939999999999918
-2.3727660179138184,-4.504661560058594,3.1913297176361084,5.949999999999918
-1.330293893814087,-3.518197536468506,4.187498092651367,5.959999999999917
0.2513093948364258,-1.7223339080810547,4.276612281799316,5.969999999999917
2.6908960342407227,1.642216682434082,2.9268176555633545,5.979999999999917
5.627906799316406,7.086923599243164,1.5821566581726074,5.989999999999917
9.455934524536133,12.497798919677734,3.4365780353546143,5.9999999999999165
12.534494400024414,12.596497535705566,5.0175018310546875,6.009999999999916
13.221890449523926,8.344069480895996,6.764878273010254,6.019999999999916
6.518077850341797,4.524818420410156,6.475495338439941,6.029999999999916
0.5891847610473633,2.3697996139526367,5.193434715270996,6.039999999999916
-3.620635509490967,1.2448062896728516,3.4953150749206543,6.0499999999999154
-6.256418228149414,0.5081081390380859,2.188702344894409,6.059999999999915
-6.945622444152832,0.27368831634521484,0.9278442859649658,6.069999999999915
-6.747821807861328,0.1775684356689453,-0.7368123531341553,6.079999999999915
-6.085665702819824,0.36596107482910156,-1.991835117340088,6.089999999999915
-4.471649169921875,2.72220516204834,-4.923521041870117,6.099999999999914
-3.6340138912200928,5.814988136291504,-8.892632484436035,6.109999999999914
-4.2513532638549805,9.351930618286133,-12.920894622802734,6.119999999999914
-5.9971208572387695,10.863958358764648,-12.14149284362793,6.129999999999914
-7.295046806335449,10.309747695922852,-5.673332214355469,6.1399999999999135
-3.941204786300659,4.249344825744629,1.4493651390075684,6.149999999999913
-0.5787322521209717,-0.7461843490600586,2.416137933731079,6.159999999999913
1.133709192276001,-3.7393031120300293,0.09747648239135742,6.169999999999913
1.5761010646820068,-6.667764663696289,-2.1337661743164062,6.179999999999913
1.3117198944091797,-8.11096477508545,-4.305525779724121,6.1899999999999125
0.44933605194091797,-7.736576080322266,-7.853850841522217,6.199999999999912
-1.1150696277618408,-6.1092448234558105,-10.404213905334473,6.209999999999912
-1.589821457862854,-4.518837928771973,-10.897314071655273,6.219999999999912
-1.3893970251083374,-2.6435327529907227,-9.74452018737793,6.229999999999912
-1.019303321838379,-0.6535835266113281,-7.1288018226623535,6.239999999999911
-0.4403374195098877,1.278243064880371,-2.5886998176574707,6.249999999999911
1.378046989440918,3.813626289367676,6.123995780944824,6.259999999999911
2.5640814304351807,4.299327850341797,8.175209045410156,6.269999999999911
2.823826551437378,3.413058280944824,6.122581958770752,6.2799999999999105
3.4905221462249756,1.571457862854004,3.378847599029541,6.28999999999991
3.5252771377563477,-0.9611406326293945,0.11188457906246185,6.29999999999991
2.464155435562134,-2.0576391220092773,-1.427487850189209,6.30999999999991
0.8648726940155029,-2.309171199798584,-1.3992724418640137,6.31999999999991
0.0520472526550293,-2.3441309928894043,-0.6269860863685608,6.3299999999999095
-0.17064809799194336,-2.122976779937744,0.6556044220924377,6.339999999999909
0.0913844108581543,-1.8710975646972656,2.198169708251953,6.349999999999909
0.8698313236236572,-1.3623156547546387,2.6001648902893066,6.359999999999909
0.6638813018798828,-0.7516813278198242,1.9216500520706177,6.369999999999909
0.526893138885498,-0.6718025207519531,0.5974653363227844,6.379999999999908
0.6987848281860352,-1.2308101654052734,-0.18020868301391602,6.389999999999908
1.0084640979766846,-1.9064664840698242,-0.23298364877700806,6.399999999999908
1.351243019104004,-2.409097671508789,-0.14593201875686646,6.409999999999908
1.4627859592437744,-2.550699234008789,-0.16140413284301758,6.419999999999908
1.3836705684661865,-2.5045948028564453,0.08313179016113281,6.429999999999907
0.848137617111206,-2.115705966949463,0.21015828847885132,6.439999999999907
0.013764142990112305,-1.277536392211914,0.2135823369026184,6.449999999999907
-0.3662748336791992,-0.6151037216186523,0.6104929447174072,6.459999999999907
-0.48203301429748535,-0.14398956298828125,1.1624610424041748,6.4699999999999065
-0.6792912483215332,0.2361278533935547,1.7035350799560547,6.479999999999906
-0.644258975982666,0.3597297668457031,1.7435364723205566,6.489999999999906
-0.261035680770874,0.2700967788696289,1.5535778999328613,6.499999999999906
0.4060025215148926,0.5728435516357422,1.2956758737564087,6.509999999999906
1.2707326412200928,1.547226905822754,1.1983850002288818,6.519999999999905
2.039569616317749,1.9955968856811523,1.9803225994110107,6.529999999999905
2.7852444648742676,1.6046075820922852,2.4629452228546143,6.539999999999905
3.044088125228882,1.1601333618164062,2.0803563594818115,6.549999999999905
3.1065969467163086,0.8766822814941406,1.5997389554977417,6.559999999999905
3.2879674434661865,1.3193483352661133,1.574605107307434,6.569999999999904
3.83040452003479,2.2149734497070312,1.9582829475402832,6.579999999999904
4.728823661804199,3.1619176864624023,2.0372424125671387,6.589999999999904
5.855042457580566,3.180548667907715,1.357845664024353,6.599999999999904
6.74686336517334,2.2405776977539062,0.651075005531311,6.6099999999999035
7.6242523193359375,0.8023471832275391,-0.1437702178955078,6.619999999999903
7.760634422302246,0.1328115463256836,-0.4643256664276123,6.629999999999903
7.032361030578613,0.2866945266723633,0.13900840282440186,6.639999999999903
4.808048248291016,1.100046157836914,1.0544652938842773,6.649999999999903
1.841135025024414,2.383983612060547,0.512266993522644,6.659999999999902
0.03245401382446289,3.4676313400268555,-0.09997010231018066,6.669999999999902
-0.7145466804504395,4.150323867797852,-0.28336986899375916,6.679999999999902
-1.066880702972412,4.78681755065918,0.0196286141872406,6.689999999999902
-0.7271716594696045,4.938118934631348,-0.2789749205112457,6.699999999999902
-0.8085870742797852,5.313838958740234,-1.3597309589385986,6.709999999999901
-1.3184316158294678,5.529834747314453,-2.785095453262329,6.719999999999901
-2.1820597648620605,5.443059921264648,-3.5793752670288086,6.729999999999901
-3.199298858642578,4.963651657104492,-3.4776949882507324,6.739999999999901
-3.5622715950012207,3.8298110961914062,-2.6228785514831543,6.7499999999999005
-3.520116090774536,2.978809356689453,-1.5004314184188843,6.7599999999999
-2.5250558853149414,1.969508171081543,-1.63649582862854,6.7699999999999
-1.9015109539031982,1.6790876388549805,-0.9338681697845459,6.7799999999999
-0.4512360095977783,0.8775129318237305,0.8923869132995605,6.7899999999999
0.35986804962158203,-0.13063621520996094,1.9124810695648193,6.7999999999998995
0.5406112670898438,-1.4278044700622559,1.7154741287231445,6.809999999999899
0.2824978828430176,-2.4550795555114746,-0.017131567001342773,6.819999999999899
0.037119388580322266,-3.02835750579834,-2.5539724826812744,6.829999999999899
-1.0593397617340088,-3.371297836303711,-6.40132999420166,6.839999999999899
-1.978804111480713,-3.3306570053100586,-7.76981782913208,6.849999999999898
-2.3001365661621094,-2.975717067718506,-7.941337585449219,6.859999999999898
-2.69996976852417,-2.6307315826416016,-7.392663955688477,6.869999999999898
-2.917849063873291,-2.4364089965820312,-6.487088680267334,6.879999999999898
-3.348313331604004,-2.3959741592407227,-5.498589038848877,6.8899999999998975
-3.9851505756378174,-2.421238899230957,-4.626893997192383,6.899999999999897
-4.489953994750977,-2.7019801139831543,-3.914339303970337,6.909999999999897
-5.076387405395508,-3.326113700866699,-2.725085735321045,6.919999999999897
-5.448666572570801,-3.805746555328369,-1.4810645580291748,6.929999999999897
-5.913463592529297,-4.0243635177612305,-0.6249368190765381,6.9399999999998965
-6.410701751708984,-4.036527633666992,-0.3928086757659912,6.949999999999896
-6.467238426208496,-4.094718933105469,-0.7492525577545166,6.959999999999896
-6.1507110595703125,-4.2248921394348145,-0.9279372692108154,6.969999999999896
-5.83868408203125,-4.2498931884765625,-0.791954755783081,6.979999999999896
-5.136046409606934,-3.8234105110168457,-0.25943875312805176,6.989999999999895
-3.6436474323272705,-2.8407416343688965,0.8548338413238525,6.999999999999895
-2.093518018722534,-1.2800703048706055,1.8596105575561523,7.009999999999895
0.05095815658569336,1.9624061584472656,1.1761035919189453,7.019999999999895
2.8511180877685547,6.101705551147461,-0.6923049688339233,7.0299999999998946
6.030074119567871,12.393957138061523,0.590355634689331,7.039999999999894
9.30160903930664,13.235298156738281,6.060534477233887,7.049999999999894
11.186421394348145,9.330568313598633,6.526369094848633,7.059999999999894
10.220659255981445,2.863985061645508,6.56082820892334,7.069999999999894
6.659857273101807,-1.1272783279418945,5.9285383224487305,7.0799999999998935
3.1672072410583496,-1.7713985443115234,4.626274108886719,7.089999999999893
0.07070064544677734,-1.8442540168762207,3.055251121520996,7.099999999999893
-2.1386733055114746,-2.222771167755127,1.7783496379852295,7.109999999999893
-3.401106119155884,-3.2390670776367188,1.1726679801940918,7.119999999999893
-4.829871654510498,-3.119046211242676,-1.037027359008789,7.129999999999892
-5.287067890167236,-1.0577716827392578,-5.09436559677124,7.139999999999892
-4.09958028793335,1.4808893203735352,-8.00463581085205,7.149999999999892
-2.683412790298462,4.208984375,-10.163589477539062,7.159999999999892
-2.1763715744018555,6.993207931518555,-10.722358703613281,7.169999999999892
-2.335740089416504,10.185391426086426,-8.461788177490234,7.179999999999891
-3.045377016067505,13.515369415283203,-0.6837021112442017,7.189999999999891
-1.880619764328003,10.496147155761719,6.501455307006836,7.199999999999891
1.2182738780975342,3.8872804641723633,4.730259895324707,7.209999999999891
2.297391653060913,-1.1086397171020508,0.9814984798431396,7.2199999999998905
2.33042049407959,-3.9337711334228516,-2.4334192276000977,7.22999999999989
1.1371738910675049,-5.221440315246582,-5.75262975692749,7.23999999999989
-1.4308857917785645,-4.189115524291992,-9.151994705200195,7.24999999999989
-3.1325573921203613,-2.4296159744262695,-10.636791229248047,7.25999999999989
-3.3663246631622314,-1.763054370880127,-9.564741134643555,7.269999999999889
-3.2228243350982666,-1.333951473236084,-7.782651424407959,7.279999999999889
-2.5131216049194336,-0.5506525039672852,-6.3882904052734375,7.289999999999889
-1.1114189624786377,0.7362251281738281,-1.8137248754501343,7.299999999999889
1.1623642444610596,1.5021486282348633,4.724652290344238,7.309999999999889
1.9413020610809326,1.4491901397705078,4.452395915985107,7.319999999999888
1.8446414470672607,1.1946887969970703,2.260896682739258,7.329999999999888
1.8835022449493408,0.5691347122192383,0.31790411472320557,7.339999999999888
1.1073951721191406,-0.5076694488525391,-0.8480682373046875,7.349999999999888
-0.3200392723083496,-0.9416275024414062,-0.6744885444641113,7.3599999999998875
-1.6757004261016846,-0.69073486328125,0.10661950707435608,7.369999999999887
-2.8125863075256348,-0.6644086837768555,0.7818605899810791,7.379999999999887
-3.078397035598755,-0.8648815155029297,0.3402353823184967,7.389999999999887
-2.7414357662200928,-0.890803337097168,-0.033179059624671936,7.399999999999887
-2.3136961460113525,-0.5860462188720703,0.3113783299922943,7.4099999999998865
-1.8660709857940674,0.3717679977416992,0.4941115081310272,7.419999999999886
-1.1096394062042236,1.1662168502807617,0.36290034651756287,7.429999999999886
0.21568083763122559,1.1590118408203125,0.018615007400512695,7.439999999999886
1.521043300628662,0.42725276947021484,0.16598056256771088,7.449999999999886
3.0766406059265137,-1.0361347198486328,0.3221290707588196,7.459999999999885
3.7922120094299316,-2.1061549186706543,0.7256473302841187,7.469999999999885
3.5178935527801514,-2.4794392585754395,1.21254563331604,7.479999999999885
2.0421316623687744,-2.110489845275879,1.2253856658935547,7.489999999999885
0.9632863998413086,-1.4379491806030273,0.8734322786331177,7.4999999999998845
0.7961828708648682,-0.7637777328491211,0.6111221313476562,7.509999999999884
0.6164402961730957,0.11966514587402344,0.575827956199646,7.519999999999884
0.5037586688995361,0.6722755432128906,0.6781644821166992,7.529999999999884
0.3179051876068115,1.0265741348266602,0.8617669343948364,7.539999999999884
0.14678287506103516,1.0646781921386719,0.9642113447189331,7.5499999999998835
0.10553288459777832,0.7778778076171875,0.4335361123085022,7.559999999999883
0.05345439910888672,0.45877838134765625,-0.24213147163391113,7.569999999999883
-0.06891822814941406,0.07676887512207031,-0.772209882736206,7.579999999999883
-0.198164701461792,-0.19660186767578125,-0.9377108812332153,7.589999999999883
-0.21436214447021484,-0.44145679473876953,-0.6238259077072144,7.599999999999882
-0.3660299777984619,-0.6717729568481445,-0.11500599980354309,7.609999999999882
-0.47193145751953125,-0.9285507202148438,0.03823167085647583,7.619999999999882
-0.450847864151001,-1.0729284286499023,-0.08251199126243591,7.629999999999882
-0.2302417755126953,-1.0687589645385742,-0.30704131722450256,7.6399999999998816
0.2889237403869629,-0.7672548294067383,-0.7076128125190735,7.649999999999881
0.8531858921051025,-0.09592342376708984,-0.961000919342041,7.659999999999881
1.2969346046447754,0.7300519943237305,-0.908260703086853,7.669999999999881
1.6844871044158936,1.3615522384643555,-0.40858688950538635,7.679999999999881
1.8438968658447266,1.743962287902832,-0.09969854354858398,7.6899999999998805
1.6794402599334717,2.125772476196289,-0.023216042667627335,7.69999999999988
0.8709945678710938,2.6185779571533203,-0.21180742979049683,7.70999999999988
-0.015661954879760742,3.059880256652832,-0.5160930156707764,7.71999999999988
-0.934929370880127,3.207545280456543,-1.1084562540054321,7.72999999999988
-1.5898311138153076,2.823040008544922,-1.3913183212280273,7.739999999999879
-2.057884693145752,2.549724578857422,-1.3369885683059692,7.749999999999879
-2.3527064323425293,2.026622772216797,-0.9698594808578491,7.759999999999879
-2.551288604736328,1.6586036682128906,-0.5754232406616211,7.769999999999879
-2.545882225036621,1.3717622756958008,-0.25223809480667114,7.779999999999879
-2.339416980743408,0.9240236282348633,-0.09323561191558838,7.789999999999878
-1.9055206775665283,0.7904090881347656,-0.18759334087371826,7.799999999999878
-1.4469869136810303,0.8289918899536133,-0.46045148372650146,7.809999999999878
-0.8933558464050293,1.0101194381713867,-0.5729106664657593,7.819999999999878
-0.7276513576507568,1.3911266326904297,-0.396586537361145,7.8299999999998775
-0.6510467529296875,1.764012336730957,-0.6389371156692505,7.839999999999877
-0.5334110260009766,1.3839454650878906,-1.005424976348877,7.849999999999877
-0.7279994487762451,-0.017780303955078125,-1.635446548461914,7.859999999999877
-0.1339268684387207,-0.1502361297607422,-2.0583324432373047,7.869999999999877
0.30661463737487793,0.3974895477294922,-1.717228889465332,7.879999999999876
0.14014101028442383,0.42856502532958984,-1.0744425058364868,7.889999999999876
-0.42371392250061035,0.20466232299804688,-0.48536086082458496,7.899999999999876
-0.6498551368713379,0.037017822265625,0.15789484977722168,7.909999999999876
-0.9134788513183594,0.03225231170654297,0.2028968334197998,7.919999999999876
-1.2126317024230957,-0.34992408752441406,-0.8645403385162354,7.929999999999875
-1.078082799911499,-1.0434999465942383,-2.0764822959899902,7.939999999999875
-1.8667445182800293,-2.428304672241211,-3.0773651599884033,7.949999999999875
-1.4540088176727295,-3.4639577865600586,-2.919102191925049,7.959999999999875
-0.5748436450958252,-3.6042628288269043,-2.02538800239563,7.9699999999998745
-0.018844127655029297,-2.8175597190856934,-1.1583900451660156,7.979999999999874
-0.28508996963500977,-2.337867259979248,-0.687980055809021,7.989999999999874
-1.339095115661621,-1.5980701446533203,-0.5956515073776245,7.999999999999874
