AccX,AccY,AccZ,SampleRate
-1.9909909963607788,13.003839492797852,-2.1280789375305176,0.01
-3.2365877628326416,15.367987632751465,-2.657991886138916,0.02
-3.016854763031006,14.77143669128418,-2.764580249786377,0.03
-1.2595531940460205,10.67184066772461,-0.8494133949279785,0.04
0.041899681091308594,7.36646032333374,2.501007556915283,0.05
-2.3938958644866943,11.458614349365234,7.342942237854004,0.060000000000000005
-3.0816867351531982,17.35723304748535,6.063144683837891,0.07
-2.3476409912109375,19.592531204223633,0.21994972229003906,0.08
-4.400238037109375,13.201305389404297,-8.664899826049805,0.09
-5.072314262390137,5.415587902069092,-16.393688201904297,0.09999999999999999
-4.19467306137085,-0.25437021255493164,-18.39155387878418,0.10999999999999999
-3.757612705230713,-4.967100143432617,-12.026656150817871,0.11999999999999998
-3.314885139465332,-4.534377098083496,-5.570724010467529,0.12999999999999998
-2.2068514823913574,-2.6974740028381348,0.3306417465209961,0.13999999999999999
-2.231835126876831,0.32436084747314453,-1.6399526596069336,0.15
-2.7750582695007324,2.725114345550537,-7.621941566467285,0.16
-3.1407973766326904,2.213486671447754,-12.754731178283691,0.17
-2.714466094970703,0.7450089454650879,-15.938481330871582,0.18000000000000002
-2.0848262310028076,0.249725341796875,-15.843122482299805,0.19000000000000003
-1.1524269580841064,0.26543712615966797,-14.20556640625,0.20000000000000004
-0.40702247619628906,0.2672410011291504,-12.162933349609375,0.21000000000000005
1.999871015548706,-0.18422794342041016,-5.111170291900635,0.22000000000000006
2.316408634185791,-0.20115375518798828,-4.17819356918335,0.23000000000000007
0.05312013626098633,0.41048717498779297,-4.864477157592773,0.24000000000000007
-2.130136489868164,1.2962398529052734,-3.0368494987487793,0.25000000000000006
-4.600494861602783,2.582858085632324,1.4396018981933594,0.26000000000000006
-7.115539073944092,3.118281364440918,2.927058696746826,0.2700000000000001
-8.447823524475098,2.1256589889526367,-0.7514533996582031,0.2800000000000001
-6.713873863220215,0.29601478576660156,-5.854269504547119,0.2900000000000001
-3.2528305053710938,-0.532228946685791,-8.088282585144043,0.3000000000000001
-1.3259060382843018,-0.35426998138427734,-8.11934757232666,0.3100000000000001
-0.08386266231536865,-0.19891929626464844,-7.628715991973877,0.3200000000000001
0.41512537002563477,-0.3470306396484375,-7.116360664367676,0.3300000000000001
0.11165046691894531,-0.6429347991943359,-7.084807395935059,0.34000000000000014
-0.321069598197937,-0.6913089752197266,-6.99039363861084,0.35000000000000014
-0.5545562505722046,-0.4171180725097656,-6.270750999450684,0.36000000000000015
-0.6765508055686951,0.1001596450805664,-5.319607734680176,0.37000000000000016
-0.8239930868148804,0.8057832717895508,-4.343310832977295,0.38000000000000017
-1.0986405611038208,1.1441946029663086,-3.8457088470458984,0.3900000000000002
-1.6327885389328003,1.1087627410888672,-3.753894567489624,0.4000000000000002
-2.4564414024353027,0.7656679153442383,-4.372636795043945,0.4100000000000002
-3.5084104537963867,0.2550477981567383,-4.943872451782227,0.4200000000000002
-4.210786819458008,0.29937267303466797,-4.770357131958008,0.4300000000000002
-4.388045310974121,0.3308525085449219,-4.111600875854492,0.4400000000000002
-3.9557509422302246,-0.0504608154296875,-3.5534114837646484,0.45000000000000023
-2.3617348670959473,-0.17142200469970703,-4.021333694458008,0.46000000000000024
-0.9962502717971802,0.17047786712646484,-4.788133144378662,0.47000000000000025
-0.18020856380462646,1.168313980102539,-4.165957450866699,0.48000000000000026
0.3912745714187622,1.5445375442504883,-2.7534918785095215,0.49000000000000027
0.8683439493179321,0.9661417007446289,-2.5429022312164307,0.5000000000000002
1.010413646697998,0.039404869079589844,-3.780397891998291,0.5100000000000002
0.8915759325027466,-0.30259227752685547,-4.707591533660889,0.5200000000000002
0.8590542078018188,0.21941757202148438,-3.881021022796631,0.5300000000000002
0.9299734830856323,1.0127363204956055,-2.7278130054473877,0.5400000000000003
1.0803554058074951,0.9732379913330078,-3.0883524417877197,0.5500000000000003
1.5606825351715088,0.5532159805297852,-4.600985527038574,0.5600000000000003
2.012648582458496,0.44118595123291016,-5.629958152770996,0.5700000000000003
2.222595691680908,0.40410804748535156,-5.611207008361816,0.5800000000000003
2.90065860748291,-0.04865741729736328,-4.380589485168457,0.5900000000000003
2.623748302459717,-0.8565807342529297,-3.615044593811035,0.6000000000000003
1.0870378017425537,-0.4536705017089844,-3.754981517791748,0.6100000000000003
0.5000923871994019,2.536245346069336,-2.9935693740844727,0.6200000000000003
0.705155611038208,5.626547813415527,-2.0384364128112793,0.6300000000000003
1.269331455230713,7.563231468200684,-1.2129173278808594,0.6400000000000003
1.2849321365356445,8.070130348205566,-3.1169931888580322,0.6500000000000004
1.2334983348846436,6.91603946685791,-6.857484817504883,0.6600000000000004
1.4461939334869385,4.52386474609375,-8.424402236938477,0.6700000000000004
0.8121510744094849,3.3470983505249023,-8.355485916137695,0.6800000000000004
-0.6371622085571289,4.134206771850586,-6.133685111999512,0.6900000000000004
-2.3788347244262695,5.5631303787231445,-3.905336380004883,0.7000000000000004
-2.5165021419525146,5.692462921142578,-4.190792560577393,0.7100000000000004
-4.678961277008057,7.543305397033691,-3.0280027389526367,0.7200000000000004
-4.811172008514404,7.3768815994262695,-3.6376190185546875,0.7300000000000004
-4.36995267868042,7.177873611450195,-3.9741010665893555,0.7400000000000004
-4.232333660125732,7.292781829833984,-3.7016801834106445,0.7500000000000004
-4.410918235778809,7.142377853393555,-3.3580918312072754,0.7600000000000005
-4.614120006561279,6.632718086242676,-3.6405997276306152,0.7700000000000005
-4.568876266479492,5.626441478729248,-4.762059211730957,0.7800000000000005
-4.595276832580566,4.973633289337158,-5.976243495941162,0.7900000000000005
-4.726672172546387,4.150997638702393,-7.080124855041504,0.8000000000000005
-5.054554462432861,3.7013397216796875,-7.759842872619629,0.8100000000000005
-5.565498352050781,3.4822945594787598,-6.610829830169678,0.8200000000000005
-5.739737510681152,3.2698287963867188,-4.6957783699035645,0.8300000000000005
-5.414575576782227,3.1242804527282715,-2.8800525665283203,0.8400000000000005
-5.023797512054443,3.1528210639953613,-2.267598867416382,0.8500000000000005
-4.8352532386779785,3.3220577239990234,-2.77364444732666,0.8600000000000005
-4.915139198303223,3.6576623916625977,-3.948298215866089,0.8700000000000006
-5.042225360870361,3.99117374420166,-5.430688858032227,0.8800000000000006
-4.925048351287842,4.262662887573242,-7.509435176849365,0.8900000000000006
-4.2652907371521,4.420770168304443,-8.71638298034668,0.9000000000000006
-3.5730702877044678,4.515402793884277,-9.172374725341797,0.9100000000000006
-2.688650131225586,4.2633957862854,-8.9901762008667,0.9200000000000006
-1.604651927947998,3.6078267097473145,-8.115063667297363,0.9300000000000006
-0.6982641220092773,2.6014041900634766,-6.830808162689209,0.9400000000000006
-0.7112081050872803,1.6185224056243896,-5.846967697143555,0.9500000000000006
-1.675727367401123,0.6450634002685547,-4.878360748291016,0.9600000000000006
-2.8253207206726074,0.21839690208435059,-4.586376190185547,0.9700000000000006
-4.290333271026611,-0.26826024055480957,-4.61356258392334,0.9800000000000006
-5.410851955413818,-0.8210175037384033,-4.917503833770752,0.9900000000000007
-6.253705024719238,-1.260409951210022,-5.194850921630859,1.0000000000000007
-6.606804847717285,-1.5371923446655273,-5.287181854248047,1.0100000000000007
-6.426774978637695,-1.8313337564468384,-5.043396472930908,1.0200000000000007
-5.1780242919921875,-1.703415870666504,-4.402626991271973,1.0300000000000007
-3.4938764572143555,-1.2315435409545898,-4.125979900360107,1.0400000000000007
-2.430850028991699,-0.712613582611084,-4.653297424316406,1.0500000000000007
-2.3940982818603516,-0.7672646045684814,-4.651863098144531,1.0600000000000007
-1.8999844789505005,-0.20029997825622559,-6.1454668045043945,1.0700000000000007
-1.821742296218872,-0.3938441276550293,-6.1912689208984375,1.0800000000000007
-1.8091866970062256,-0.539562463760376,-6.146618843078613,1.0900000000000007
-1.483283281326294,-1.0833778381347656,-5.690141677856445,1.1000000000000008
-1.2996602058410645,-1.318023920059204,-5.795664310455322,1.1100000000000008
-1.2096068859100342,-1.4817767143249512,-6.113499641418457,1.1200000000000008
-1.1268012523651123,-1.4475438594818115,-6.2233405113220215,1.1300000000000008
-1.0749053955078125,-0.9264347553253174,-6.000163555145264,1.1400000000000008
-0.9151139259338379,0.005746364593505859,-5.449251174926758,1.1500000000000008
-0.5568082332611084,2.1412487030029297,-4.207368850708008,1.1600000000000008
0.11547183990478516,4.855452537536621,-2.2389111518859863,1.1700000000000008
1.0240802764892578,6.392564296722412,-0.9368715286254883,1.1800000000000008
2.0950727462768555,7.131470680236816,-0.5645403861999512,1.1900000000000008
3.2695388793945312,6.3736772537231445,-0.6568922996520996,1.2000000000000008
3.8872010707855225,5.319140911102295,-0.47728538513183594,1.2100000000000009
3.9835588932037354,5.076739311218262,0.28244876861572266,1.2200000000000009
2.81902813911438,6.527718544006348,0.9880962371826172,1.2300000000000009
0.6844727993011475,9.776453971862793,2.0626330375671387,1.2400000000000009
-2.55491304397583,13.123848915100098,2.47225284576416,1.2500000000000009
-4.901985168457031,13.919212341308594,2.4015235900878906,1.260000000000001
-6.602847576141357,13.274253845214844,2.5761260986328125,1.270000000000001
-7.194849014282227,14.259517669677734,5.516144752502441,1.280000000000001
-6.477109909057617,16.612314224243164,5.4851508140563965,1.290000000000001
-7.137099742889404,17.415794372558594,2.537130832672119,1.300000000000001
-8.232108116149902,7.652473449707031,-8.653663635253906,1.310000000000001
-5.75928258895874,3.3378024101257324,-18.432971954345703,1.320000000000001
-3.285919666290283,1.2816481590270996,-19.752504348754883,1.330000000000001
0.2655932903289795,-1.9284944534301758,-11.345064163208008,1.340000000000001
5.075113296508789,-2.554476737976074,-1.577390193939209,1.350000000000001
6.357754707336426,-1.6057357788085938,0.04082822799682617,1.360000000000001
4.123355388641357,-0.5710744857788086,-6.412624359130859,1.370000000000001
1.3686065673828125,0.36447668075561523,-13.14571762084961,1.380000000000001
-0.13841235637664795,-0.20588159561157227,-15.04939079284668,1.390000000000001
-1.6872472763061523,-0.8781671524047852,-14.671205520629883,1.400000000000001
-2.4625701904296875,-1.1987557411193848,-12.958045959472656,1.410000000000001
-2.4252309799194336,-1.3382153511047363,-7.755216598510742,1.420000000000001
-2.305086612701416,-0.17762136459350586,-3.19179105758667,1.430000000000001
-3.0534539222717285,0.6958980560302734,-4.161402702331543,1.440000000000001
-3.6109118461608887,0.6252584457397461,-5.458677291870117,1.450000000000001
-3.959484577178955,0.4715309143066406,-5.3906426429748535,1.460000000000001
-4.375926494598389,0.6273326873779297,-3.7535083293914795,1.470000000000001
-4.450120449066162,1.194666862487793,-0.978515625,1.480000000000001
-4.611448764801025,1.4925470352172852,0.7076311111450195,1.490000000000001
-4.291184902191162,0.6473312377929688,-1.750533103942871,1.500000000000001
-3.390495538711548,-0.10125541687011719,-5.509890556335449,1.5100000000000011
-2.3385143280029297,0.00665283203125,-8.840082168579102,1.5200000000000011
-1.3337998390197754,0.4627532958984375,-9.242403030395508,1.5300000000000011
0.2783166170120239,0.33075904846191406,-6.791694641113281,1.5400000000000011
1.669399380683899,0.04479408264160156,-4.57738733291626,1.5500000000000012
1.7101675271987915,0.00473785400390625,-4.505714416503906,1.5600000000000012
0.8392274379730225,-0.15538692474365234,-6.118535995483398,1.5700000000000012
-0.0588078498840332,-0.19039249420166016,-6.3437299728393555,1.5800000000000012
-0.7287331819534302,0.0037088394165039062,-5.244156360626221,1.5900000000000012
-1.2578805685043335,0.2303142547607422,-4.292634963989258,1.6000000000000012
-1.9039225578308105,0.33876705169677734,-3.816486358642578,1.6100000000000012
-2.5180716514587402,0.3739757537841797,-3.848808526992798,1.6200000000000012
-2.7456960678100586,0.46702003479003906,-3.9226739406585693,1.6300000000000012
-2.623065948486328,0.3602619171142578,-4.061374187469482,1.6400000000000012
-2.3305583000183105,-0.1624441146850586,-3.8396944999694824,1.6500000000000012
-2.0353176593780518,-0.514984130859375,-3.494123935699463,1.6600000000000013
-2.0248665809631348,-0.5038242340087891,-3.36614990234375,1.6700000000000013
-2.063342332839966,-0.1704416275024414,-3.2101564407348633,1.6800000000000013
-1.827478289604187,-0.09762382507324219,-3.075010299682617,1.6900000000000013
-1.1078208684921265,-0.2678232192993164,-2.9083428382873535,1.7000000000000013
-0.293185830116272,-0.116912841796875,-2.7444565296173096,1.7100000000000013
0.30476295948028564,0.1687183380126953,-2.5700502395629883,1.7200000000000013
0.3625602722167969,-0.09423351287841797,-2.6368167400360107,1.7300000000000013
0.06575250625610352,-0.6837987899780273,-2.9487862586975098,1.7400000000000013
-0.1240883469581604,-0.6141471862792969,-2.999332904815674,1.7500000000000013
0.1683482527732849,-0.061966896057128906,-2.428147315979004,1.7600000000000013
1.030811071395874,0.4292306900024414,-2.1301448345184326,1.7700000000000014
1.7017141580581665,0.4768867492675781,-2.9263808727264404,1.7800000000000014
2.1878628730773926,0.5325908660888672,-3.9099435806274414,1.7900000000000014
2.244485855102539,1.0277204513549805,-4.5748138427734375,1.8000000000000014
2.4599666595458984,1.1536731719970703,-4.11665153503418,1.8100000000000014
2.1118662357330322,0.5109996795654297,-3.0577011108398438,1.8200000000000014
0.40758955478668213,0.229705810546875,-3.2060739994049072,1.8300000000000014
-0.27896401286125183,1.7466936111450195,-3.114290237426758,1.8400000000000014
0.5176904797554016,4.742270469665527,-2.0625739097595215,1.8500000000000014
1.8472288846969604,7.272522926330566,-1.0810115337371826,1.8600000000000014
2.738344192504883,8.204788208007812,-1.5579535961151123,1.8700000000000014
3.0252490043640137,7.337477684020996,-4.954304218292236,1.8800000000000014
3.1639528274536133,5.495908737182617,-7.870790481567383,1.8900000000000015
3.0089917182922363,3.9574785232543945,-7.677890777587891,1.9000000000000015
1.5045044422149658,4.2739410400390625,-4.855711936950684,1.9100000000000015
-1.2942380905151367,5.442492485046387,-2.402527093887329,1.9200000000000015
-2.9656128883361816,6.120815277099609,-2.060798168182373,1.9300000000000015
-3.982520580291748,6.400848388671875,-2.943955183029175,1.9400000000000015
-4.424318313598633,6.585829734802246,-4.0500383377075195,1.9500000000000015
-4.195842742919922,6.825650215148926,-4.870767593383789,1.9600000000000015
-3.8942039012908936,7.394366264343262,-4.720090866088867,1.9700000000000015
-3.7401680946350098,8.337647438049316,-4.012665271759033,1.9800000000000015
-3.8512792587280273,8.916361808776855,-3.470576763153076,1.9900000000000015
-3.983985424041748,8.773147583007812,-3.941579818725586,2.0000000000000013
-4.1566972732543945,7.916015625,-5.09584903717041,2.010000000000001
-4.297543048858643,6.731212139129639,-6.0771989822387695,2.020000000000001
-4.5364580154418945,5.4043779373168945,-7.048042297363281,2.0300000000000007
-5.167323112487793,4.211405277252197,-7.650435447692871,2.0400000000000005
-5.712603569030762,3.2193784713745117,-6.801289081573486,2.0500000000000003
-5.838040351867676,3.4599356651306152,-7.02145528793335,2.06
-6.194765090942383,2.0011649131774902,-4.078632354736328,2.07
-6.273241996765137,1.9155430793762207,-3.572683095932007,2.0799999999999996
-6.498108863830566,2.046748161315918,-3.9209887981414795,2.0899999999999994
-6.8186869621276855,2.280261993408203,-4.503302097320557,2.099999999999999
-6.76936149597168,2.5792622566223145,-5.252674579620361,2.109999999999999
-6.187826156616211,3.063009738922119,-6.4257001876831055,2.1199999999999988
-5.161594390869141,3.628304958343506,-7.5993804931640625,2.1299999999999986
-3.603482723236084,3.943387985229492,-8.286355018615723,2.1399999999999983
-2.106173276901245,3.7913427352905273,-8.76211929321289,2.149999999999998
-0.41481637954711914,3.0306529998779297,-8.516393661499023,2.159999999999998
0.5828485488891602,2.149885654449463,-7.790687561035156,2.1699999999999977
0.9989099502563477,0.9834482669830322,-7.068559646606445,2.1799999999999975
0.30399560928344727,-0.342648983001709,-6.636455059051514,2.1899999999999973
-1.0713145732879639,-1.1974884271621704,-6.661252498626709,2.199999999999997
-2.6713104248046875,-1.7951810359954834,-6.771543502807617,2.209999999999997
-4.207121849060059,-2.298398494720459,-6.743730545043945,2.2199999999999966
-5.241724491119385,-2.624838352203369,-6.4455037117004395,2.2299999999999964
-6.139170169830322,-3.0328102111816406,-5.919642925262451,2.239999999999996
-6.645827293395996,-3.358583927154541,-5.202236175537109,2.249999999999996
-6.582106113433838,-3.668330669403076,-4.542730331420898,2.259999999999996
-5.336705207824707,-3.5731053352355957,-4.171164512634277,2.2699999999999956
-3.958733320236206,-3.0946807861328125,-4.326375484466553,2.2799999999999954
-3.297975540161133,-2.8253848552703857,-4.551071643829346,2.289999999999995
-2.885542154312134,-2.696511745452881,-4.668964385986328,2.299999999999995
-2.4460864067077637,-2.687159538269043,-4.684757232666016,2.3099999999999947
-1.9569482803344727,-2.6582858562469482,-4.468684196472168,2.3199999999999945
-1.183759093284607,-2.292727470397949,-3.88675594329834,2.3299999999999943
-0.19696378707885742,-1.3696799278259277,-3.062053680419922,2.339999999999994
0.4983065128326416,-0.36771512031555176,-2.9247355461120605,2.349999999999994
1.3335645198822021,1.3290610313415527,-3.026829242706299,2.3599999999999937
2.2378129959106445,4.436216831207275,-2.999697208404541,2.3699999999999934
2.9408512115478516,6.528082847595215,-3.6544079780578613,2.3799999999999932
3.460235357284546,8.000967025756836,-4.094063758850098,2.389999999999993
3.8038132190704346,8.793865203857422,-2.8618674278259277,2.399999999999993
3.406766891479492,8.73583698272705,-1.3092479705810547,2.4099999999999926
2.2227089405059814,8.543970108032227,-0.0063152313232421875,2.4199999999999924
0.825772762298584,9.078370094299316,0.9985232353210449,2.429999999999992
-1.328285574913025,10.023488998413086,1.9295454025268555,2.439999999999992
-3.614546775817871,10.423169136047363,2.7467308044433594,2.4499999999999917
-5.233614921569824,9.542423248291016,3.7136459350585938,2.4599999999999915
-4.889847755432129,8.50969123840332,3.817647933959961,2.4699999999999913
-4.609656810760498,12.048114776611328,5.3978962898254395,2.479999999999991
-3.4726147651672363,17.099918365478516,4.236485004425049,2.489999999999991
-2.574223279953003,19.59390640258789,0.5358853340148926,2.4999999999999907
-3.7619879245758057,13.171442031860352,-9.392410278320312,2.5099999999999905
-2.478343963623047,5.719151496887207,-16.717252731323242,2.5199999999999902
-0.9006062746047974,0.8733758926391602,-15.953730583190918,2.52999999999999
0.8948190212249756,-3.088144302368164,-8.865934371948242,2.53999999999999
3.087833881378174,-4.701379776000977,-1.1561102867126465,2.5499999999999896
2.8784983158111572,-4.856267929077148,0.7585482597351074,2.5599999999999894
1.102400779724121,-3.6037745475769043,-3.2234702110290527,2.569999999999989
-1.2544429302215576,-1.6988682746887207,-9.698473930358887,2.579999999999989
-2.375779628753662,-1.5726428031921387,-12.886547088623047,2.5899999999999888
-3.3261513710021973,-1.6705288887023926,-14.33564281463623,2.5999999999999885
-3.4412472248077393,-1.3515830039978027,-14.07436752319336,2.6099999999999883
-2.7171528339385986,-0.6528544425964355,-12.79250717163086,2.619999999999988
-1.649383306503296,0.28724098205566406,-10.948476791381836,2.629999999999988
0.1272287368774414,2.189408302307129,-3.742483615875244,2.6399999999999877
-0.12062585353851318,2.067625045776367,-2.008481502532959,2.6499999999999875
-1.5189611911773682,0.9995250701904297,-2.1287589073181152,2.6599999999999873
-3.553826093673706,0.3593711853027344,-1.1549828052520752,2.669999999999987
-5.589540481567383,0.22796249389648438,1.1837730407714844,2.679999999999987
-6.66231107711792,-0.05613231658935547,2.2258453369140625,2.6899999999999866
-6.312653541564941,-0.4147043228149414,-0.8085322380065918,2.6999999999999864
-4.571937561035156,-0.3982524871826172,-4.624233245849609,2.709999999999986
-2.630838632583618,0.09697341918945312,-7.1470770835876465,2.719999999999986
-1.4530359506607056,0.8199138641357422,-8.095253944396973,2.7299999999999858
-0.4433974623680115,0.6778774261474609,-7.694264888763428,2.7399999999999856
0.524158239364624,-0.08218955993652344,-6.614872932434082,2.7499999999999853
1.310175895690918,-0.9174118041992188,-5.64747428894043,2.759999999999985
1.4411591291427612,-1.186795711517334,-5.4155378341674805,2.769999999999985
0.8101011514663696,-0.8839406967163086,-5.25399112701416,2.7799999999999847
-0.27859246730804443,-0.07320880889892578,-4.18433141708374,2.7899999999999845
-1.0784904956817627,0.3881855010986328,-3.173008680343628,2.7999999999999843
-1.662539005279541,0.21546649932861328,-2.593000888824463,2.809999999999984
-2.180446147918701,-0.06484508514404297,-2.8096790313720703,2.819999999999984
-2.344947338104248,0.11196327209472656,-3.2684085369110107,2.8299999999999836
-2.390825033187866,0.216796875,-3.713958263397217,2.8399999999999834
-2.487442970275879,-0.015114784240722656,-3.607372522354126,2.849999999999983
-2.727534532546997,-0.5240106582641602,-2.9736826419830322,2.859999999999983
-2.866978645324707,-1.139608383178711,-2.2124412059783936,2.869999999999983
-2.551206111907959,-1.5091180801391602,-1.850066065788269,2.8799999999999826
-1.6355421543121338,-1.3486661911010742,-2.1130194664001465,2.8899999999999824
-0.37808120250701904,-0.9850645065307617,-2.2852909564971924,2.899999999999982
0.8204752206802368,-0.5511341094970703,-2.2576005458831787,2.909999999999982
1.8648393154144287,-0.22183990478515625,-2.1316380500793457,2.9199999999999817
2.606795072555542,-0.17583560943603516,-1.7350927591323853,2.9299999999999815
2.395324230194092,-0.40899658203125,-1.6153514385223389,2.9399999999999813
1.6847472190856934,-0.10084247589111328,-1.8730504512786865,2.949999999999981
1.3707178831100464,0.2997112274169922,-2.0179502964019775,2.959999999999981
1.784399151802063,0.11791610717773438,-2.304119825363159,2.9699999999999807
2.1429123878479004,-0.26398563385009766,-2.886544704437256,2.9799999999999804
2.264192581176758,0.08694171905517578,-3.402461290359497,2.9899999999999802
2.2468156814575195,1.0815982818603516,-3.104370594024658,2.99999999999998
2.4474422931671143,1.2064971923828125,-1.893775463104248,3.00999999999998
1.3558372259140015,0.5857505798339844,-1.0726616382598877,3.0199999999999796
0.3031381666660309,0.05436897277832031,-1.9522602558135986,3.0299999999999794
0.3118807375431061,1.4848861694335938,-3.3458595275878906,3.039999999999979
1.4143128395080566,4.835226058959961,-3.270501136779785,3.049999999999979
2.6341381072998047,7.780745506286621,-2.1424367427825928,3.0599999999999787
3.3889553546905518,8.785627365112305,-2.7208309173583984,3.0699999999999785
3.631406784057617,7.897294998168945,-5.393273830413818,3.0799999999999783
4.065188407897949,5.16739559173584,-7.331208229064941,3.089999999999978
3.657888889312744,3.0497827529907227,-7.192319393157959,3.099999999999978
0.9439831972122192,4.377907752990723,-4.8096747398376465,3.1099999999999777
-2.1242833137512207,6.780004501342773,-2.697352647781372,3.1199999999999775
-3.481947422027588,7.776031494140625,-2.694875955581665,3.1299999999999772
-4.042580604553223,8.16950798034668,-3.22054123878479,3.139999999999977
-4.292581558227539,8.72730827331543,-3.6268954277038574,3.149999999999977
-4.241650581359863,9.312664031982422,-3.7405500411987305,3.1599999999999766
-4.330867290496826,9.861398696899414,-3.8143985271453857,3.1699999999999764
-5.274048805236816,10.22369384765625,-3.7613720893859863,3.179999999999976
-6.255132675170898,9.922818183898926,-3.3853888511657715,3.189999999999976
-7.230959415435791,8.507145881652832,-3.9098868370056152,3.1999999999999758
-6.936819076538086,6.128048896789551,-4.285160064697266,3.2099999999999755
-6.146561622619629,4.214853286743164,-4.758100509643555,3.2199999999999753
-5.709234237670898,2.8011465072631836,-5.779935836791992,3.229999999999975
-5.383889198303223,1.7744264602661133,-5.4861931800842285,3.239999999999975
-5.0507426261901855,1.1288843154907227,-4.879535675048828,3.2499999999999747
-4.581992149353027,0.6613326072692871,-4.645843982696533,3.2599999999999745
-4.353055000305176,0.6342544555664062,-4.794877052307129,3.2699999999999743
-4.523314476013184,0.7787632942199707,-5.079080581665039,3.279999999999974
-5.114911079406738,1.0514888763427734,-5.767855167388916,3.289999999999974
-5.887460231781006,1.2929768562316895,-6.64153528213501,3.2999999999999736
-6.384272575378418,1.7486019134521484,-7.450741291046143,3.3099999999999734
-6.274172306060791,2.428877353668213,-7.78347110748291,3.319999999999973
-5.592466354370117,3.1924238204956055,-7.745811939239502,3.329999999999973
-4.416931629180908,3.5489416122436523,-7.6648359298706055,3.3399999999999728
-3.284188985824585,3.237812042236328,-7.765741348266602,3.3499999999999726
-2.1258034706115723,2.2147326469421387,-7.793606758117676,3.3599999999999723
-1.408400058746338,1.154024600982666,-7.6652984619140625,3.369999999999972
-1.1342542171478271,-0.11464452743530273,-7.5070929527282715,3.379999999999972
-1.5069360733032227,-1.486759901046753,-7.105340003967285,3.3899999999999717
-2.282008647918701,-2.5461673736572266,-6.575464725494385,3.3999999999999715
-3.198451519012451,-3.2797956466674805,-6.172337055206299,3.4099999999999713
-4.080862998962402,-4.051095008850098,-5.913945198059082,3.419999999999971
-4.490549564361572,-4.6540846824646,-5.514967918395996,3.429999999999971
-4.4085493087768555,-5.294045925140381,-4.884190559387207,3.4399999999999706
-3.906400442123413,-5.676236629486084,-4.580185890197754,3.4499999999999704
-3.3594603538513184,-5.834850788116455,-4.434470176696777,3.45999999999997
-2.973977565765381,-5.414276123046875,-4.313788890838623,3.46999999999997
-2.924680709838867,-4.771918296813965,-4.081499099731445,3.47999999999997
-3.0078091621398926,-4.179637908935547,-3.6847944259643555,3.4899999999999696
-2.8373682498931885,-3.5879390239715576,-3.125123977661133,3.4999999999999694
-2.246781826019287,-2.542112350463867,-2.549013137817383,3.509999999999969
-1.3599023818969727,-1.2585406303405762,-2.256735324859619,3.519999999999969
-0.22398996353149414,0.0550994873046875,-2.367086887359619,3.5299999999999687
1.0393075942993164,1.001863956451416,-2.195244789123535,3.5399999999999685
2.1406095027923584,1.7005367279052734,-1.816309928894043,3.5499999999999683
3.2513294219970703,2.6346683502197266,-1.825239658355713,3.559999999999968
3.35048770904541,2.375335693359375,-1.681654930114746,3.569999999999968
4.216513633728027,2.1335644721984863,-2.657689094543457,3.5799999999999677
3.2778210639953613,2.4339747428894043,-2.734447956085205,3.5899999999999674
1.6010611057281494,4.265016555786133,-1.4898476600646973,3.5999999999999672
0.4392368793487549,6.7727274894714355,-0.01143503189086914,3.609999999999967
-1.6681203842163086,11.201844215393066,0.7899274826049805,3.619999999999967
-3.8290932178497314,15.421577453613281,0.463742733001709,3.6299999999999666
-6.039455413818359,18.822118759155273,0.30460357666015625,3.6399999999999664
-5.664315700531006,24.13397789001465,2.621464729309082,3.649999999999966
-4.617143154144287,32.87521743774414,7.460392951965332,3.659999999999966
-10.689221382141113,32.78392028808594,6.714987277984619,3.6699999999999657
-10.63291072845459,15.739645004272461,0.5619359016418457,3.6799999999999655
-6.419829845428467,4.061970233917236,-6.944205284118652,3.6899999999999653
-3.3584234714508057,-2.5443801879882812,-10.193770408630371,3.699999999999965
-1.8763556480407715,-7.584584712982178,-5.850377559661865,3.709999999999965
-0.36697959899902344,-8.116578102111816,-2.177931785583496,3.7199999999999647
0.4956265687942505,-5.111093997955322,-3.735164165496826,3.7299999999999645
-0.8985893726348877,-1.8963112831115723,-9.00045108795166,3.7399999999999642
-2.7147114276885986,-2.076261043548584,-14.034515380859375,3.749999999999964
-4.087495803833008,-3.1542110443115234,-19.14430809020996,3.759999999999964
-4.808481693267822,-3.8339474201202393,-20.768795013427734,3.7699999999999636
-4.151154518127441,-4.022541046142578,-19.35308837890625,3.7799999999999634
-2.452219247817993,-3.5421667098999023,-17.499481201171875,3.789999999999963
-0.3147094249725342,-2.4107561111450195,-14.532903671264648,3.799999999999963
1.4594738483428955,-0.8682842254638672,-10.880769729614258,3.8099999999999627
2.3398609161376953,0.519160270690918,-6.916980266571045,3.8199999999999625
2.6228508949279785,4.071707725524902,1.5487594604492188,3.8299999999999623
0.5903443098068237,4.090786933898926,1.3343119621276855,3.839999999999962
-2.0307743549346924,4.076102256774902,4.373921871185303,3.849999999999962
-4.518083572387695,3.3831653594970703,8.020682334899902,3.8599999999999617
-5.827942371368408,1.1313104629516602,4.762430667877197,3.8699999999999615
-5.320389747619629,-0.921414852142334,-1.836493730545044,3.8799999999999613
-4.027035236358643,-1.6405601501464844,-7.40537166595459,3.889999999999961
-2.414860725402832,-1.015984058380127,-9.838783264160156,3.899999999999961
-1.3313014507293701,-0.14963054656982422,-9.038928031921387,3.9099999999999606
-0.20658600330352783,0.34976768493652344,-7.007513046264648,3.9199999999999604
0.6893717050552368,0.4723653793334961,-4.535362720489502,3.92999999999996
0.6594170331954956,0.20476150512695312,-3.566885471343994,3.93999999999996
-0.2202664613723755,-0.08310413360595703,-4.065127849578857,3.9499999999999598
-1.034236192703247,-0.2406015396118164,-4.532484531402588,3.9599999999999596
-1.2549512386322021,-0.26584529876708984,-3.8342647552490234,3.9699999999999593
-1.172680377960205,-0.24545860290527344,-2.461287021636963,3.979999999999959
-0.9809635281562805,-0.30197715759277344,-1.350577473640442,3.989999999999959
-0.926209568977356,-0.5817079544067383,-1.1847926378250122,3.9999999999999587
