AccX,AccY,AccZ,SampleRate
-4.0115180015563965,-1.3431549072265625,-0.6165651082992554,0.01
-2.7926957607269287,-0.5845584869384766,-1.185400366783142,0.02
-1.649582862854004,0.5162420272827148,-1.7126935720443726,0.03
-0.6476619243621826,1.3943071365356445,-2.366157293319702,0.04
0.6105483174324036,1.6292724609375,-2.8297572135925293,0.05
1.4264516830444336,0.9645748138427734,-2.544060707092285,0.060000000000000005
1.9570815563201904,0.16482830047607422,-2.1561336517333984,0.07
2.27813720703125,-0.47415924072265625,-1.8964589834213257,0.08
2.506256580352783,-1.099472999572754,-1.4319361448287964,0.09
2.539224147796631,-1.5046749114990234,-0.7574070692062378,0.09999999999999999
2.279435157775879,-1.5550975799560547,-0.06970852613449097,0.10999999999999999
1.7615077495574951,-1.2529897689819336,0.2781164050102234,0.11999999999999998
0.9960018396377563,-0.8872909545898438,0.28584223985671997,0.12999999999999998
0.5380390882492065,-0.5152988433837891,-0.07840704917907715,0.13999999999999999
0.26480555534362793,-0.2551727294921875,-0.5919610857963562,0.15
0.08645522594451904,0.07631397247314453,-0.9226493239402771,0.16
0.19691848754882812,0.2245941162109375,-1.0639982223510742,0.17
0.3285757303237915,0.2824821472167969,-1.0154838562011719,0.18000000000000002
0.5282834768295288,0.27916812896728516,-0.8029760122299194,0.19000000000000003
0.6196857690811157,0.12733078002929688,-0.553994357585907,0.20000000000000004
0.5562050342559814,-0.031072616577148438,-0.3564765453338623,0.21000000000000005
0.36435234546661377,-0.23321247100830078,-0.17336152493953705,0.22000000000000006
0.08089303970336914,-0.2231884002685547,0.06234496459364891,0.23000000000000007
-0.28386473655700684,-0.19001102447509766,0.09763269126415253,0.24000000000000007
-0.5328970551490784,-0.1597757339477539,0.04943374544382095,0.25000000000000006
-0.6227558851242065,-0.2442474365234375,-0.013135157525539398,0.26000000000000006
-0.4890478253364563,-0.34954357147216797,-0.057647302746772766,0.2700000000000001
-0.3851207494735718,-0.44925975799560547,-0.027162611484527588,0.2800000000000001
-0.09016537666320801,-0.6636123657226562,0.17828480899333954,0.2900000000000001
0.18163466453552246,-0.7152261734008789,0.5872457027435303,0.3000000000000001
0.4511812925338745,-0.6117496490478516,1.1491700410842896,0.3100000000000001
0.7425271272659302,-0.40352344512939453,1.6838417053222656,0.3200000000000001
0.9029501676559448,-0.36064624786376953,2.0177407264709473,0.3300000000000001
0.9885485172271729,-0.31267833709716797,2.1032326221466064,0.34000000000000014
0.9623398780822754,-0.40762996673583984,1.8694241046905518,0.35000000000000014
1.0126310586929321,-0.42255210876464844,1.472098708152771,0.36000000000000015
1.086196780204773,-0.30470752716064453,0.8643936514854431,0.37000000000000016
1.3526774644851685,-0.3819618225097656,0.22103512287139893,0.38000000000000017
1.6585021018981934,-0.6542472839355469,-0.3297746181488037,0.3900000000000002
2.173379421234131,-0.834813117980957,-0.6049724817276001,0.4000000000000002
2.4906418323516846,-0.8650903701782227,-0.411069393157959,0.4100000000000002
2.650405168533325,-0.6101922988891602,0.11863958835601807,0.4200000000000002
2.6890902519226074,0.07743453979492188,0.9128764867782593,0.4300000000000002
2.5807459354400635,0.9389867782592773,1.6532955169677734,0.4400000000000002
2.3266890048980713,1.6061553955078125,2.109273910522461,0.45000000000000023
2.043099880218506,2.2188634872436523,2.1363914012908936,0.46000000000000024
1.8841931819915771,3.276304244995117,1.6995971202850342,0.47000000000000025
1.920863151550293,4.161685943603516,0.9854158163070679,0.48000000000000026
1.9232642650604248,4.155257225036621,0.9269527792930603,0.49000000000000027
2.0266482830047607,5.113746643066406,-0.7190227508544922,0.5000000000000002
2.5779004096984863,4.394670486450195,-1.3735740184783936,0.5100000000000002
3.074063301086426,2.892024040222168,-1.8139479160308838,0.5200000000000002
3.1010656356811523,0.9746665954589844,-1.9041229486465454,0.5300000000000002
2.6412062644958496,-0.5254945755004883,-1.7010326385498047,0.5400000000000003
1.6787182092666626,-1.6614770889282227,-1.3320820331573486,0.5500000000000003
0.6720583438873291,-2.162714958190918,-0.9510128498077393,0.5600000000000003
-0.17539763450622559,-2.1625819206237793,-0.561781644821167,0.5700000000000003
-0.7790535688400269,-1.5219049453735352,0.08739832043647766,0.5800000000000003
-1.307708501815796,-0.8388900756835938,0.5235798358917236,0.5900000000000003
-1.6535195112228394,-0.5410823822021484,0.39617919921875,0.6000000000000003
-1.627911925315857,-0.5246515274047852,0.16832727193832397,0.6100000000000003
-1.8046869039535522,0.16605472564697266,-0.23581326007843018,0.6200000000000003
-1.653554081916809,0.6202144622802734,-0.6506070494651794,0.6300000000000003
-1.703336477279663,1.546980857849121,-1.3736317157745361,0.6400000000000003
-1.884103775024414,2.682344436645508,-2.01185941696167,0.6500000000000004
-2.046184539794922,3.283731460571289,-1.9455533027648926,0.6600000000000004
-1.9752215147018433,3.3759965896606445,-1.657792568206787,0.6700000000000004
-1.7623096704483032,3.0835886001586914,-1.563215732574463,0.6800000000000004
-1.5037670135498047,2.4090089797973633,-1.174599051475525,0.6900000000000004
-1.1681973934173584,1.4783172607421875,-0.6690195798873901,0.7000000000000004
-0.8843331336975098,0.033985137939453125,-0.36897706985473633,0.7100000000000004
-0.7234578132629395,-0.604435920715332,-0.3082771301269531,0.7200000000000004
-0.756915271282196,-1.0278959274291992,-0.34279298782348633,0.7300000000000004
-0.854628324508667,-1.1305241584777832,-0.6908135414123535,0.7400000000000004
-1.0547529458999634,-0.9955911636352539,-1.1711862087249756,0.7500000000000004
-1.2509441375732422,-0.9018735885620117,-1.49692702293396,0.7600000000000005
-1.4825339317321777,-1.0174651145935059,-1.624321699142456,0.7700000000000005
-1.6200629472732544,-1.127495288848877,-1.6341068744659424,0.7800000000000005
-1.6573669910430908,-1.4358620643615723,-1.3895158767700195,0.7900000000000005
-1.5932343006134033,-1.837003231048584,-0.9684715270996094,0.8000000000000005
-1.5793225765228271,-2.2805652618408203,-0.665848970413208,0.8100000000000005
-1.678419589996338,-2.6981706619262695,-0.39001893997192383,0.8200000000000005
-1.8491499423980713,-3.158639907836914,0.14621400833129883,0.8300000000000005
-2.0035767555236816,-3.43449068069458,0.6339454650878906,0.8400000000000005
-2.045928955078125,-3.7057814598083496,0.8233790397644043,0.8500000000000005
-1.8650329113006592,-3.6948113441467285,0.4846220016479492,0.8600000000000005
-1.8301527500152588,-3.715676784515381,0.5142507553100586,0.8700000000000006
-1.6731317043304443,-3.541306495666504,-0.31021833419799805,0.8800000000000006
-1.534638524055481,-3.506551742553711,-0.5062077045440674,0.8900000000000006
-1.243986964225769,-3.4216928482055664,-0.28368377685546875,0.9000000000000006
-1.0013513565063477,-3.2794923782348633,0.16489410400390625,0.9100000000000006
-0.8568659424781799,-2.901620864868164,0.9292025566101074,0.9200000000000006
-0.6307299733161926,-2.1604104042053223,1.8578948974609375,0.9300000000000006
-0.23743146657943726,-0.9223241806030273,2.993642568588257,0.9400000000000006
0.6399878263473511,1.4448060989379883,4.22694206237793,0.9500000000000006
1.4079277515411377,3.811555862426758,4.326628684997559,0.9600000000000006
2.4407758712768555,6.08829402923584,3.7123570442199707,0.9700000000000006
3.2887182235717773,7.420414924621582,2.734992027282715,0.9800000000000006
4.2026143074035645,7.142518997192383,2.0383055210113525,0.9900000000000007
4.495693683624268,5.460606575012207,2.3886184692382812,1.0000000000000007
2.5550808906555176,1.4910888671875,4.479918003082275,1.0100000000000007
0.8358277082443237,-0.9728994369506836,6.360846519470215,1.0200000000000007
-0.35711216926574707,-2.1624908447265625,6.802776336669922,1.0300000000000007
-0.5241649150848389,-1.600813388824463,4.810466766357422,1.0400000000000007
-0.7140440940856934,-0.44081974029541016,2.247305154800415,1.0500000000000007
-0.9383955001831055,0.13119220733642578,-0.5031592845916748,1.0600000000000007
-1.3156815767288208,-0.16488361358642578,-3.2926740646362305,1.0700000000000007
-2.11399507522583,-0.08980178833007812,-4.6695637702941895,1.0800000000000007
-3.3114089965820312,1.9367103576660156,-11.740438461303711,1.0900000000000007
-5.133385181427002,3.945108413696289,-12.46999740600586,1.1000000000000008
-6.0543718338012695,2.8432445526123047,-7.099908828735352,1.1100000000000008
-5.838415145874023,1.4431886672973633,-3.3899247646331787,1.1200000000000008
-4.259644985198975,-0.3272113800048828,-1.3890035152435303,1.1300000000000008
-2.856152057647705,-1.1590938568115234,-1.0591957569122314,1.1400000000000008
-1.8653461933135986,-2.0730600357055664,-1.2395049333572388,1.1500000000000008
-0.9267504215240479,-2.6005640029907227,-1.8872320652008057,1.1600000000000008
-0.1320837438106537,-2.4786109924316406,-2.6067028045654297,1.1700000000000008
0.3822970390319824,-1.8147921562194824,-3.2284975051879883,1.1800000000000008
0.7493724226951599,-0.08098983764648438,-4.465787887573242,1.1900000000000008
1.106977939605713,1.1964025497436523,-4.530695915222168,1.2000000000000008
1.6606353521347046,1.395681381225586,-2.8530220985412598,1.2100000000000009
2.3879666328430176,0.8000850677490234,-1.7915394306182861,1.2200000000000009
2.463160514831543,0.06093597412109375,-1.4008331298828125,1.2300000000000009
1.8362913131713867,-0.5987386703491211,-0.8532413244247437,1.2400000000000009
1.10185968875885,-1.2408695220947266,-0.06124293804168701,1.2500000000000009
0.5741682052612305,-1.261627197265625,0.27061015367507935,1.260000000000001
0.3365074396133423,-1.0388860702514648,0.24728769063949585,1.270000000000001
0.43721771240234375,-0.8998498916625977,0.043274641036987305,1.280000000000001
0.6156055927276611,-0.9263172149658203,-0.04565596580505371,1.290000000000001
0.7164925336837769,-0.8769826889038086,-0.06838774681091309,1.300000000000001
0.7015538215637207,-0.7055511474609375,-0.24631592631340027,1.310000000000001
0.8984153270721436,-0.4052248001098633,-0.3186584711074829,1.320000000000001
1.1234080791473389,-0.22313308715820312,-0.3130190670490265,1.330000000000001
0.9738240242004395,-0.1911468505859375,-0.27747559547424316,1.340000000000001
0.5632892847061157,-0.08478450775146484,-0.23846220970153809,1.350000000000001
0.22967350482940674,-0.2633543014526367,-0.18098434805870056,1.360000000000001
-0.14669954776763916,-0.2333660125732422,-0.12467625737190247,1.370000000000001
-0.21122419834136963,-0.4685325622558594,0.016836494207382202,1.380000000000001
-0.19795793294906616,-0.807861328125,0.26428645849227905,1.390000000000001
-0.15355360507965088,-0.9881782531738281,0.5099542140960693,1.400000000000001
0.05027115345001221,-1.1488761901855469,0.7826237678527832,1.410000000000001
0.2697255611419678,-1.1825323104858398,1.071702003479004,1.420000000000001
0.4422638416290283,-0.981536865234375,1.4018762111663818,1.430000000000001
0.5393954515457153,-0.8066320419311523,1.4895493984222412,1.440000000000001
0.5085330009460449,-0.5449352264404297,1.4533900022506714,1.450000000000001
0.3065364360809326,-0.31349849700927734,1.266188621520996,1.460000000000001
0.18025773763656616,-0.04583740234375,0.9655738472938538,1.470000000000001
0.22432559728622437,0.4176301956176758,0.6357579231262207,1.480000000000001
0.659102201461792,0.9087543487548828,0.46862632036209106,1.490000000000001
1.0996897220611572,1.0660581588745117,0.4719931483268738,1.500000000000001
1.564160704612732,0.9908218383789062,0.3922675848007202,1.5100000000000011
2.0703861713409424,0.6549587249755859,0.2438148856163025,1.5200000000000011
2.6995255947113037,0.3987579345703125,0.24073630571365356,1.5300000000000011
3.322930335998535,0.33210277557373047,0.424866259098053,1.5400000000000011
3.7362136840820312,0.6531438827514648,0.7034021019935608,1.5500000000000012
3.8639321327209473,1.2937688827514648,0.8449479341506958,1.5600000000000012
3.5352494716644287,2.4945812225341797,0.6500391364097595,1.5700000000000012
3.5242176055908203,2.4907703399658203,0.6116588711738586,1.5800000000000012
2.9073824882507324,5.039968490600586,-0.5915135145187378,1.5900000000000012
2.754040241241455,5.652152061462402,-1.2343823909759521,1.6000000000000012
2.550778865814209,5.237730979919434,-1.8213438987731934,1.6100000000000012
2.625284194946289,3.7724666595458984,-1.8329023122787476,1.6200000000000012
2.3629274368286133,1.6542339324951172,-1.459770917892456,1.6300000000000012
1.8221853971481323,-0.21301937103271484,-1.043244481086731,1.6400000000000012
1.1960572004318237,-1.5552072525024414,-0.5903621315956116,1.6500000000000012
0.636655330657959,-2.352372646331787,-0.2317514717578888,1.6600000000000013
0.14505362510681152,-2.7264022827148438,-0.010529950261116028,1.6700000000000013
-0.21159887313842773,-2.5942344665527344,-0.04203150421380997,1.6800000000000013
-0.698600172996521,-1.6939802169799805,-0.12807217240333557,1.6900000000000013
-1.109688401222229,-0.7691497802734375,-0.18163585662841797,1.7000000000000013
-1.4100958108901978,-0.09221363067626953,-0.1635439395904541,1.7100000000000013
-1.5066441297531128,0.553497314453125,-0.18894726037979126,1.7200000000000013
-1.3744443655014038,1.228292465209961,-0.38572198152542114,1.7300000000000013
-1.263800859451294,1.7564001083374023,-0.880534827709198,1.7400000000000013
-1.4181841611862183,2.4022836685180664,-1.5595333576202393,1.7500000000000013
-1.7921229600906372,2.898141860961914,-2.0239856243133545,1.7600000000000013
-2.039677619934082,3.2287588119506836,-2.087911367416382,1.7700000000000014
-1.9725656509399414,3.2451095581054688,-2.149357795715332,1.7800000000000014
-1.7237331867218018,2.7216434478759766,-1.935874342918396,1.7900000000000014
-1.4214565753936768,2.2105093002319336,-1.6430456638336182,1.8000000000000014
-1.142223834991455,1.4505300521850586,-1.346911907196045,1.8100000000000014
-0.9735226631164551,0.6065158843994141,-1.0340816974639893,1.8200000000000014
-1.0118577480316162,-0.0677480697631836,-0.8517069816589355,1.8300000000000014
-1.1051043272018433,-0.5033302307128906,-1.008756160736084,1.8400000000000014
-1.2233235836029053,-0.8578643798828125,-1.3826276063919067,1.8500000000000014
-1.3005503416061401,-1.0930705070495605,-1.471146583557129,1.8600000000000014
-1.3339760303497314,-1.01438570022583,-1.6505897045135498,1.8700000000000014
-1.4210842847824097,-1.5711355209350586,-0.9914531707763672,1.8800000000000014
-1.3375244140625,-1.8114380836486816,-0.5526332855224609,1.8900000000000015
-1.2307003736495972,-2.090135097503662,-0.217803955078125,1.9000000000000015
-1.2455099821090698,-2.4500508308410645,0.11753702163696289,1.9100000000000015
-1.3024775981903076,-2.732905864715576,0.2609901428222656,1.9200000000000015
-1.3265712261199951,-3.1490306854248047,0.2733449935913086,1.9300000000000015
-1.5073270797729492,-3.5711870193481445,0.008402824401855469,1.9400000000000015
-1.7035833597183228,-3.8284831047058105,-0.5594158172607422,1.9500000000000015
-1.8181661367416382,-3.8781614303588867,-1.1696605682373047,1.9600000000000015
-1.8570070266723633,-3.6893563270568848,-1.7062089443206787,1.9700000000000015
-1.9674122333526611,-3.5969767570495605,-1.5442781448364258,1.9800000000000015
-2.049241065979004,-3.7474331855773926,-1.0132834911346436,1.9900000000000015
-1.956538200378418,-4.020790100097656,-0.39775562286376953,2.0000000000000013
-1.7666184902191162,-4.283151149749756,0.2416853904724121,2.010000000000001
-1.6209524869918823,-4.426921844482422,0.8995761871337891,2.020000000000001
-1.245538592338562,-4.092919826507568,1.6587810516357422,2.0300000000000007
-0.8280736207962036,-3.291844367980957,2.4011178016662598,2.0400000000000005
-0.15988588333129883,-1.683793544769287,3.3010897636413574,2.0500000000000003
0.5606106519699097,0.8257045745849609,3.710686445236206,2.06
1.1471686363220215,4.200553894042969,3.2693839073181152,2.07
1.5659010410308838,7.819330215454102,1.9444921016693115,2.0799999999999996
2.1073620319366455,10.752250671386719,0.35518622398376465,2.0899999999999994
2.817307472229004,10.865241050720215,-0.2687413692474365,2.099999999999999
3.9988574981689453,8.525729179382324,2.0889267921447754,2.109999999999999
4.635447025299072,2.7763710021972656,5.859260082244873,2.1199999999999988
2.7496261596679688,-1.4326133728027344,8.98034954071045,2.1299999999999986
0.8029409646987915,-1.6056933403015137,8.234947204589844,2.1399999999999983
-0.2416396141052246,-0.5458097457885742,4.763156890869141,2.149999999999998
-0.8443619012832642,-0.1996917724609375,1.6312501430511475,2.159999999999998
-1.4538230895996094,-0.8040122985839844,-1.8165556192398071,2.1699999999999977
-2.596590995788574,-1.5945076942443848,-4.3136444091796875,2.1799999999999975
-3.9112753868103027,-1.9180574417114258,-6.087180137634277,2.1899999999999973
-5.129721164703369,-0.6481618881225586,-11.86384391784668,2.199999999999997
-6.35614013671875,1.6366710662841797,-8.467100143432617,2.209999999999997
-6.3014373779296875,2.6318254470825195,-4.667474269866943,2.2199999999999966
-5.155234336853027,2.697223663330078,-1.823105812072754,2.2299999999999964
-3.3229868412017822,1.5716524124145508,-0.48501646518707275,2.239999999999996
-1.8886290788650513,0.14269161224365234,-0.6166584491729736,2.249999999999996
-0.8233751654624939,-1.0137948989868164,-1.4063138961791992,2.259999999999996
0.3251699209213257,-1.8546605110168457,-2.589643955230713,2.2699999999999956
0.9331206679344177,-2.0760889053344727,-3.261043071746826,2.2799999999999954
1.3132981061935425,-1.6712899208068848,-3.872112274169922,2.289999999999995
1.4699070453643799,-0.2925300598144531,-4.389373779296875,2.299999999999995
1.895013451576233,0.5046215057373047,-3.783130168914795,2.3099999999999947
2.5456552505493164,0.621922492980957,-2.7040443420410156,2.3199999999999945
2.723907947540283,0.23993206024169922,-1.9666566848754883,2.3299999999999943
2.011997699737549,-0.1496877670288086,-1.5645757913589478,2.339999999999994
0.9965641498565674,-0.5865726470947266,-0.8166349530220032,2.349999999999994
0.9904123544692993,-0.5906763076782227,-0.7659738659858704,2.3599999999999937
-0.3936846852302551,-1.0804862976074219,0.5245658159255981,2.3699999999999934
-0.6339991092681885,-0.7696371078491211,0.342223584651947,2.3799999999999932
-0.4609152674674988,-0.45093536376953125,-0.34242165088653564,2.389999999999993
-0.35102736949920654,-0.5189781188964844,-0.6842889785766602,2.399999999999993
-0.32584381103515625,-0.5296392440795898,-0.5657987594604492,2.4099999999999926
-0.2192121148109436,-1.3937511444091797,-1.5527622699737549,2.4199999999999924
-0.022817254066467285,-1.761733055114746,-1.78565514087677,2.429999999999992
0.5280194282531738,-1.5873212814331055,-1.4645969867706299,2.439999999999992
1.148284912109375,-0.9500398635864258,-0.5808839201927185,2.4499999999999917
1.1341339349746704,-0.9479427337646484,-0.49394914507865906,2.4599999999999915
1.0013195276260376,-6.198883056640625E-5,0.5559446811676025,2.4699999999999913
0.1425004005432129,-0.0037784576416015625,0.48445767164230347,2.479999999999991
-0.38337039947509766,-0.13779640197753906,0.33599722385406494,2.489999999999991
-0.43296265602111816,-0.23145294189453125,0.31942346692085266,2.4999999999999907
-0.1299198865890503,-0.43725013732910156,0.5721583366394043,2.5099999999999905
-0.11160886287689209,-0.4365968704223633,0.6340025067329407,2.5199999999999902
0.5806587934494019,-0.7037534713745117,1.326080560684204,2.52999999999999
0.8090236186981201,-0.7264461517333984,1.5362688302993774,2.53999999999999
0.9462845325469971,-0.8491926193237305,1.565514326095581,2.5499999999999896
1.136521339416504,-1.0786008834838867,1.511502981185913,2.5599999999999894
1.271061897277832,-1.2822761535644531,1.5169177055358887,2.569999999999989
1.157307744026184,-1.1680278778076172,1.4493556022644043,2.579999999999989
0.9829962849617004,-0.8044395446777344,1.2526179552078247,2.5899999999999888
1.061728835105896,-0.2312145233154297,1.0611467361450195,2.5999999999999885
1.3078527450561523,0.43593883514404297,0.8640789985656738,2.6099999999999883
1.6109439134597778,0.972198486328125,0.7862935662269592,2.619999999999988
1.9118261337280273,1.301919937133789,0.6944304704666138,2.629999999999988
2.1623125076293945,1.4333515167236328,0.68837571144104,2.6399999999999877
2.4934332370758057,1.464705467224121,0.6822893619537354,2.6499999999999875
2.785390615463257,1.5198774337768555,0.5430539846420288,2.6599999999999873
3.136197805404663,1.6629753112792969,0.5188464522361755,2.669999999999987
3.529999256134033,2.044650077819824,0.5201281309127808,2.679999999999987
3.726377010345459,2.980677604675293,0.6162670254707336,2.6899999999999866
3.6532533168792725,4.0607452392578125,0.6217314004898071,2.6999999999999864
3.627983570098877,5.114012718200684,0.3372455835342407,2.709999999999986
3.593358039855957,5.556295394897461,-0.036945462226867676,2.719999999999986
3.469024896621704,4.9959716796875,-0.5152269601821899,2.7299999999999858
3.2647433280944824,3.8625192642211914,-0.9647531509399414,2.7399999999999856
2.8922040462493896,2.048877716064453,-1.1945379972457886,2.7499999999999853
2.536588191986084,0.36641407012939453,-1.2444826364517212,2.759999999999985
1.8840701580047607,-1.5103645324707031,-1.3032395839691162,2.769999999999985
1.1584270000457764,-2.8785886764526367,-1.099373459815979,2.7799999999999847
0.5127325057983398,-3.76876163482666,-0.8273088932037354,2.7899999999999845
0.16519403457641602,-4.223758220672607,-0.6078472137451172,2.7999999999999843
-0.2922036647796631,-3.3485898971557617,-0.13007356226444244,2.809999999999984
-0.668911874294281,-2.397047519683838,-0.06237328052520752,2.819999999999984
-0.8933717012405396,-1.3750743865966797,0.023112595081329346,2.8299999999999836
-0.8493006825447083,-0.26375770568847656,0.3354994058609009,2.8399999999999834
-0.6221433877944946,0.8978385925292969,0.36758530139923096,2.849999999999983
-0.4971965551376343,2.2266883850097656,-0.05660057067871094,2.859999999999983
-0.5503535270690918,4.3073320388793945,-0.7189719676971436,2.869999999999983
-0.9977670907974243,5.804386138916016,-1.5638322830200195,2.8799999999999826
-1.688327431678772,6.419774055480957,-2.54575777053833,2.8899999999999824
-2.399970054626465,6.214110374450684,-2.9310712814331055,2.899999999999982
-2.4458370208740234,5.342323303222656,-2.898064613342285,2.909999999999982
-2.44586443901062,5.392158508300781,-3.1032555103302,2.9199999999999817
-1.23038911819458,0.9299793243408203,-1.4460563659667969,2.9299999999999815
-0.8811928033828735,-0.43632984161376953,-0.8760523796081543,2.9399999999999813
-0.8024698495864868,-1.3385376930236816,-0.6178028583526611,2.949999999999981
-0.8486435413360596,-1.696497917175293,-0.7134027481079102,2.959999999999981
-0.9440218806266785,-1.7234225273132324,-0.9878585338592529,2.9699999999999807
-1.26460599899292,-1.4162425994873047,-1.3436369895935059,2.9799999999999804
-1.6208398342132568,-1.0850830078125,-1.7221951484680176,2.9899999999999802
-1.8981668949127197,-1.1949338912963867,-1.8718681335449219,2.99999999999998
-2.25201416015625,-1.4743199348449707,-1.7844853401184082,3.00999999999998
-2.6101632118225098,-1.9286689758300781,-1.4496443271636963,3.0199999999999796
-2.9153189659118652,-2.400844097137451,-0.8308348655700684,3.0299999999999794
-3.1003451347351074,-2.778801441192627,-0.08166265487670898,3.039999999999979
-2.9435060024261475,-3.355273723602295,0.9066982269287109,3.049999999999979
-2.5297601222991943,-3.778571605682373,1.5032377243041992,3.0599999999999787
-1.9161944389343262,-4.166988372802734,1.4149036407470703,3.0699999999999785
-1.419115424156189,-4.093848705291748,0.5444188117980957,3.0799999999999783
-1.3644988536834717,-3.9096455574035645,-0.46653175354003906,3.089999999999978
-1.5165565013885498,-3.790226459503174,-1.210794448852539,3.099999999999978
-1.5771958827972412,-3.837259292602539,-1.4319984912872314,3.1099999999999777
-1.544112205505371,-4.0459113121032715,-1.3384385108947754,3.1199999999999775
-1.3767549991607666,-4.316073894500732,-1.0095391273498535,3.1299999999999772
-1.136121153831482,-4.560801029205322,-0.44385266304016113,3.139999999999977
-0.8745392560958862,-4.655196189880371,0.37700700759887695,3.149999999999977
-0.3598760962486267,-4.4603166580200195,1.5035133361816406,3.1599999999999766
0.3421741724014282,-3.442183494567871,3.157266139984131,3.1699999999999764
1.1778095960617065,-1.202192783355713,4.5550007820129395,3.179999999999976
1.7151015996932983,3.030681610107422,5.085929870605469,3.189999999999976
2.275740146636963,7.237227439880371,3.816425085067749,3.1999999999999758
3.029492139816284,10.326395034790039,2.3166797161102295,3.2099999999999755
4.256466865539551,10.889325141906738,1.2669548988342285,3.2199999999999753
5.463260650634766,8.834092140197754,2.381013870239258,3.229999999999975
5.695068836212158,6.265508651733398,5.80185604095459,3.239999999999975
4.56929874420166,5.273045539855957,8.939111709594727,3.2499999999999747
3.2940211296081543,4.961976051330566,8.22933578491211,3.2599999999999745
1.5039912462234497,3.178121566772461,4.295004844665527,3.2699999999999743
-0.03428506851196289,0.7472429275512695,-0.577416181564331,3.279999999999974
-0.02317214012145996,0.6978092193603516,-0.44107818603515625,3.289999999999974
-3.794456720352173,-2.337139129638672,-7.905126094818115,3.2999999999999736
-6.310932159423828,-3.4557747840881348,-10.909723281860352,3.3099999999999734
-7.369975566864014,-4.495173454284668,-9.325414657592773,3.319999999999973
-7.489388465881348,-4.242399215698242,-5.663666725158691,3.329999999999973
-6.985482692718506,-3.0645599365234375,-3.5806822776794434,3.3399999999999728
-5.782259464263916,-2.2420692443847656,-2.104884386062622,3.3499999999999726
-4.590511322021484,-1.5590510368347168,-1.9497768878936768,3.3599999999999723
-3.005699396133423,-0.6752166748046875,-2.445228338241577,3.369999999999972
-1.380113124847412,0.06978702545166016,-2.933706760406494,3.379999999999972
-1.476833701133728,0.03279590606689453,-2.7418105602264404,3.3899999999999717
0.7781773805618286,3.124347686767578,-4.572413444519043,3.3999999999999715
2.100550651550293,3.2451953887939453,-3.1852378845214844,3.4099999999999713
2.8380980491638184,2.1692562103271484,-1.8321011066436768,3.419999999999971
3.0050830841064453,0.8492403030395508,-1.2288750410079956,3.429999999999971
2.328815460205078,-0.32571983337402344,-1.1131742000579834,3.4399999999999706
1.3083252906799316,-1.3191804885864258,-0.44808822870254517,3.4499999999999704
0.2955383062362671,-1.8546538352966309,0.32073771953582764,3.45999999999997
-0.48932623863220215,-1.7355937957763672,1.2986737489700317,3.46999999999997
-0.6679992079734802,-1.4417438507080078,2.1834969520568848,3.47999999999997
-0.18902647495269775,-0.7770605087280273,2.258248805999756,3.4899999999999696
0.2503187656402588,-0.1952991485595703,1.3067691326141357,3.4999999999999694
0.33164942264556885,0.23649215698242188,0.10244953632354736,3.509999999999969
0.2840040922164917,0.32791996002197266,-1.1113723516464233,3.519999999999969
0.4428825378417969,-0.0940866470336914,-2.251452922821045,3.5299999999999687
0.5186916589736938,-0.625676155090332,-2.802029609680176,3.5399999999999685
0.6184749603271484,-1.2755403518676758,-3.050210952758789,3.5499999999999683
0.6972008943557739,-1.4859046936035156,-2.65242338180542,3.559999999999968
0.871393084526062,-1.5405874252319336,-2.0203216075897217,3.569999999999968
1.0837225914001465,-1.6734390258789062,-1.2073533535003662,3.5799999999999677
1.0516748428344727,-1.4090757369995117,-0.2339494824409485,3.5899999999999674
1.0111685991287231,-1.2031536102294922,0.33106935024261475,3.5999999999999672
1.1529172658920288,-1.0721569061279297,0.8879623413085938,3.609999999999967
1.097825527191162,-0.7570619583129883,1.2555228471755981,3.619999999999967
0.8594669103622437,-0.3016319274902344,1.5033142566680908,3.6299999999999666
0.5166177749633789,-0.08238410949707031,1.7066631317138672,3.6399999999999664
0.10415971279144287,0.016119956970214844,1.7405321598052979,3.649999999999966
-0.07080024480819702,-0.09117317199707031,1.7069839239120483,3.659999999999966
-0.04760122299194336,-0.3503284454345703,1.6675069332122803,3.6699999999999657
0.06080663204193115,-0.5187473297119141,1.6761914491653442,3.6799999999999655
0.44612252712249756,-0.6206321716308594,1.6182425022125244,3.6899999999999653
0.9339873194694519,-0.4486360549926758,1.4977861642837524,3.699999999999965
1.3951820135116577,-0.09491348266601562,1.1636580228805542,3.709999999999965
1.7015016078948975,0.0691680908203125,0.8908601999282837,3.7199999999999647
2.0664849281311035,0.18300724029541016,0.5208361148834229,3.7299999999999645
2.363150119781494,0.38340187072753906,0.21978962421417236,3.7399999999999642
2.6349925994873047,0.8396902084350586,0.1146080493927002,3.749999999999964
3.024949073791504,1.0599174499511719,0.12207937240600586,3.759999999999964
3.600963830947876,1.3213434219360352,0.3408987522125244,3.7699999999999636
4.045706272125244,1.806258201599121,0.5696189403533936,3.7799999999999634
4.107204914093018,2.9625673294067383,0.9661179780960083,3.789999999999963
3.805098056793213,4.543270111083984,1.0204898118972778,3.799999999999963
3.8811705112457275,5.710817337036133,0.5138056874275208,3.8099999999999627
3.9755280017852783,6.045470237731934,-0.20030426979064941,3.8199999999999625
4.144304275512695,5.531380653381348,-1.000671625137329,3.8299999999999623
4.2351531982421875,4.221179008483887,-1.3932535648345947,3.839999999999962
4.142050266265869,4.2192230224609375,-1.5112491846084595,3.849999999999962
2.569756031036377,-0.6040449142456055,-1.2306087017059326,3.8599999999999617
1.3100911378860474,-2.170494556427002,-0.93055659532547,3.8699999999999615
0.48305225372314453,-2.9935622215270996,-0.4991263151168823,3.8799999999999613
-0.08326888084411621,-3.002315044403076,0.05945990979671478,3.889999999999961
-0.1427839994430542,-2.9956917762756348,-0.13836626708507538,3.899999999999961
-0.8261354565620422,-1.0996227264404297,0.5178667902946472,3.9099999999999606
-1.074381947517395,-0.48728466033935547,0.564268171787262,3.9199999999999604
-1.106537938117981,0.06285476684570312,0.6732175350189209,3.92999999999996
-1.051360011100769,0.9460201263427734,0.4475064277648926,3.93999999999996
-0.9093695878982544,2.170779228210449,-0.7259830236434937,3.9499999999999598
-0.7827693223953247,3.0617198944091797,-1.9998359680175781,3.9599999999999596
-0.7824137806892395,3.647584915161133,-2.723142147064209,3.9699999999999593
-1.288783311843872,3.4812755584716797,-2.592000961303711,3.979999999999959
-1.8272854089736938,2.8131608963012695,-2.249187469482422,3.989999999999959
-2.312119245529175,1.8844804763793945,-2.196239948272705,3.9999999999999587
-2.6830220222473145,1.1329803466796875,-2.0014545917510986,4.009999999999959
-2.722033977508545,0.73333740234375,-1.8446539640426636,4.019999999999959
-2.5229063034057617,0.34903717041015625,-1.5548527240753174,4.0299999999999585
-2.045781135559082,-0.0061359405517578125,-1.3094823360443115,4.039999999999958
-1.5312628746032715,-0.19060802459716797,-1.269734501838684,4.049999999999958
-1.0803889036178589,-0.25634193420410156,-1.3885316848754883,4.059999999999958
-0.8711885213851929,-0.36132240295410156,-1.7733497619628906,4.069999999999958
-0.85687655210495,-0.5118303298950195,-2.0836594104766846,4.079999999999957
-0.9284197092056274,-0.8899574279785156,-2.2153160572052,4.089999999999957
-1.0965089797973633,-1.3728060722351074,-2.0382957458496094,4.099999999999957
-1.3806015253067017,-1.909430980682373,-1.4522285461425781,4.109999999999957
-1.6896331310272217,-2.362520217895508,-0.5418264865875244,4.119999999999957
-2.168227195739746,-2.786799907684326,0.33591270446777344,4.129999999999956
-2.31713604927063,-3.0779924392700195,0.8136110305786133,4.139999999999956
-2.450011968612671,-3.4219202995300293,1.06150484085083,4.149999999999956
-2.6162986755371094,-3.755736827850342,1.389479637145996,4.159999999999956
-2.7935538291931152,-4.134917736053467,1.4654645919799805,4.1699999999999555
-2.6774463653564453,-4.343800067901611,0.6984853744506836,4.179999999999955
-2.2513186931610107,-4.123355388641357,-0.5343613624572754,4.189999999999955
-2.1164355278015137,-3.9999804496765137,-0.8327987194061279,4.199999999999955
-2.078914165496826,-3.958991527557373,-0.7307448387145996,4.209999999999955
-1.9673621654510498,-4.043961048126221,-0.2650108337402344,4.2199999999999545
-1.751503825187683,-4.149616241455078,0.12219524383544922,4.229999999999954
-1.497978687286377,-4.185747146606445,0.47858285903930664,4.239999999999954
-1.2319484949111938,-3.9765567779541016,1.0208024978637695,4.249999999999954
-1.1918730735778809,-4.038974761962891,1.152735948562622,4.259999999999954
-0.6509313583374023,-2.349386215209961,2.703049421310425,4.269999999999953
0.2796299457550049,0.21159934997558594,4.2177228927612305,4.279999999999953
0.3306543231010437,0.1560068130493164,4.350500583648682,4.289999999999953
2.0025124549865723,7.477922439575195,4.269461631774902,4.299999999999953
3.0545670986175537,10.01596450805664,2.668098211288452,4.3099999999999525
4.278411388397217,9.694648742675781,2.4747025966644287,4.319999999999952
5.221924781799316,7.216508865356445,3.662034749984741,4.329999999999952
4.429887294769287,2.7890090942382812,5.901095390319824,4.339999999999952
2.0362143516540527,-0.2921886444091797,7.816309928894043,4.349999999999952
0.5882335901260376,-0.992863655090332,7.129543781280518,4.3599999999999515
0.06470859050750732,-0.030432701110839844,3.2859439849853516,4.369999999999951
-0.17998480796813965,-0.23447322845458984,-0.18779850006103516,4.379999999999951
-0.8418622016906738,-0.45699405670166016,-3.529193162918091,4.389999999999951
-2.4048330783843994,0.028098106384277344,-5.35901403427124,4.399999999999951
-4.031582355499268,0.9146442413330078,-15.460149765014648,4.40999999999995
-5.922274112701416,2.6332597732543945,-12.726929664611816,4.41999999999995
-6.576172351837158,2.2253541946411133,-4.7284040451049805,4.42999999999995
-6.2119927406311035,1.777669906616211,-2.6499826908111572,4.43999999999995
-5.378516674041748,1.0736618041992188,-1.9382500648498535,4.4499999999999496
-3.6019365787506104,-0.5451250076293945,-1.706395149230957,4.459999999999949
-2.2808899879455566,-1.953125,-1.9374778270721436,4.469999999999949
-1.1730921268463135,-2.6258554458618164,-2.5643298625946045,4.479999999999949
-0.09796261787414551,-2.5146121978759766,-3.4430813789367676,4.489999999999949
0.5441881418228149,-1.8941826820373535,-4.082182884216309,4.4999999999999485
1.202840805053711,-0.5200891494750977,-5.107780456542969,4.509999999999948
1.9426827430725098,0.7629985809326172,-4.968972682952881,4.519999999999948
2.2934978008270264,1.2121706008911133,-3.7176311016082764,4.529999999999948
2.0485801696777344,0.8021574020385742,-2.40246319770813,4.539999999999948
1.523861050605774,0.048005104064941406,-1.6294090747833252,4.549999999999947
1.147862434387207,-0.7247076034545898,-0.5508040189743042,4.559999999999947
0.6295608282089233,-1.3361015319824219,0.5657464861869812,4.569999999999947
0.44480037689208984,-1.506535530090332,1.4252796173095703,4.579999999999947
0.2588313817977905,-1.394500732421875,1.6539744138717651,4.589999999999947
0.0874490737915039,-1.2620248794555664,1.5758556127548218,4.599999999999946
-0.04853975772857666,-1.1766176223754883,1.0889217853546143,4.609999999999946
-0.14859604835510254,-1.2810449600219727,0.43775421380996704,4.619999999999946
-0.27058666944503784,-1.3145380020141602,-0.3274680972099304,4.629999999999946
-0.3880981206893921,-1.0688295364379883,-0.9922881126403809,4.6399999999999455
-0.01132500171661377,-0.8314723968505859,-1.4625334739685059,4.649999999999945
0.6034380197525024,-0.8490447998046875,-1.6054075956344604,4.659999999999945
1.0701541900634766,-0.8804378509521484,-1.4692248106002808,4.669999999999945
1.33687162399292,-0.8790369033813477,-1.255815863609314,4.679999999999945
1.579343318939209,-0.9797754287719727,-0.897878885269165,4.689999999999944
1.7780052423477173,-1.0922555923461914,-0.38280561566352844,4.699999999999944
1.952497959136963,-0.9462127685546875,0.38626739382743835,4.709999999999944
2.008446455001831,-1.0445003509521484,1.3863344192504883,4.719999999999944
1.727333664894104,-1.1647796630859375,2.5157158374786377,4.729999999999944
1.1346179246902466,-1.1637582778930664,3.1601333618164062,4.739999999999943
0.44948816299438477,-1.077284812927246,3.4507460594177246,4.749999999999943
-0.06839126348495483,-0.861689567565918,3.3162970542907715,4.759999999999943
-0.3314152956008911,-0.5163965225219727,2.6832573413848877,4.769999999999943
-0.2465968132019043,-0.019293785095214844,1.7223079204559326,4.7799999999999425
0.3608088493347168,0.7686529159545898,0.5699338316917419,4.789999999999942
0.8210073709487915,1.4545860290527344,-0.18165314197540283,4.799999999999942
1.3571528196334839,1.8708677291870117,-0.7722125053405762,4.809999999999942
2.010085105895996,1.720780372619629,-1.2159112691879272,4.819999999999942
2.664609670639038,1.0547313690185547,-1.4067676067352295,4.8299999999999415
3.267152786254883,0.44145679473876953,-1.3757284879684448,4.839999999999941
3.7451703548431396,0.4440326690673828,-0.6248128414154053,4.849999999999941
3.8743481636047363,1.0435991287231445,0.37086403369903564,4.859999999999941
3.7658097743988037,2.043105125427246,1.4876538515090942,4.869999999999941
3.45255708694458,3.014921188354492,2.299222469329834,4.87999999999994
3.1948819160461426,4.132992744445801,2.0805160999298096,4.88999999999994
3.1063897609710693,4.7311601638793945,1.1842005252838135,4.89999999999994
3.2234787940979004,4.595685958862305,0.12586939334869385,4.90999999999994
3.385732650756836,3.9619550704956055,-0.5935152769088745,4.9199999999999395
3.505148410797119,2.8343753814697266,-1.2301521301269531,4.929999999999939
3.2466747760772705,1.475356101989746,-1.5776376724243164,4.939999999999939
2.556400775909424,0.1187753677368164,-1.3758525848388672,4.949999999999939
1.5860285758972168,-0.9548549652099609,-0.9452699422836304,4.959999999999939
0.7107718586921692,-1.6983938217163086,-0.3880416750907898,4.9699999999999385
0.29165220260620117,-1.8798651695251465,-0.1360594481229782,4.979999999999938
-0.1467599868774414,-1.4073896408081055,0.14238333702087402,4.989999999999938
-0.615309476852417,-0.4755992889404297,0.3651638627052307,4.999999999999938
-0.9828197956085205,-0.016412734985351562,0.6162803769111633,5.009999999999938
-0.9830513000488281,0.3271150588989258,0.8087956309318542,5.019999999999937
-0.9089255332946777,1.112044334411621,0.8856215476989746,5.029999999999937
-0.8634977340698242,1.8616857528686523,0.3424619436264038,5.039999999999937
-0.9094732999801636,2.8458662033081055,-1.2232251167297363,5.049999999999937
-1.0539121627807617,4.062708854675293,-2.9719271659851074,5.0599999999999365
-1.1442421674728394,4.365466117858887,-3.7173571586608887,5.069999999999936
-1.2154706716537476,3.7176103591918945,-3.2757558822631836,5.079999999999936
-1.5067952871322632,2.7220821380615234,-2.60404372215271,5.089999999999936
-1.5089704990386963,1.9627447128295898,-2.2008721828460693,5.099999999999936
-1.2569526433944702,0.8060598373413086,-1.8859283924102783,5.1099999999999355
-1.0425605773925781,-0.40427589416503906,-1.6215873956680298,5.119999999999935
-0.8629611134529114,-1.415360927581787,-1.4631381034851074,5.129999999999935
-0.7898204922676086,-2.1419496536254883,-1.3363393545150757,5.139999999999935
-0.8365088105201721,-2.573920249938965,-1.5211398601531982,5.149999999999935
-0.9580309391021729,-2.5955276489257812,-1.8175640106201172,5.159999999999934
-1.2749842405319214,-2.4507980346679688,-1.929200530052185,5.169999999999934
-1.6252964735031128,-2.1865286827087402,-1.6851414442062378,5.179999999999934
-2.0446250438690186,-1.8797922134399414,-1.289578914642334,5.189999999999934
-2.5654072761535645,-1.6162376403808594,-0.702465295791626,5.199999999999934
-2.9654059410095215,-1.5393047332763672,-0.08355331420898438,5.209999999999933
-2.996671199798584,-1.7879819869995117,0.1140604019165039,5.219999999999933
-2.939549446105957,-1.732809066772461,-0.012658119201660156,5.229999999999933
-2.6806700229644775,-2.7670512199401855,0.21474790573120117,5.239999999999933
-2.381455421447754,-3.213977336883545,0.12694215774536133,5.2499999999999325
-2.057008981704712,-3.7500252723693848,0.01854848861694336,5.259999999999932
-1.9362064599990845,-4.069553375244141,-0.1395115852355957,5.269999999999932
-1.9799830913543701,-3.902395248413086,-0.34096384048461914,5.279999999999932
-1.9700348377227783,-3.736269474029541,-0.47265195846557617,5.289999999999932
-1.9540915489196777,-3.729334831237793,-0.5119657516479492,5.299999999999931
-1.8489634990692139,-3.8414306640625,-0.49973034858703613,5.309999999999931
-1.543994426727295,-3.9303793907165527,-0.4296269416809082,5.319999999999931
-0.9764568209648132,-3.758371353149414,-0.2062225341796875,5.329999999999931
-0.5051928758621216,-3.4779739379882812,0.10518884658813477,5.339999999999931
-0.06606143712997437,-2.7266459465026855,0.8075342178344727,5.34999999999993
-0.020150423049926758,-2.792633533477783,0.9482057094573975,5.35999999999993
0.9522465467453003,1.3508291244506836,3.7288296222686768,5.36999999999993
1.4383296966552734,4.802532196044922,5.792811393737793,5.37999999999993
2.550020933151245,8.33453369140625,6.268598556518555,5.3899999999999295
3.231661558151245,10.061899185180664,4.592837333679199,5.399999999999929
3.6712465286254883,9.324257850646973,3.172112226486206,5.409999999999929
3.9430432319641113,6.389884948730469,3.8442304134368896,5.419999999999929
3.673217535018921,1.6818265914916992,5.932582855224609,5.429999999999929
3.0080394744873047,-0.7619695663452148,7.079706192016602,5.4399999999999284
2.8928275108337402,-0.03867149353027344,4.994023323059082,5.449999999999928
1.6481597423553467,0.5799455642700195,1.7895045280456543,5.459999999999928
0.0385516881942749,-0.07359600067138672,-1.964082956314087,5.469999999999928
-1.3065317869186401,-0.22422027587890625,-4.843361854553223,5.479999999999928
-3.238158702850342,0.5285243988037109,-8.811448097229004,5.489999999999927
-5.448439598083496,1.2101783752441406,-13.639725685119629,5.499999999999927
-7.1753082275390625,0.11372184753417969,-7.556255340576172,5.509999999999927
-7.1852498054504395,-0.6507291793823242,-3.756589412689209,5.519999999999927
-6.732027053833008,-0.971339225769043,-1.5374208688735962,5.5299999999999265
-5.2687296867370605,-1.0613031387329102,0.19549202919006348,5.539999999999926
-3.496007204055786,-1.1685304641723633,0.9401259422302246,5.549999999999926
-1.9502849578857422,-1.0469799041748047,0.049017906188964844,5.559999999999926
-0.5544294118881226,-0.3348407745361328,-1.774767279624939,5.569999999999926
0.002436727285385132,0.18312931060791016,-2.773810625076294,5.5799999999999255
0.5384106636047363,0.7329692840576172,-3.588326930999756,5.589999999999925
0.9794561862945557,2.068467140197754,-4.826845645904541,5.599999999999925
2.0798306465148926,2.266918182373047,-5.021694660186768,5.609999999999925
2.9136030673980713,1.3096990585327148,-3.649054765701294,5.619999999999925
3.0273938179016113,0.22266006469726562,-2.560251474380493,5.629999999999924
2.5378293991088867,-0.44045352935791016,-2.1731133460998535,5.639999999999924
1.7135472297668457,-1.1326284408569336,-1.7621114253997803,5.649999999999924
0.8218421936035156,-1.7943949699401855,-1.0994120836257935,5.659999999999924
0.05034041404724121,-2.2522006034851074,-0.3401287794113159,5.6699999999999235
-0.5951612591743469,-2.442194938659668,0.034183382987976074,5.679999999999923
-1.071925401687622,-2.1860532760620117,-0.18393093347549438,5.689999999999923
-1.1632298231124878,-1.6837348937988281,-0.2561368942260742,5.699999999999923
-1.116756796836853,-0.9246387481689453,-0.4553506076335907,5.709999999999923
-0.9539104104042053,-0.28167057037353516,-0.7619537115097046,5.7199999999999225
-0.6904090642929077,0.032279014587402344,-1.0593388080596924,5.729999999999922
-0.15420979261398315,0.10111236572265625,-1.1047942638397217,5.739999999999922
0.4462389349937439,0.16889286041259766,-0.9377210140228271,5.749999999999922
0.7239411473274231,0.135101318359375,-0.7683480978012085,5.759999999999922
1.028088927268982,-0.21799182891845703,-0.6119553446769714,5.769999999999921
1.3466161489486694,-0.7346134185791016,-0.22164149582386017,5.779999999999921
1.481593132019043,-1.1490821838378906,0.20661893486976624,5.789999999999921
1.4353630542755127,-1.4762487411499023,0.5533396005630493,5.799999999999921
1.4764360189437866,-1.7904996871948242,0.8853309154510498,5.809999999999921
1.6445050239562988,-2.019787311553955,1.1044871807098389,5.81999999999992
1.724542260169983,-2.209268093109131,1.334929347038269,5.82999999999992
1.7891006469726562,-2.3348913192749023,1.6167889833450317,5.83999999999992
1.6607615947723389,-1.9466724395751953,1.9276666641235352,5.84999999999992
0.9712942838668823,-1.112630844116211,2.032033920288086,5.8599999999999195
1.0018301010131836,-1.1060009002685547,2.155810594558716,5.869999999999919
-0.14260774850845337,0.6100654602050781,1.4796894788742065,5.879999999999919
0.12139630317687988,1.337594985961914,0.8779700398445129,5.889999999999919
0.4761722683906555,1.8916568756103516,0.37749797105789185,5.899999999999919
1.106292486190796,1.9615936279296875,0.23557806015014648,5.909999999999918
1.7406730651855469,1.720113754272461,0.20557117462158203,5.919999999999918
2.3439948558807373,1.3161544799804688,0.18646109104156494,5.929999999999918
2.9243030548095703,1.0609149932861328,0.2418001890182495,5.939999999999918
3.5672497749328613,0.948847770690918,0.36065322160720825,5.949999999999918
3.9970169067382812,1.0171880722045898,0.6040331125259399,5.959999999999917
4.194286346435547,1.6316375732421875,0.7610124349594116,5.969999999999917
3.9990475177764893,3.002950668334961,0.5962697267532349,5.979999999999917
3.7529449462890625,4.470796585083008,-0.030678629875183105,5.989999999999917
3.782317638397217,4.942366600036621,-0.6013908386230469,5.9999999999999165
3.985743284225464,4.715723037719727,-1.1729581356048584,6.009999999999916
3.9228508472442627,3.6233949661254883,-1.4842793941497803,6.019999999999916
3.842489004135132,3.61757755279541,-1.6344506740570068,6.029999999999916
2.29683780670166,0.40735626220703125,-0.6778262853622437,6.039999999999916
1.4152204990386963,-0.9510774612426758,-0.19291073083877563,6.0499999999999154
0.9521678686141968,-1.4167718887329102,0.025968551635742188,6.059999999999915
0.5751258134841919,-1.2580747604370117,0.2567722797393799,6.069999999999915
0.19941997528076172,-0.5958919525146484,0.3304513990879059,6.079999999999915
-0.2042480707168579,-0.07563972473144531,0.28556445240974426,6.089999999999915
-0.5035383701324463,0.33813953399658203,0.32148218154907227,6.099999999999914
-0.6168097853660583,0.9617986679077148,0.19736313819885254,6.109999999999914
-0.594791829586029,1.7757892608642578,0.023271620273590088,6.119999999999914
-0.7200194597244263,2.6754884719848633,-0.5201586484909058,6.129999999999914
-1.0455539226531982,3.603109359741211,-1.9080028533935547,6.1399999999999135
-1.5417155027389526,4.151247024536133,-3.178886651992798,6.149999999999913
-1.8587414026260376,3.7136497497558594,-3.4710607528686523,6.159999999999913
-1.8911845684051514,2.3466615676879883,-2.897439479827881,6.169999999999913
-1.8739558458328247,1.4893245697021484,-2.4570534229278564,6.179999999999913
-1.91413414478302,0.8746042251586914,-2.179967164993286,6.1899999999999125
-1.886775255203247,0.9145641326904297,-2.395707130432129,6.199999999999912
-1.781540036201477,0.03265953063964844,-1.77458655834198,6.209999999999912
-1.6107674837112427,-0.5363054275512695,-1.6418081521987915,6.219999999999912
-1.4407227039337158,-1.2959632873535156,-1.5817365646362305,6.229999999999912
-1.352734923362732,-1.7296385765075684,-1.7661521434783936,6.239999999999911
-1.4171591997146606,-2.0355334281921387,-2.0135724544525146,6.249999999999911
-1.5438952445983887,-2.1935009956359863,-2.1176767349243164,6.259999999999911
-1.7217235565185547,-2.1982460021972656,-2.131547451019287,6.269999999999911
-1.9452406167984009,-2.21828556060791,-1.8435132503509521,6.2799999999999105
-2.188629388809204,-2.2337288856506348,-1.0144083499908447,6.28999999999991
-2.181715726852417,-2.1584692001342773,-0.15001773834228516,6.29999999999991
-1.902747392654419,-2.1579699516296387,0.6522822380065918,6.30999999999991
-1.4620813131332397,-2.215681552886963,1.150054931640625,6.31999999999991
-1.1684441566467285,-2.4359865188598633,1.3792271614074707,6.3299999999999095
-1.1982884407043457,-2.893022060394287,1.1834568977355957,6.339999999999909
-1.4589405059814453,-3.429931640625,0.5454068183898926,6.349999999999909
-1.646983027458191,-3.614414691925049,-0.17085742950439453,6.359999999999909
-1.7749711275100708,-3.7799344062805176,-0.8353641033172607,6.369999999999909
-1.8391900062561035,-3.948930263519287,-1.0819385051727295,6.379999999999908
-1.877220869064331,-4.084807872772217,-1.05946946144104,6.389999999999908
-1.819143295288086,-4.229038238525391,-0.8803486824035645,6.399999999999908
-1.5087798833847046,-4.239370346069336,-0.48790931701660156,6.409999999999908
-1.098776936531067,-4.136691570281982,0.09392356872558594,6.419999999999908
-0.5029981136322021,-3.74727725982666,1.1489381790161133,6.429999999999907
0.1578305959701538,-2.822408676147461,2.3775157928466797,6.439999999999907
0.7603490948677063,-1.2444138526916504,3.9238176345825195,6.449999999999907
1.237365961074829,1.4569625854492188,4.890517711639404,6.459999999999907
1.7404850721359253,5.361310958862305,4.062695503234863,6.4699999999999065
2.1447572708129883,8.174100875854492,2.7963626384735107,6.479999999999906
2.8384811878204346,9.987168312072754,1.7745277881622314,6.489999999999906
3.994980812072754,9.149163246154785,1.7350478172302246,6.499999999999906
5.0060882568359375,5.055403709411621,3.4320836067199707,6.509999999999906
4.768782615661621,0.43393898010253906,5.525702953338623,6.519999999999905
3.0755200386047363,-1.1586055755615234,7.524704933166504,6.529999999999905
1.7281442880630493,0.39155101776123047,6.830204963684082,6.539999999999905
0.6503647565841675,1.9305686950683594,4.330008506774902,6.549999999999905
-0.21348810195922852,1.1885061264038086,0.2715137004852295,6.559999999999905
-1.5905845165252686,0.0077419281005859375,-3.362766981124878,6.569999999999904
-3.7742724418640137,-0.43552112579345703,-5.720099449157715,6.579999999999904
-6.059120178222656,-0.6468734741210938,-12.131346702575684,6.589999999999904
-7.526578903198242,-0.7335834503173828,-11.410982131958008,6.599999999999904
-7.490937232971191,-0.8851137161254883,-5.641809940338135,6.6099999999999035
-6.788539409637451,-0.5564594268798828,-2.936345338821411,6.619999999999903
-5.107997894287109,0.2037801742553711,-1.8474674224853516,6.629999999999903
-3.412850856781006,0.13509654998779297,-1.508573293685913,6.639999999999903
-1.7728081941604614,0.004027366638183594,-2.0522656440734863,6.649999999999903
-0.7133663296699524,0.18996524810791016,-2.598313808441162,6.659999999999902
0.13859587907791138,0.5806770324707031,-3.192354202270508,6.669999999999902
0.48548150062561035,1.1629724502563477,-3.817728042602539,6.679999999999902
0.8955733180046082,1.9410972595214844,-4.2840576171875,6.689999999999902
1.6907907724380493,1.7132072448730469,-3.645806312561035,6.699999999999902
2.4399378299713135,0.7924385070800781,-2.4305806159973145,6.709999999999901
2.505326509475708,0.18364620208740234,-2.0119199752807617,6.719999999999901
1.9638316631317139,-0.3484010696411133,-1.8576081991195679,6.729999999999901
1.4362107515335083,-0.9083652496337891,-1.6354844570159912,6.739999999999901
0.7098016738891602,-1.484445571899414,-0.8264901638031006,6.7499999999999005
-0.07379019260406494,-1.6752099990844727,-1.6796588897705078E-4,6.7599999999999
-0.5334808826446533,-1.4190006256103516,0.788985013961792,6.7699999999999
-0.6202834248542786,-1.121748924255371,1.1130331754684448,6.7799999999999
-0.5065802335739136,-0.8474903106689453,0.8733198642730713,6.7899999999999
-0.37135475873947144,-0.8272428512573242,0.2650436758995056,6.7999999999998995
-0.15350621938705444,-0.6500921249389648,-0.6424959897994995,6.809999999999899
0.09475016593933105,-0.6022977828979492,-1.4390578269958496,6.819999999999899
0.4931004047393799,-0.5494203567504883,-1.889688491821289,6.829999999999899
0.6409063339233398,-0.7068071365356445,-1.9143805503845215,6.839999999999899
0.9008945226669312,-1.0219831466674805,-1.7276976108551025,6.849999999999898
0.9701980352401733,-0.9564380645751953,-1.4251940250396729,6.859999999999898
1.0932689905166626,-0.9084901809692383,-0.923558235168457,6.869999999999898
1.2073729038238525,-0.9291009902954102,-0.2151513397693634,6.879999999999898
1.2104343175888062,-0.8849506378173828,0.5763640403747559,6.8899999999998975
1.187304139137268,-0.9967622756958008,1.0509800910949707,6.899999999999897
1.218636155128479,-1.1613779067993164,1.4816935062408447,6.909999999999897
1.3009675741195679,-1.2852296829223633,1.7445815801620483,6.919999999999897
1.2881616353988647,-1.3253660202026367,1.8952302932739258,6.929999999999897
0.9075798988342285,-1.195664405822754,1.8935565948486328,6.9399999999998965
0.21558254957199097,-0.874567985534668,1.8301477432250977,6.949999999999896
-0.08500039577484131,-0.5319108963012695,1.7381374835968018,6.959999999999896
0.07977396249771118,0.019178390502929688,1.414793848991394,6.969999999999896
0.7096148133277893,0.7118644714355469,0.8909843564033508,6.979999999999896
1.3754422664642334,1.2113561630249023,0.37702858448028564,6.989999999999895
2.0109567642211914,1.1301994323730469,-0.06663548946380615,6.999999999999895
2.619769811630249,0.8180503845214844,-0.19733846187591553,7.009999999999895
3.24405574798584,0.6646642684936523,-0.08908021450042725,7.019999999999895
4.0359673500061035,0.8869819641113281,0.5155724287033081,7.0299999999998946
4.5861029624938965,1.4068307876586914,1.3467068672180176,7.039999999999894
4.639218330383301,1.8112926483154297,1.9815729856491089,7.049999999999894
3.8417341709136963,2.0090370178222656,1.9748671054840088,7.059999999999894
2.718372106552124,2.872286796569824,1.2281241416931152,7.069999999999894
2.2045302391052246,4.090816497802734,0.5184014439582825,7.0799999999998935
2.0320851802825928,5.189328193664551,-0.05566984415054321,7.089999999999893
2.0557503700256348,5.361757278442383,-0.5315931439399719,7.099999999999893
2.221860408782959,4.533721923828125,-0.7783581018447876,7.109999999999893
2.283557415008545,3.088059425354004,-0.8094266653060913,7.119999999999893
2.0421555042266846,0.824223518371582,-0.7046904563903809,7.129999999999892
1.6223763227462769,-0.6618614196777344,-0.6725861430168152,7.139999999999892
1.193957805633545,-1.9698376655578613,-0.552672803401947,7.149999999999892
0.7447559833526611,-2.5889554023742676,-0.2728215157985687,7.159999999999892
0.39746415615081787,-2.545311450958252,0.023460298776626587,7.169999999999892
0.01769345998764038,-1.5494575500488281,0.31170061230659485,7.179999999999891
-0.3058270812034607,-0.6271076202392578,0.304235577583313,7.189999999999891
-0.4916747212409973,-0.28170299530029297,0.1495354175567627,7.199999999999891
-0.760856568813324,0.19764328002929688,-0.14812135696411133,7.209999999999891
-0.8142767548561096,1.0093116760253906,-0.37147587537765503,7.2199999999998905
-0.7164508104324341,1.9183673858642578,-0.5754343271255493,7.22999999999989
-0.5447226166725159,2.6752052307128906,-0.9383378028869629,7.23999999999989
-0.6396433711051941,3.252285957336426,-1.3175500631332397,7.24999999999989
-0.9166175127029419,3.424014091491699,-1.7436400651931763,7.25999999999989
-1.1327648162841797,3.27506160736084,-2.0728211402893066,7.269999999999889
-1.0129987001419067,2.874709129333496,-2.2600741386413574,7.279999999999889
-0.8015925884246826,2.402341842651367,-2.2436628341674805,7.289999999999889
-0.6448988914489746,1.8729467391967773,-2.184351682662964,7.299999999999889
-0.5024204850196838,1.2548818588256836,-2.022094249725342,7.309999999999889
-0.4723023772239685,0.45009708404541016,-1.7638607025146484,7.319999999999888
-0.4854587912559509,-0.5911731719970703,-1.7799397706985474,7.329999999999888
-0.6511985659599304,-1.3666915893554688,-1.8333407640457153,7.339999999999888
-0.9039873480796814,-1.814864158630371,-2.0283985137939453,7.349999999999888
-1.1809654235839844,-2.157008171081543,-2.240997791290283,7.3599999999998875
-1.4609824419021606,-2.3657426834106445,-2.2156991958618164,7.369999999999887
-1.6398255825042725,-2.413084030151367,-1.9509605169296265,7.379999999999887
-1.808178424835205,-2.3618741035461426,-1.2622475624084473,7.389999999999887
-1.8564622402191162,-2.1529388427734375,-0.4390707015991211,7.399999999999887
-1.6429781913757324,-2.0277938842773438,0.3497133255004883,7.4099999999998865
-1.4627543687820435,-2.032461643218994,0.9433174133300781,7.419999999999886
-1.288092017173767,-2.278665065765381,1.3726105690002441,7.429999999999886
-1.3720804452896118,-2.5693564414978027,1.2618379592895508,7.439999999999886
-1.6043763160705566,-2.8961520195007324,0.6931710243225098,7.449999999999886
-1.7002662420272827,-3.1518702507019043,-0.12386322021484375,7.459999999999885
-1.7270324230194092,-3.360471725463867,-0.9951367378234863,7.469999999999885
-1.7196863889694214,-3.5617871284484863,-1.4878637790679932,7.479999999999885
-1.6830205917358398,-3.766997814178467,-1.7678699493408203,7.489999999999885
-1.582221508026123,-3.9785518646240234,-1.6549513339996338,7.4999999999998845
-1.3471627235412598,-4.103715419769287,-1.2603907585144043,7.509999999999884
-0.9156224131584167,-4.155664920806885,-0.5649220943450928,7.519999999999884
-0.42506617307662964,-3.970702648162842,0.46590662002563477,7.529999999999884
-0.3846520781517029,-4.0270867347717285,0.5894134044647217,7.539999999999884
0.6059862375259399,-2.0353140830993652,2.6559975147247314,7.5499999999998835
0.7159665822982788,-0.4757871627807617,3.3667497634887695,7.559999999999883
0.7654324173927307,2.307933807373047,4.23951530456543,7.569999999999883
1.0517098903656006,5.422551155090332,4.342778205871582,7.579999999999883
1.746058464050293,7.77288818359375,3.3806309700012207,7.589999999999883
2.7070717811584473,7.842868804931641,2.813246011734009,7.599999999999882
3.9223742485046387,4.985233306884766,3.5796961784362793,7.609999999999882
4.083542346954346,1.5515403747558594,4.412298202514648,7.619999999999882
3.170114040374756,-1.783280372619629,4.81303596496582,7.629999999999882
2.162411689758301,-3.3704710006713867,4.378559112548828,7.6399999999998816
1.3213106393814087,-1.8790044784545898,2.7803597450256348,7.649999999999881
0.3669776916503906,0.2268390655517578,0.40635132789611816,7.659999999999881
-0.09689795970916748,1.1117143630981445,-2.3589913845062256,7.669999999999881
-0.8140735626220703,2.0085525512695312,-3.6923694610595703,7.679999999999881
-2.094937562942505,4.774825096130371,-10.083808898925781,7.6899999999998805
-4.090084075927734,8.100162506103516,-13.299896240234375,7.69999999999988
-3.844668388366699,8.030428886413574,-13.173247337341309,7.70999999999988
-6.234304428100586,2.4697446823120117,-2.1548569202423096,7.71999999999988
-5.387662410736084,-0.5493974685668945,-0.8335362672805786,7.72999999999988
-4.588625907897949,-2.119621753692627,-0.1934490203857422,7.739999999999879
-3.493603467941284,-3.141636371612549,-0.27745652198791504,7.749999999999879
-2.1586833000183105,-3.3265414237976074,-1.0272152423858643,7.759999999999879
-1.169790267944336,-2.3954944610595703,-1.8173354864120483,7.769999999999879
-0.6767900586128235,-0.9712686538696289,-2.588587760925293,7.779999999999879
-0.5358901023864746,0.7562332153320312,-3.5076284408569336,7.789999999999878
-0.4168916940689087,2.8790998458862305,-4.719929218292236,7.799999999999878
0.5764929056167603,4.114985466003418,-4.644936561584473,7.809999999999878
1.5145668983459473,3.127373695373535,-3.4363207817077637,7.819999999999878
1.617064118385315,1.7753715515136719,-2.4596245288848877,7.8299999999998775
1.3871238231658936,0.45536041259765625,-1.8449347019195557,7.839999999999877
0.9674134254455566,-0.8909397125244141,-1.0055164098739624,7.849999999999877
0.6891752481460571,-1.6180171966552734,-0.42571139335632324,7.859999999999877
0.43576478958129883,-2.0930676460266113,0.03673422336578369,7.869999999999877
0.042571306228637695,-2.0551533699035645,-0.05595195293426514,7.879999999999876
0.0558779239654541,-2.067256450653076,0.02717757225036621,7.889999999999876
-0.13896846771240234,-1.9423160552978516,-0.28056538105010986,7.899999999999876
-0.08913993835449219,-1.8740153312683105,-0.5723344683647156,7.909999999999876
0.009234070777893066,-1.6525764465332031,-0.832732617855072,7.919999999999876
0.24199867248535156,-1.1555261611938477,-1.197635293006897,7.929999999999875
0.47234904766082764,-0.594325065612793,-1.4889366626739502,7.939999999999875
0.6862881183624268,-0.14014720916748047,-1.6288683414459229,7.949999999999875
0.7694360017776489,0.014913558959960938,-1.5146355628967285,7.959999999999875
0.9389864206314087,0.0722646713256836,-1.1011996269226074,7.9699999999998745
1.027696132659912,0.0106048583984375,-0.6510074734687805,7.979999999999874
0.8946870565414429,-0.35933494567871094,-0.2374878227710724,7.989999999999874
1.060661792755127,-0.5851297378540039,0.45870542526245117,7.999999999999874
1.2506515979766846,-0.5465574264526367,1.242129921913147,8.009999999999874
