AccX,AccY,AccZ,SampleRate
-0.353057861328125,-1.0521907806396484,-1.3913682699203491,0
-0.1201932430267334,-0.6470546722412109,-0.562236487865448,0.01
0.023354530334472656,-0.5940408706665039,0.47163164615631104,0.02
0.12284302711486816,-0.6559333801269531,1.2163656949996948,0.03
0.22190618515014648,-0.6392822265625,1.7975517511367798,0.04
0.23707795143127441,-0.4248008728027344,1.957450270652771,0.05
0.23272442817687988,-0.2588224411010742,1.7946854829788208,0.060000000000000005
0.3007829189300537,-0.22876453399658203,1.5301427841186523,0.07
0.44315338134765625,-0.42958831787109375,1.1648988723754883,0.08
0.3844304084777832,-0.5955705642700195,1.0036931037902832,0.09
0.34449148178100586,-0.5600404739379883,0.9574770927429199,0.09999999999999999
0.3485065698623657,-0.40304088592529297,1.1427180767059326,0.10999999999999999
0.35265612602233887,-0.2499828338623047,1.3989646434783936,0.11999999999999998
0.38819873332977295,-0.11811256408691406,1.621159315109253,0.12999999999999998
0.7724276781082153,0.12182903289794922,1.536937952041626,0.13999999999999999
1.1626261472702026,0.4515113830566406,1.0821572542190552,0.15
1.5521299839019775,0.5613231658935547,0.43271374702453613,0.16
2.046485185623169,0.35009765625,-0.03339648246765137,0.17
2.7003931999206543,0.036667823791503906,0.02739107608795166,0.18000000000000002
3.372955560684204,-0.20951080322265625,0.4634196162223816,0.19000000000000003
3.62851881980896,0.0860891342163086,1.236244559288025,0.20000000000000004
3.24495792388916,0.7249507904052734,1.6887929439544678,0.21000000000000005
2.9271230697631836,1.4715509414672852,2.066157341003418,0.22000000000000006
2.588399887084961,2.400266647338867,1.9746310710906982,0.23000000000000007
2.375885486602783,3.459254264831543,1.1965616941452026,0.24000000000000007
2.2345776557922363,3.960756301879883,0.331188440322876,0.25000000000000006
2.2332754135131836,4.000152587890625,-0.49840760231018066,0.26000000000000006
2.444430351257324,3.504528045654297,-0.8744162917137146,0.2700000000000001
2.654900074005127,2.301732063293457,-0.961581826210022,0.2800000000000001
2.5771636962890625,0.9488182067871094,-0.8625555038452148,0.2900000000000001
2.2074496746063232,-0.2950248718261719,-0.5568572282791138,0.3000000000000001
1.3426400423049927,-1.2921905517578125,-0.2533026337623596,0.3100000000000001
0.22127342224121094,-2.149878978729248,-0.03721986711025238,0.3200000000000001
-0.5446703433990479,-2.387824058532715,0.034287042915821075,0.3300000000000001
-1.1593000888824463,-2.3184447288513184,0.3376076817512512,0.34000000000000014
-1.7388888597488403,-1.8521990776062012,0.6323574185371399,0.35000000000000014
-1.9670078754425049,-1.412405014038086,0.8013994693756104,0.36000000000000015
-1.8635759353637695,-0.7873420715332031,0.7247086763381958,0.37000000000000016
-1.5617908239364624,0.3745393753051758,0.7597208023071289,0.38000000000000017
-1.186710000038147,1.5003166198730469,0.5563966035842896,0.3900000000000002
-0.7574689388275146,3.04510498046875,-0.7716816067695618,0.4000000000000002
-0.5170069932937622,5.127516746520996,-3.4504733085632324,0.4100000000000002
-0.24825024604797363,5.667811393737793,-3.948171615600586,0.4200000000000002
-0.022707223892211914,4.985227584838867,-3.3555490970611572,0.4300000000000002
0.03443145751953125,3.841032028198242,-2.278672456741333,0.4400000000000002
0.02814340591430664,2.844120979309082,-1.6298580169677734,0.45000000000000023
0.08453893661499023,1.5582275390625,-0.929950475692749,0.46000000000000024
0.2510359287261963,0.0750732421875,-0.19931960105895996,0.47000000000000025
0.30027151107788086,-0.9187526702880859,0.31586575508117676,0.48000000000000026
0.21532034873962402,-1.4697151184082031,0.47808265686035156,0.49000000000000027
-0.08736753463745117,-1.7364354133605957,0.3518061637878418,0.5000000000000002
-0.42439746856689453,-1.737248420715332,-0.017611265182495117,0.5100000000000002
-0.7582429647445679,-1.6845598220825195,-0.5263175964355469,0.5200000000000002
-1.078518033027649,-1.6220340728759766,-0.8722686767578125,0.5300000000000002
-1.4301815032958984,-1.715592861175537,-1.105194091796875,0.5400000000000003
-1.9187345504760742,-1.8905715942382812,-1.3037292957305908,0.5500000000000003
-2.212419271469116,-2.3089981079101562,-1.7293446063995361,0.5600000000000003
-2.3548619747161865,-2.67315673828125,-1.9453625679016113,0.5700000000000003
-2.487257957458496,-3.013899326324463,-2.0321204662323,0.5800000000000003
-2.4823429584503174,-3.168562889099121,-1.9147284030914307,0.5900000000000003
-2.79067063331604,-3.202463150024414,-1.7704119682312012,0.6000000000000003
-3.010420799255371,-3.11673641204834,-1.5390894412994385,0.6100000000000003
-3.2512903213500977,-3.0854196548461914,-1.091362476348877,0.6200000000000003
-3.312713623046875,-3.176729202270508,-0.6766767501831055,0.6300000000000003
-3.253117799758911,-3.340705394744873,-0.048444271087646484,0.6400000000000003
-2.991394519805908,-3.607199192047119,0.6497440338134766,0.6500000000000004
-2.515068769454956,-3.8261303901672363,1.213961124420166,0.6600000000000004
-2.1761386394500732,-3.8306870460510254,1.570481300354004,0.6700000000000004
-1.9472591876983643,-3.3812146186828613,1.9263997077941895,0.6800000000000004
-1.6821234226226807,-2.59531831741333,2.380462408065796,0.6900000000000004
-1.0081400871276855,-0.7161893844604492,3.0469131469726562,0.7000000000000004
-0.1511995792388916,2.241696357727051,3.3216333389282227,0.7100000000000004
0.6719076633453369,5.410560607910156,2.910017490386963,0.7200000000000004
1.714906930923462,8.085756301879883,1.988121747970581,0.7300000000000004
1.5850563049316406,8.075448989868164,2.103630304336548,0.7400000000000004
5.835789680480957,7.6434431076049805,1.3752505779266357,0.7500000000000004
6.944894313812256,3.8344364166259766,5.0279436111450195,0.7600000000000005
5.755541801452637,-0.5272426605224609,6.448764801025391,0.7700000000000005
3.362459421157837,-2.6796278953552246,5.7505340576171875,0.7800000000000005
1.6240718364715576,-2.0920019149780273,3.537128448486328,0.7900000000000005
0.6256535053253174,-0.5264377593994141,0.5579040050506592,0.8000000000000005
0.32846570014953613,-0.697718620300293,-1.6792709827423096,0.8100000000000005
-0.621675968170166,-0.3806886672973633,-3.336026191711426,0.8200000000000005
-2.1921231746673584,0.39920997619628906,-5.031373023986816,0.8300000000000005
-4.114840507507324,1.1682395935058594,-11.825413703918457,0.8400000000000005
-6.8055419921875,2.203047752380371,-10.263510704040527,0.8500000000000005
-8.245338439941406,3.5947628021240234,-4.243907928466797,0.8600000000000005
-7.7849016189575195,4.125951766967773,-1.1171236038208008,0.8700000000000006
-6.570084571838379,3.626556396484375,0.8389620780944824,0.8800000000000006
-4.708255767822266,2.086308479309082,1.1896483898162842,0.8900000000000006
-3.281477928161621,0.27718639373779297,0.25293731689453125,0.9000000000000006
-1.886988878250122,-1.1403379440307617,-1.4021022319793701,0.9100000000000006
-0.232529878616333,-1.9758238792419434,-2.867762327194214,0.9200000000000006
0.7265521287918091,-2.0952038764953613,-3.460228443145752,0.9300000000000006
1.578160285949707,-1.5360093116760254,-3.8718185424804688,0.9400000000000006
2.1323649883270264,-0.3531484603881836,-4.614241123199463,0.9500000000000006
2.6196296215057373,0.7666339874267578,-4.781098365783691,0.9600000000000006
2.6263375282287598,1.1504945755004883,-3.1698827743530273,0.9700000000000006
2.6795871257781982,0.8900661468505859,-1.739484429359436,0.9800000000000006
2.3132030963897705,0.5384654998779297,-0.9787295460700989,0.9900000000000007
1.3613324165344238,-0.035488128662109375,0.02664017677307129,1.0000000000000007
0.39291858673095703,-0.5847663879394531,1.147788405418396,1.0100000000000007
-0.39341306686401367,-0.8038339614868164,1.198071002960205,1.0200000000000007
-0.7901477813720703,-0.8408527374267578,0.6078054904937744,1.0300000000000007
-0.9638439416885376,-0.8749790191650391,-0.5747302770614624,1.0400000000000007
-0.8939682245254517,-0.9601545333862305,-1.3260564804077148,1.0500000000000007
-0.7871319055557251,-1.1575870513916016,-1.7584519386291504,1.0600000000000007
-0.7572190761566162,-1.3742761611938477,-1.944439172744751,1.0700000000000007
-0.773482084274292,-1.3917837142944336,-1.9887754917144775,1.0800000000000007
-0.7585892677307129,-1.2701692581176758,-1.8136940002441406,1.0900000000000007
-0.32526445388793945,-1.0289716720581055,-1.3237143754959106,1.1000000000000008
0.07625174522399902,-0.7190570831298828,-0.9722273945808411,1.1100000000000008
0.48285460472106934,-0.4965810775756836,-0.5332969427108765,1.1200000000000008
0.6448369026184082,-0.5720357894897461,-0.09014664590358734,1.1300000000000008
0.9336309432983398,-0.8756570816040039,0.24966511130332947,1.1400000000000008
1.0286357402801514,-1.2967853546142578,0.6656280755996704,1.1500000000000008
1.0355916023254395,-1.6706509590148926,1.0221202373504639,1.1600000000000008
0.9350264072418213,-1.6652493476867676,1.202360987663269,1.1700000000000008
0.7388899326324463,-1.6477341651916504,1.2344856262207031,1.1800000000000008
0.4871537685394287,-1.4721097946166992,1.0323275327682495,1.1900000000000008
0.16527009010314941,-1.2726058959960938,0.9287798404693604,1.2000000000000008
-0.14075660705566406,-0.8676004409790039,0.9519117474555969,1.2100000000000009
-0.2743016481399536,-0.23445510864257812,1.0080053806304932,1.2200000000000009
0.13732290267944336,0.3858966827392578,0.9838650822639465,1.2300000000000009
0.8493373394012451,1.0386285781860352,0.9334732294082642,1.2400000000000009
1.378969669342041,1.4382152557373047,0.8139209747314453,1.2500000000000009
1.9071475267410278,1.5704917907714844,0.6012573838233948,1.260000000000001
2.3952975273132324,1.521531105041504,0.3642793893814087,1.270000000000001
2.9627182483673096,1.263167381286621,0.1614292860031128,1.280000000000001
3.4861059188842773,0.9843435287475586,0.3027838468551636,1.290000000000001
4.145796775817871,0.8634681701660156,0.8106597661972046,1.300000000000001
4.565267086029053,0.9918012619018555,1.4100261926651,1.310000000000001
4.618795394897461,1.4125957489013672,1.7100307941436768,1.320000000000001
4.291769504547119,2.148829460144043,1.6876564025878906,1.330000000000001
3.827256202697754,3.2059364318847656,1.1940855979919434,1.340000000000001
3.4827394485473633,3.8166046142578125,0.6087708473205566,1.350000000000001
3.2211644649505615,3.7548608779907227,0.043497443199157715,1.360000000000001
2.999846935272217,2.993563652038574,-0.2872885465621948,1.370000000000001
2.72434401512146,1.7706623077392578,-0.4176907539367676,1.380000000000001
1.9606122970581055,0.5426464080810547,-0.49592339992523193,1.390000000000001
0.9673857688903809,-0.7389774322509766,-0.6672403216362,1.400000000000001
0.3270747661590576,-1.510350227355957,-0.8749371767044067,1.410000000000001
-0.2624509334564209,-2.2609729766845703,-1.055629014968872,1.420000000000001
-0.7364343404769897,-2.346362590789795,-1.0022251605987549,1.430000000000001
-1.2162415981292725,-1.79567289352417,-0.7380399703979492,1.440000000000001
-1.701200246810913,-1.0758380889892578,-0.19232478737831116,1.450000000000001
-1.8451486825942993,-0.6164169311523438,0.5762730836868286,1.460000000000001
-1.7931874990463257,0.010267257690429688,0.8794933557510376,1.470000000000001
-1.5866503715515137,1.2715415954589844,1.0260367393493652,1.480000000000001
-1.2868030071258545,2.861149787902832,0.6367697715759277,1.490000000000001
-0.9242970943450928,5.012735366821289,-1.9163768291473389,1.500000000000001
-0.5231776237487793,6.603069305419922,-3.984668254852295,1.5100000000000011
-0.8040802478790283,6.662060737609863,-3.6686322689056396,1.5200000000000011
-1.312778115272522,5.631704330444336,-3.043417453765869,1.5300000000000011
-1.5807828903198242,3.991067886352539,-2.183175563812256,1.5400000000000011
-1.550268292427063,2.3242950439453125,-1.4980099201202393,1.5500000000000012
-1.1391414403915405,0.6424922943115234,-0.9118108749389648,1.5600000000000012
-0.800560474395752,-0.7556819915771484,-0.5650076866149902,1.5700000000000012
-0.5574417114257812,-1.828242301940918,-0.2873551845550537,1.5800000000000012
-0.5097510814666748,-2.2594032287597656,-0.2239086627960205,1.5900000000000012
-0.5928657054901123,-2.475926399230957,-0.2836596965789795,1.6000000000000012
-0.6336324214935303,-2.6005187034606934,-0.5164775848388672,1.6100000000000012
-0.7915314435958862,-2.5304603576660156,-0.7778308391571045,1.6200000000000012
-0.9495693445205688,-2.2782416343688965,-1.053372859954834,1.6300000000000012
-1.1698544025421143,-2.0292787551879883,-1.240828275680542,1.6400000000000012
-1.5483852624893188,-1.8056740760803223,-1.2029480934143066,1.6500000000000012
-1.8506724834442139,-1.8466200828552246,-1.2857353687286377,1.6600000000000013
-2.230300188064575,-1.986250877380371,-1.424104928970337,1.6700000000000013
-2.1819920539855957,-1.9707441329956055,-1.4842755794525146,1.6800000000000013
-2.7965121269226074,-2.4086766242980957,-1.4389221668243408,1.6900000000000013
-3.1271936893463135,-2.740548610687256,-1.2288494110107422,1.7000000000000013
-3.2335898876190186,-2.9167323112487793,-1.0458948612213135,1.7100000000000013
-3.346752166748047,-3.1600842475891113,-0.7526390552520752,1.7200000000000013
-3.4681179523468018,-3.355912685394287,-0.37041521072387695,1.7300000000000013
-3.5428738594055176,-3.4995150566101074,0.12209796905517578,1.7400000000000013
-3.5259928703308105,-3.6382460594177246,0.7024178504943848,1.7500000000000013
-3.149735927581787,-3.7759037017822266,1.43597412109375,1.7600000000000013
-2.5956623554229736,-3.70796537399292,1.8793532848358154,1.7700000000000014
-1.8603365421295166,-3.1028733253479004,2.2699413299560547,1.7800000000000014
-0.8151646852493286,-1.6730751991271973,2.8068833351135254,1.7900000000000014
0.0959014892578125,1.5986833572387695,3.278731346130371,1.8000000000000014
0.7425246238708496,4.786097526550293,2.401479959487915,1.8100000000000014
1.915555477142334,7.747348785400391,1.4580295085906982,1.8200000000000014
3.563208818435669,8.132375717163086,1.5926733016967773,1.8300000000000014
5.798392295837402,6.577582359313965,2.398404359817505,1.8400000000000014
7.359376907348633,3.34769344329834,4.744877815246582,1.8500000000000014
6.460321426391602,-0.4569129943847656,6.070061683654785,1.8600000000000014
3.562096357345581,-3.1229662895202637,5.61063289642334,1.8700000000000014
0.8023085594177246,-3.990312099456787,3.740445613861084,1.8800000000000014
-0.12087392807006836,-2.8662657737731934,1.1262741088867188,1.8900000000000015
-0.20995855331420898,-2.8564629554748535,1.1825082302093506,1.9000000000000015
-0.2813878059387207,0.7017068862915039,-3.5066356658935547,1.9100000000000015
-1.441084384918213,2.05051326751709,-5.608222961425781,1.9200000000000015
-2.5830016136169434,6.002232551574707,-14.067654609680176,1.9300000000000015
-5.782302379608154,6.480517387390137,-10.21049690246582,1.9400000000000015
-7.147204875946045,4.576210975646973,-4.821200370788574,1.9500000000000015
-6.979201316833496,2.3495254516601562,-0.822830080986023,1.9600000000000015
-5.810741424560547,-0.21174907684326172,2.2986977100372314,1.9700000000000015
-4.575446128845215,-1.7994723320007324,3.218172073364258,1.9800000000000015
-3.3077056407928467,-2.4685916900634766,2.0805249214172363,1.9900000000000015
-2.269319534301758,-2.049746513366699,-0.08657717704772949,2.0000000000000013
-1.7188843488693237,-1.4706201553344727,-1.6673017740249634,2.010000000000001
-1.2401442527770996,-0.8010663986206055,-2.902547597885132,2.020000000000001
-0.904893159866333,0.15489673614501953,-3.4299139976501465,2.0300000000000007
-0.5243662595748901,1.5981025695800781,-4.258605003356934,2.0400000000000005
0.39472413063049316,2.507571220397949,-4.591723442077637,2.0500000000000003
1.9691576957702637,2.1403751373291016,-3.651310443878174,2.06
2.9660775661468506,1.305898666381836,-3.0894718170166016,2.07
3.3494796752929688,0.7128534317016602,-2.8725013732910156,2.0799999999999996
2.9547297954559326,0.18221282958984375,-2.7202892303466797,2.0899999999999994
2.1497907638549805,-0.5246763229370117,-2.288362979888916,2.099999999999999
1.029655933380127,-1.0002260208129883,-1.7430577278137207,2.109999999999999
-0.02964496612548828,-1.396815299987793,-1.144888997077942,2.1199999999999988
-0.6429638862609863,-1.4121451377868652,-0.6939104795455933,2.1299999999999986
-0.9723473787307739,-1.46803617477417,-0.4240032136440277,2.1399999999999983
-1.0390862226486206,-1.3893747329711914,-0.3586060106754303,2.149999999999998
-0.9079943895339966,-1.2162199020385742,-0.35436582565307617,2.159999999999998
-0.7090117931365967,-1.006697654724121,-0.5092959403991699,2.1699999999999977
-0.44402599334716797,-0.9940099716186523,-0.7350574731826782,2.1799999999999975
-0.14115452766418457,-1.0637931823730469,-0.813694179058075,2.1899999999999973
0.18053436279296875,-1.2713403701782227,-0.8806425929069519,2.199999999999997
0.31676149368286133,-1.5113658905029297,-0.6050636172294617,2.209999999999997
0.2985658645629883,-1.4509916305541992,-0.14810988306999207,2.2199999999999966
0.3388974666595459,-1.2795782089233398,0.43151795864105225,2.2299999999999964
0.13746881484985352,-1.1670799255371094,0.8307504653930664,2.239999999999996
0.11081647872924805,-1.0870170593261719,1.0503100156784058,2.249999999999996
0.20392704010009766,-1.1085939407348633,1.2165937423706055,2.259999999999996
0.44281721115112305,-1.0883188247680664,1.3393300771713257,2.2699999999999956
0.40372490882873535,-0.8118743896484375,1.4904171228408813,2.2799999999999954
0.3296940326690674,-0.4415454864501953,1.695082426071167,2.289999999999995
0.20860576629638672,-0.031067848205566406,1.7903950214385986,2.299999999999995
0.3547708988189697,0.1706562042236328,1.6788088083267212,2.3099999999999947
0.6876139640808105,0.5387325286865234,1.302372694015503,2.3199999999999945
1.230564832687378,0.8376216888427734,0.9696587324142456,2.3299999999999943
1.7556523084640503,1.018172264099121,0.5160278081893921,2.339999999999994
2.24033784866333,1.064697265625,0.06642067432403564,2.349999999999994
2.8584136962890625,0.7983503341674805,-0.24128985404968262,2.3599999999999937
3.4718637466430664,0.48486995697021484,-0.06265199184417725,2.3699999999999934
4.160905838012695,0.23838329315185547,0.5669983625411987,2.3799999999999932
4.794112682342529,0.2750864028930664,1.34466552734375,2.389999999999993
4.9579925537109375,0.830470085144043,1.8699722290039062,2.399999999999993
4.890696048736572,1.9320497512817383,2.1056723594665527,2.4099999999999926
4.608962059020996,3.4768714904785156,1.6682920455932617,2.4199999999999924
4.315672874450684,4.244986534118652,0.9010970592498779,2.429999999999992
4.059220314025879,4.31492805480957,-0.22771501541137695,2.439999999999992
3.721153974533081,3.848512649536133,-1.0562702417373657,2.4499999999999917
3.408456325531006,2.603849411010742,-1.1627118587493896,2.4599999999999915
2.7154622077941895,0.9636821746826172,-0.8666483163833618,2.4699999999999913
1.2003862857818604,-0.8737897872924805,-0.8441363573074341,2.479999999999991
0.25917863845825195,-1.8216495513916016,-1.1385955810546875,2.489999999999991
-0.5360438823699951,-2.2696032524108887,-0.9993675351142883,2.4999999999999907
-1.1787711381912231,-2.0756287574768066,-0.11595212668180466,2.5099999999999905
-1.8167946338653564,-1.5785980224609375,0.8537546396255493,2.5199999999999902
-2.2826955318450928,-1.1486291885375977,1.189947485923767,2.52999999999999
-2.4736404418945312,-0.6082620620727539,1.1174986362457275,2.53999999999999
-2.485844135284424,-0.5779085159301758,0.8828674554824829,2.5499999999999896
-1.9884793758392334,1.072092056274414,0.4610086679458618,2.5599999999999894
-1.5168612003326416,2.713693618774414,-0.3791085481643677,2.569999999999989
-1.1743091344833374,4.499218940734863,-1.9912344217300415,2.579999999999989
-1.0368825197219849,5.989027976989746,-3.1564035415649414,2.5899999999999888
-1.4945075511932373,6.124659538269043,-3.2391843795776367,2.5999999999999885
-1.8733268976211548,5.333270072937012,-2.9532723426818848,2.6099999999999883
-1.970252275466919,4.1881866455078125,-2.443767786026001,2.619999999999988
-1.7992637157440186,3.044769287109375,-1.9758241176605225,2.629999999999988
-1.181281566619873,2.0401735305786133,-1.2522647380828857,2.6399999999999877
-1.155463695526123,2.1094369888305664,-1.4940943717956543,2.6499999999999875
0.3643312454223633,-0.5763168334960938,0.005349159240722656,2.6599999999999873
0.4208946228027344,-1.428215503692627,-0.0885930061340332,2.669999999999987
0.20700454711914062,-2.2103934288024902,-0.34578704833984375,2.679999999999987
-0.10242629051208496,-2.7129220962524414,-0.6439473628997803,2.6899999999999866
-0.6433509588241577,-2.8415980339050293,-0.9700024127960205,2.6999999999999864
-1.1705777645111084,-2.9015111923217773,-1.2428982257843018,2.709999999999986
-1.7585763931274414,-2.9304590225219727,-1.6773836612701416,2.719999999999986
-2.2115070819854736,-2.9096431732177734,-2.024064064025879,2.7299999999999858
-2.59932541847229,-2.966799736022949,-2.1670987606048584,2.7399999999999856
-2.965932607650757,-2.9197521209716797,-2.159525156021118,2.7499999999999853
-3.3285698890686035,-2.8343305587768555,-1.9105541706085205,2.759999999999985
-3.535186529159546,-2.821946144104004,-1.3288030624389648,2.769999999999985
-3.529981851577759,-2.880537986755371,-0.7638568878173828,2.7799999999999847
-3.20473051071167,-3.070145606994629,-0.49699926376342773,2.7899999999999845
-2.8362510204315186,-3.4379072189331055,-0.22789478302001953,2.7999999999999843
-2.645353317260742,-3.8152341842651367,-0.17818212509155273,2.809999999999984
-2.522176742553711,-4.118603706359863,-0.2619495391845703,2.819999999999984
-2.334416389465332,-4.329444885253906,-0.13120746612548828,2.8299999999999836
-2.0872926712036133,-4.4683613777160645,0.19343042373657227,2.8399999999999834
-1.8251467943191528,-4.3238205909729,0.6735625267028809,2.849999999999983
-1.3071409463882446,-3.66605806350708,1.479133129119873,2.859999999999983
-0.30328214168548584,-1.5198979377746582,2.674478054046631,2.869999999999983
0.6155521869659424,2.282334327697754,3.9128339290618896,2.8799999999999826
0.6098096370697021,2.2150964736938477,4.082380771636963,2.8899999999999824
2.8747406005859375,9.932576179504395,2.0893805027008057,2.899999999999982
4.58134651184082,10.579282760620117,1.8179595470428467,2.909999999999982
6.8144025802612305,8.807257652282715,3.513467788696289,2.9199999999999817
7.534404754638672,4.657026290893555,6.611255168914795,2.9299999999999815
6.183015823364258,0.7509689331054688,7.800675392150879,2.9399999999999813
4.132542610168457,-0.45070934295654297,6.459975242614746,2.949999999999981
2.2473936080932617,0.30512237548828125,3.492455005645752,2.959999999999981
0.7090046405792236,1.0138330459594727,0.3243255615234375,2.9699999999999807
0.6634485721588135,0.9921083450317383,0.41661882400512695,2.9799999999999804
-1.9205378293991089,-0.5420627593994141,-5.794283866882324,2.9899999999999802
-3.5344934463500977,-0.6116085052490234,-9.384117126464844,2.99999999999998
-5.091941833496094,-0.6332826614379883,-10.937247276306152,3.00999999999998
-6.893202304840088,-1.2105107307434082,-6.773571968078613,3.0199999999999796
-7.366929531097412,-1.2361578941345215,-3.148149013519287,3.0299999999999794
-7.185547828674316,-0.7722682952880859,0.3634507656097412,3.039999999999979
-6.038093566894531,-0.012777328491210938,2.542536497116089,3.049999999999979
-4.456525802612305,0.5534601211547852,3.118138074874878,3.0599999999999787
-4.339771747589111,0.5401773452758789,3.103187322616577,3.0699999999999785
-2.090733051300049,0.9160890579223633,-0.6304483413696289,3.0799999999999783
-1.1793649196624756,0.5656938552856445,-1.8204063177108765,3.089999999999978
-0.27078843116760254,0.5430479049682617,-3.0254578590393066,3.099999999999978
0.7430617809295654,1.1813879013061523,-5.406512260437012,3.1099999999999777
1.9101033210754395,1.602158546447754,-5.956978797912598,3.1199999999999775
2.4849681854248047,1.114823341369629,-4.430927276611328,3.1299999999999772
2.4075820446014404,0.45047473907470703,-2.920167922973633,3.139999999999977
1.8639395236968994,0.10962677001953125,-2.411937713623047,3.149999999999977
1.0943777561187744,-0.1750955581665039,-2.2246592044830322,3.1599999999999766
0.16199207305908203,-0.1782693862915039,-2.0686774253845215,3.1699999999999764
-0.4179201126098633,-0.3139152526855469,-1.7383766174316406,3.179999999999976
-0.6069624423980713,-0.5485944747924805,-1.0161118507385254,3.189999999999976
-0.43891167640686035,-0.7879505157470703,-0.25852805376052856,3.1999999999999758
-0.05866861343383789,-0.9664411544799805,0.005401015281677246,3.2099999999999755
0.30547475814819336,-1.2135324478149414,-0.03243708610534668,3.2199999999999753
0.6020040512084961,-1.3313112258911133,-0.5098048448562622,3.229999999999975
0.7021346092224121,-1.3559074401855469,-0.939087450504303,3.239999999999975
0.8421084880828857,-1.3559703826904297,-1.2072211503982544,3.2499999999999747
0.9599335193634033,-1.2135448455810547,-1.3377659320831299,3.2599999999999745
0.8995418548583984,-1.1824731826782227,-1.1220309734344482,3.2699999999999743
0.6731753349304199,-1.2938156127929688,-0.6132858395576477,3.279999999999974
0.29797792434692383,-1.222426414489746,-0.07199950516223907,3.289999999999974
-0.1652083396911621,-1.1006994247436523,0.3810819685459137,3.2999999999999736
-0.6003984212875366,-1.1160907745361328,0.8781105875968933,3.3099999999999734
-0.9569947719573975,-1.1060047149658203,1.2346271276474,3.319999999999973
-0.9163284301757812,-1.1415538787841797,1.355404257774353,3.329999999999973
-0.6369545459747314,-1.3031005859375,1.2755413055419922,3.3399999999999728
0.1462857723236084,-1.3332462310791016,1.03935968875885,3.3499999999999726
0.8532211780548096,-1.0639352798461914,1.0280801057815552,3.3599999999999723
1.2261457443237305,-0.5822868347167969,1.145439624786377,3.369999999999972
1.3277075290679932,-0.19836139678955078,1.249032735824585,3.379999999999972
1.177119255065918,0.019577980041503906,1.2086541652679443,3.3899999999999717
0.9521646499633789,0.36776161193847656,1.163335919380188,3.3999999999999715
1.1915453672409058,0.7823886871337891,1.0402328968048096,3.4099999999999713
1.5275508165359497,1.1429996490478516,0.7745474576950073,3.419999999999971
1.9323883056640625,1.410177230834961,0.5558781027793884,3.429999999999971
2.4778661727905273,1.4912109375,0.11082172393798828,3.4399999999999706
2.9863734245300293,1.3314285278320312,-0.04439342021942139,3.4499999999999704
3.6029415130615234,1.0265283584594727,2.809762954711914E-4,3.45999999999997
4.14061164855957,0.8431921005249023,0.3694635033607483,3.46999999999997
4.437446117401123,1.0424728393554688,0.9869608879089355,3.47999999999997
4.107368469238281,1.8809194564819336,1.3253436088562012,3.4899999999999696
3.5402560234069824,3.4630537033081055,0.9810930490493774,3.4999999999999694
3.0228819847106934,4.653084754943848,0.3881574869155884,3.509999999999969
2.653238296508789,5.114593505859375,-0.2723839282989502,3.519999999999969
2.63395619392395,4.2663774490356445,-0.5347665548324585,3.5299999999999687
2.7180604934692383,2.5757837295532227,-0.5094244480133057,3.5399999999999685
2.3379735946655273,0.934901237487793,-0.4668081998825073,3.5499999999999683
1.8843283653259277,-0.6211767196655273,-0.36085647344589233,3.559999999999968
1.3740556240081787,-1.5602455139160156,-0.4114149808883667,3.569999999999968
0.713280200958252,-2.1834630966186523,-0.6049292683601379,3.5799999999999677
0.057871341705322266,-2.464130401611328,-0.7727798223495483,3.5899999999999674
-0.5438152551651001,-2.198272228240967,-0.4182620942592621,3.5999999999999672
-1.169291377067566,-1.5101442337036133,0.2146897315979004,3.609999999999967
-1.885265827178955,-0.9435319900512695,0.8062881231307983,3.619999999999967
-1.901547908782959,-0.9265785217285156,0.5490803718566895,3.6299999999999666
-2.2942423820495605,-0.2948875427246094,1.0015990734100342,3.6399999999999664
-2.0698599815368652,0.44805145263671875,0.7070862054824829,3.649999999999966
-1.6407735347747803,1.63507080078125,-0.07966136932373047,3.659999999999966
-1.196829915046692,3.012173652648926,-1.717434048652649,3.6699999999999657
-0.7175735235214233,4.193659782409668,-3.399141311645508,3.6799999999999655
-0.7080471515655518,4.298311233520508,-3.0113656520843506,3.6899999999999653
-0.9069254398345947,3.9280853271484375,-2.3734796047210693,3.699999999999965
-1.093812108039856,3.5029258728027344,-1.9711599349975586,3.709999999999965
-0.9916641712188721,3.0762853622436523,-1.760489583015442,3.7199999999999647
-0.6619890928268433,2.497293472290039,-1.336205244064331,3.7299999999999645
-0.1644001007080078,1.4250154495239258,-0.5889220237731934,3.7399999999999642
0.19546294212341309,0.20708179473876953,-0.2607088088989258,3.749999999999964
0.2839665412902832,-1.094712257385254,-0.18799853324890137,3.759999999999964
0.1027979850769043,-1.9493298530578613,-0.3951430320739746,3.7699999999999636
-0.0917510986328125,-2.3413405418395996,-0.5850300788879395,3.7799999999999634
-0.2611973285675049,-2.515617847442627,-0.7184431552886963,3.789999999999963
-0.7645872831344604,-2.512544631958008,-0.744225263595581,3.799999999999963
-1.1583313941955566,-2.3271217346191406,-0.8131489753723145,3.8099999999999627
-1.4525237083435059,-2.1165008544921875,-1.0561766624450684,3.8199999999999625
-1.8174328804016113,-1.9697928428649902,-1.4069294929504395,3.8299999999999623
-2.1865181922912598,-1.8814969062805176,-1.6427793502807617,3.839999999999962
-2.4831669330596924,-1.9730639457702637,-1.9038293361663818,3.849999999999962
-2.7883872985839844,-2.4742379188537598,-2.1232807636260986,3.8599999999999617
-2.7608816623687744,-2.4635815620422363,-2.158207654953003,3.8699999999999615
-3.382512092590332,-3.0860095024108887,-1.8130805492401123,3.8799999999999613
-3.483189582824707,-3.309663772583008,-1.458740234375,3.889999999999961
-3.303818941116333,-3.651628017425537,-0.9652729034423828,3.899999999999961
-2.977674961090088,-4.000214099884033,-0.39116334915161133,3.9099999999999606
-2.539313793182373,-4.328638553619385,0.2804679870605469,3.9199999999999604
-2.1602423191070557,-4.453694820404053,0.7640600204467773,3.92999999999996
-1.7703490257263184,-4.360404968261719,1.289588451385498,3.93999999999996
-1.4641735553741455,-3.902611255645752,1.8953113555908203,3.9499999999999598
-0.875889778137207,-2.883021831512451,2.6974141597747803,3.9599999999999596
-0.06653773784637451,-0.6419172286987305,3.4819083213806152,3.9699999999999593
0.8913379907608032,3.0977697372436523,3.2461721897125244,3.979999999999959
1.6939952373504639,6.087798118591309,2.485651969909668,3.989999999999959
2.8846652507781982,8.284337997436523,1.8275370597839355,3.9999999999999587
4.505906105041504,8.188942909240723,1.8888540267944336,4.009999999999959
6.356575965881348,5.889695167541504,3.978982448577881,4.019999999999959
7.063169002532959,2.1129465103149414,6.094318389892578,4.0299999999999585
4.743574142456055,-1.2375435829162598,6.640161991119385,4.039999999999958
2.359518051147461,-1.4488410949707031,5.88861083984375,4.049999999999958
0.7474596500396729,-0.20134925842285156,2.9460716247558594,4.059999999999958
0.6563131809234619,-0.17003154754638672,2.941542148590088,4.069999999999958
-0.4055511951446533,-0.15766048431396484,-3.819115161895752,4.079999999999957
-1.4843205213546753,-0.00135040283203125,-5.586827278137207,4.089999999999957
-3.12111234664917,1.8307037353515625,-11.59486198425293,4.099999999999957
-5.436407566070557,2.4699792861938477,-11.12633228302002,4.109999999999957
-7.609587669372559,1.9394502639770508,-5.18842887878418,4.119999999999957
-8.058956146240234,1.7757749557495117,-0.552922248840332,4.129999999999956
-7.186558723449707,1.3279199600219727,2.176816701889038,4.139999999999956
-5.235735893249512,0.5468206405639648,2.7288594245910645,4.149999999999956
-3.5525925159454346,-0.2154407501220703,1.069843053817749,4.159999999999956
-3.5456738471984863,-0.24717330932617188,1.1625592708587646,4.1699999999999555
-1.583659291267395,-1.0558509826660156,-2.0081048011779785,4.179999999999955
-0.664595901966095,-1.1046829223632812,-2.9708502292633057,4.189999999999955
-0.03203237056732178,-0.3170194625854492,-3.950601100921631,4.199999999999955
0.7687493562698364,1.0654058456420898,-5.220719814300537,4.209999999999955
1.6340341567993164,1.55499267578125,-4.280628204345703,4.2199999999999545
1.941946029663086,1.0832128524780273,-2.907601833343506,4.229999999999954
1.7800953388214111,1.1103172302246094,-2.8191075325012207,4.239999999999954
1.9684884548187256,0.41629600524902344,-1.6909399032592773,4.249999999999954
2.0804922580718994,-0.24528789520263672,-1.4115198850631714,4.259999999999954
1.9539451599121094,-0.6345882415771484,-0.8436814546585083,4.269999999999953
1.5184416770935059,-1.041518211364746,0.1781315803527832,4.279999999999953
1.1779413223266602,-1.314910888671875,0.6278328895568848,4.289999999999953
0.6777923107147217,-1.3996052742004395,0.40353333950042725,4.299999999999953
0.2792792320251465,-1.459700584411621,0.04581540822982788,4.3099999999999525
0.31371068954467773,-1.4802894592285156,0.151661217212677,4.319999999999952
0.005155086517333984,-1.4915928840637207,-1.0056970119476318,4.329999999999952
-0.027814388275146484,-1.4506826400756836,-1.3641209602355957,4.339999999999952
-0.025516986846923828,-1.0887451171875,-1.4666569232940674,4.349999999999952
-0.08724021911621094,-0.7460527420043945,-1.3452177047729492,4.3599999999999515
-0.2326970100402832,-0.7485799789428711,-1.029396414756775,4.369999999999951
-0.5674397945404053,-0.8519020080566406,-0.47470909357070923,4.379999999999951
-0.8055671453475952,-0.9602823257446289,0.0866035670042038,4.389999999999951
-0.9446309804916382,-1.1020164489746094,0.6714504361152649,4.399999999999951
-0.7686448097229004,-1.2197895050048828,1.0311733484268188,4.40999999999995
-0.4427762031555176,-1.1465263366699219,1.406280755996704,4.41999999999995
0.0030112266540527344,-1.106156349182129,1.6609970331192017,4.42999999999995
0.34771013259887695,-0.9221220016479492,1.5845321416854858,4.43999999999995
0.6448357105255127,-0.6952781677246094,1.3554919958114624,4.4499999999999496
0.7325654029846191,-0.5259895324707031,0.9307892322540283,4.459999999999949
0.7601559162139893,-0.349822998046875,0.7249140739440918,4.469999999999949
0.8680052757263184,-0.05710601806640625,0.5629917979240417,4.479999999999949
1.0176537036895752,0.3300333023071289,0.6008866429328918,4.489999999999949
1.0921604633331299,0.3251934051513672,0.699449360370636,4.4999999999999485
1.660503625869751,1.274374008178711,0.8071257472038269,4.509999999999948
2.0339584350585938,1.4234437942504883,0.7806601524353027,4.519999999999948
2.0912013053894043,1.4180145263671875,0.8243800401687622,4.529999999999948
2.742997646331787,1.0001459121704102,0.9661445021629333,4.539999999999948
3.2769227027893066,0.5979118347167969,1.2046525478363037,4.549999999999947
3.732201337814331,0.41402721405029297,1.4768857955932617,4.559999999999947
3.9949378967285156,0.8022804260253906,1.6231184005737305,4.569999999999947
3.9606194496154785,1.922311782836914,1.3051306009292603,4.579999999999947
3.861051559448242,3.064976692199707,0.7565720677375793,4.589999999999947
3.9044923782348633,4.101860046386719,0.02099299430847168,4.599999999999946
4.06816291809082,4.297632217407227,-0.6444942951202393,4.609999999999946
4.1995391845703125,3.5941286087036133,-0.959209680557251,4.619999999999946
4.212421417236328,2.3358869552612305,-0.8480757474899292,4.629999999999946
3.4076900482177734,0.8416585922241211,-0.5525676012039185,4.6399999999999455
1.9686484336853027,-0.26044368743896484,-0.638476550579071,4.649999999999945
0.6780993938446045,-1.0327386856079102,-0.6447664499282837,4.659999999999945
-0.28158068656921387,-1.1381711959838867,-0.2893340289592743,4.669999999999945
-1.0626671314239502,-0.9194393157958984,0.2777474820613861,4.679999999999945
-1.5900208950042725,-0.40343189239501953,0.8002846240997314,4.689999999999944
-1.965848445892334,0.11391544342041016,1.1974226236343384,4.699999999999944
-1.9124958515167236,0.4555206298828125,1.3051035404205322,4.709999999999944
-1.6634385585784912,1.1067094802856445,1.1404376029968262,4.719999999999944
-1.3206762075424194,2.3850526809692383,0.5623084306716919,4.729999999999944
-1.1623889207839966,3.895991325378418,-1.4143908023834229,4.739999999999943
-0.8833458423614502,5.04926872253418,-3.64628267288208,4.749999999999943
-1.0120000839233398,5.051028251647949,-3.8399171829223633,4.759999999999943
-1.4965652227401733,4.22049617767334,-3.4840588569641113,4.769999999999943
-1.97786283493042,2.9088687896728516,-3.0146846771240234,4.7799999999999425
-2.1862921714782715,1.7116889953613281,-2.6369166374206543,4.789999999999942
-2.0088436603546143,0.6826448440551758,-2.0483343601226807,4.799999999999942
-1.6451561450958252,-0.24878311157226562,-1.3395905494689941,4.809999999999942
-1.285082459449768,-1.137052059173584,-0.7247766256332397,4.819999999999942
-1.1389985084533691,-1.7280850410461426,-0.6532604694366455,4.8299999999999415
-1.028301477432251,-2.2292914390563965,-0.5665898323059082,4.839999999999941
-1.0440109968185425,-2.5947976112365723,-0.5609400272369385,4.849999999999941
-1.1168943643569946,-2.6960434913635254,-0.4755878448486328,4.859999999999941
-1.2336465120315552,-2.6632633209228516,-0.3186678886413574,4.869999999999941
-1.391563057899475,-2.490035057067871,-0.2992675304412842,4.87999999999994
-1.5938977003097534,-2.2732858657836914,-0.38022613525390625,4.88999999999994
-1.8993967771530151,-2.171973705291748,-0.5030601024627686,4.89999999999994
-2.1115169525146484,-2.26336669921875,-0.5828604698181152,4.90999999999994
-2.247809410095215,-2.4994664192199707,-0.47089505195617676,4.9199999999999395
-2.389214277267456,-2.8593902587890625,-0.40038156509399414,4.929999999999939
-2.4729208946228027,-3.256021499633789,-0.6612205505371094,4.939999999999939
-2.519113779067993,-3.503793716430664,-0.8701200485229492,4.949999999999939
-2.5836474895477295,-3.7943520545959473,-0.9524164199829102,4.959999999999939
-2.695371389389038,-3.9972739219665527,-0.807042121887207,4.9699999999999385
-2.7355899810791016,-4.133306503295898,-0.4872264862060547,4.979999999999938
-2.733046293258667,-4.204604148864746,-0.1181178092956543,4.989999999999938
-2.4988443851470947,-4.069494724273682,0.33559489250183105,4.999999999999938
-2.106736421585083,-3.7740163803100586,0.6247212886810303,5.009999999999938
-1.551405429840088,-3.0516934394836426,1.1113145351409912,5.019999999999937
-1.0784223079681396,-1.6883440017700195,1.6638076305389404,5.029999999999937
-0.6529521942138672,0.42644596099853516,2.291870355606079,5.039999999999937
-0.2148752212524414,3.0899581909179688,2.8458364009857178,5.049999999999937
0.7607266902923584,6.250334739685059,3.331876039505005,5.0599999999999365
2.1185660362243652,7.833352088928223,4.4870710372924805,5.069999999999936
3.8960723876953125,6.986513137817383,5.582582950592041,5.079999999999936
5.194544792175293,4.433835029602051,5.938927173614502,5.089999999999936
5.6846466064453125,1.7017183303833008,7.017785549163818,5.099999999999936
5.198049545288086,0.13223838806152344,7.961140155792236,5.1099999999999355
4.004403591156006,0.9609012603759766,6.823904037475586,5.119999999999935
2.8011741638183594,2.551558494567871,3.9065468311309814,5.129999999999935
0.9349701404571533,1.9653739929199219,-1.066648244857788,5.139999999999935
-0.6204514503479004,0.6730365753173828,-4.465389728546143,5.149999999999935
-2.216250419616699,0.4904518127441406,-5.716943740844727,5.159999999999934
-3.3682987689971924,2.7057790756225586,-13.992393493652344,5.169999999999934
-5.16473388671875,1.7063961029052734,-14.249664306640625,5.179999999999934
-6.613311767578125,-0.4707469940185547,-8.219780921936035,5.189999999999934
-7.136007308959961,-1.512427806854248,-2.6275699138641357,5.199999999999934
-6.959139823913574,-1.5876998901367188,0.3839986324310303,5.209999999999933
-6.653117656707764,-1.6035528182983398,0.18073344230651855,5.219999999999933
-5.293560028076172,-1.308823585510254,2.350224018096924,5.229999999999933
-3.749457359313965,-0.4345579147338867,0.8613874912261963,5.239999999999933
-3.1017801761627197,0.25804996490478516,-0.3376290798187256,5.2499999999999325
-2.463909149169922,0.6525917053222656,-1.3871943950653076,5.259999999999932
-1.661965250968933,1.2857990264892578,-1.9777717590332031,5.269999999999932
-0.6243302822113037,1.9526405334472656,-3.120339870452881,5.279999999999932
0.3548746109008789,2.11214542388916,-2.9139602184295654,5.289999999999932
0.9887783527374268,1.6632795333862305,-1.7705600261688232,5.299999999999931
1.055030107498169,1.1306953430175781,-1.4156428575515747,5.309999999999931
1.0283331871032715,0.6996850967407227,-1.5123789310455322,5.319999999999931
1.2268991470336914,0.13754940032958984,-1.8523050546646118,5.329999999999931
1.3369216918945312,-0.49242401123046875,-2.041654109954834,5.339999999999931
1.264960765838623,-1.2546148300170898,-1.9930304288864136,5.34999999999993
0.9747629165649414,-1.7053213119506836,-2.033661127090454,5.35999999999993
0.5113170146942139,-1.6350507736206055,-1.8650883436203003,5.36999999999993
-0.04915022850036621,-1.377619743347168,-1.5721056461334229,5.37999999999993
-0.41460227966308594,-1.2699689865112305,-1.3294572830200195,5.3899999999999295
-0.513638973236084,-1.067072868347168,-1.0574955940246582,5.399999999999929
-0.3516707420349121,-0.8181066513061523,-0.9568003416061401,5.409999999999929
0.06071043014526367,-0.8200302124023438,-0.8149653673171997,5.419999999999929
0.5092155933380127,-1.2095613479614258,-0.6322714686393738,5.429999999999929
0.939622163772583,-1.8238186836242676,-0.23556728661060333,5.4399999999999284
1.2891600131988525,-2.0670557022094727,0.09909903258085251,5.449999999999928
1.3904669284820557,-1.816545009613037,0.4124119281768799,5.459999999999928
1.1750400066375732,-1.4454889297485352,0.7342296838760376,5.469999999999928
0.7155125141143799,-1.2779827117919922,1.105528473854065,5.479999999999928
0.46973466873168945,-0.9946346282958984,1.3432831764221191,5.489999999999927
0.3215932846069336,-0.8243942260742188,1.4472014904022217,5.499999999999927
0.27893495559692383,-0.6348028182983398,1.481986403465271,5.509999999999927
0.2785327434539795,-0.44957542419433594,1.5079230070114136,5.519999999999927
0.3357067108154297,-0.3339853286743164,1.642727255821228,5.5299999999999265
0.5863728523254395,-0.2556495666503906,1.807582974433899,5.539999999999926
0.8710293769836426,-0.1750049591064453,1.9368005990982056,5.549999999999926
1.112851858139038,-0.06505203247070312,2.0243325233459473,5.559999999999926
1.3457043170928955,-0.05937671661376953,1.8985424041748047,5.569999999999926
1.6043763160705566,0.03365612030029297,1.5612999200820923,5.5799999999999255
1.9863569736480713,0.25207042694091797,1.0893487930297852,5.589999999999925
2.3221890926361084,0.748906135559082,0.6377660036087036,5.599999999999925
2.6523218154907227,1.1027002334594727,0.510478138923645,5.609999999999925
3.0784335136413574,1.4428348541259766,0.6066684126853943,5.619999999999925
3.509336471557617,1.706742286682129,0.9613063335418701,5.629999999999924
3.4899959564208984,1.8595075607299805,1.4194011688232422,5.639999999999924
3.092407703399658,2.0211992263793945,1.7860865592956543,5.649999999999924
2.700037717819214,2.817845344543457,2.0449318885803223,5.659999999999924
2.568330764770508,3.828409194946289,1.7526252269744873,5.6699999999999235
2.4622983932495117,4.703413009643555,0.9440190196037292,5.679999999999923
2.538694143295288,4.670461654663086,-0.04742467403411865,5.689999999999923
2.662032127380371,3.710041046142578,-0.6189851760864258,5.699999999999923
2.6138885021209717,3.706639289855957,-0.7422818541526794,5.709999999999923
2.258223295211792,-0.1678028106689453,-0.654191255569458,5.7199999999999225
1.4887523651123047,-1.3022184371948242,-0.6702032089233398,5.729999999999922
0.41649937629699707,-2.2757840156555176,-0.5934642553329468,5.739999999999922
-0.3970756530761719,-2.763462543487549,-0.22124123573303223,5.749999999999922
-1.0667519569396973,-2.6311726570129395,0.2549765706062317,5.759999999999922
-1.527070164680481,-1.8896455764770508,0.7049638032913208,5.769999999999921
-1.8380125761032104,-1.2000226974487305,0.793979823589325,5.779999999999921
-1.7341647148132324,-0.6726465225219727,0.7800323367118835,5.789999999999921
-1.5428739786148071,0.22889995574951172,0.6815402507781982,5.799999999999921
-1.1211010217666626,1.5625524520874023,0.2031693458557129,5.809999999999921
-0.5126082897186279,3.3037033081054688,-0.9022542238235474,5.81999999999992
-0.13964390754699707,5.276885986328125,-3.373929500579834,5.82999999999992
0.007213115692138672,6.205695152282715,-4.322843551635742,5.83999999999992
-0.1777818202972412,5.595358848571777,-3.579690933227539,5.84999999999992
-0.6903707981109619,4.085587501525879,-2.6702775955200195,5.8599999999999195
-1.0675290822982788,2.386537551879883,-1.981483817100525,5.869999999999919
-1.1092479228973389,0.8684730529785156,-1.4406025409698486,5.879999999999919
-0.8602942228317261,-0.32686710357666016,-0.7455217838287354,5.889999999999919
-0.43093156814575195,-1.1880335807800293,0.010268449783325195,5.899999999999919
-0.19090747833251953,-1.6533470153808594,0.43622803688049316,5.909999999999918
-0.1918184757232666,-2.073352813720703,0.685248613357544,5.919999999999918
-0.49542832374572754,-2.316868782043457,0.7274136543273926,5.929999999999918
-0.9301551580429077,-2.2228384017944336,0.3222336769104004,5.939999999999918
-1.414048433303833,-2.051828384399414,-0.22009515762329102,5.949999999999918
-1.9321949481964111,-2.0399279594421387,-0.8196790218353271,5.959999999999917
-2.3022682666778564,-2.148861885070801,-1.183286428451538,5.969999999999917
-2.5472164154052734,-2.299715995788574,-1.5059936046600342,5.979999999999917
-2.738804578781128,-2.5047264099121094,-1.815340518951416,5.989999999999917
-2.9335923194885254,-2.646742343902588,-2.0338072776794434,5.9999999999999165
-3.0853235721588135,-2.6649837493896484,-2.177335023880005,6.009999999999916
-3.2027182579040527,-2.824695587158203,-2.140165328979492,6.019999999999916
-3.2949986457824707,-3.015261173248291,-1.942833662033081,6.029999999999916
-3.2644200325012207,-3.189009189605713,-1.5536301136016846,6.039999999999916
-3.0408711433410645,-3.4966182708740234,-0.7946298122406006,6.0499999999999154
-2.695443630218506,-3.727578639984131,0.012349128723144531,6.059999999999915
-2.3226640224456787,-3.82142972946167,0.7353153228759766,6.069999999999915
-1.8728559017181396,-3.8490076065063477,1.4618797302246094,6.079999999999915
-1.5468645095825195,-3.8130154609680176,1.9351768493652344,6.089999999999915
-1.1683647632598877,-3.497921943664551,2.4554309844970703,6.099999999999914
-0.6807873249053955,-2.495494842529297,3.067316770553589,6.109999999999914
-0.0035920143127441406,0.17228317260742188,3.5699007511138916,6.119999999999914
0.7466697692871094,3.4807252883911133,3.571481466293335,6.129999999999914
1.647737741470337,7.150670051574707,3.273254156112671,6.1399999999999135
2.822770357131958,8.988436698913574,3.3409814834594727,6.149999999999913
4.828189849853516,8.867486000061035,3.5656917095184326,6.159999999999913
6.517029762268066,7.174444198608398,4.547237396240234,6.169999999999913
6.490525245666504,3.695673942565918,5.54367733001709,6.179999999999913
4.377001762390137,0.6705360412597656,6.16255521774292,6.1899999999999125
2.3035309314727783,0.33695316314697266,5.020191192626953,6.199999999999912
1.2264173030853271,0.9083366394042969,2.664093494415283,6.209999999999912
-0.12495732307434082,1.1599864959716797,-0.36217641830444336,6.219999999999912
-0.16184210777282715,1.1289005279541016,-0.24555420875549316,6.229999999999912
-2.0298399925231934,-0.2501945495605469,-5.472222328186035,6.239999999999911
-3.030078172683716,-0.49507999420166016,-6.934206008911133,6.249999999999911
-4.6220316886901855,-1.1256437301635742,-7.346214771270752,6.259999999999911
-5.5366010665893555,-2.041079521179199,-5.3744707107543945,6.269999999999911
-6.2581095695495605,-2.5774998664855957,-2.7156121730804443,6.2799999999999105
-6.383301734924316,-2.440152168273926,-0.24063801765441895,6.28999999999991
-5.623764991760254,-1.947422981262207,1.0245976448059082,6.29999999999991
-4.2213850021362305,-0.7866334915161133,1.0216302871704102,6.30999999999991
-3.0867857933044434,0.6707515716552734,0.025973796844482422,6.31999999999991
-2.068286657333374,1.484518051147461,-1.1950037479400635,6.3299999999999095
-0.9679582118988037,1.649658203125,-2.4364070892333984,6.339999999999909
-0.1168515682220459,2.188706398010254,-3.6822423934936523,6.349999999999909
1.059683084487915,3.1071767807006836,-5.522390365600586,6.359999999999909
2.352628469467163,2.720508575439453,-5.448564529418945,6.369999999999909
2.719048261642456,1.4270458221435547,-3.5092310905456543,6.379999999999908
2.4026975631713867,0.6683282852172852,-2.542102098464966,6.389999999999908
1.6671638488769531,0.29077625274658203,-2.142894983291626,6.399999999999908
1.6557250022888184,0.28627586364746094,-2.084157943725586,6.409999999999908
-0.12432599067687988,-0.05273723602294922,-1.524963140487671,6.419999999999908
-0.9319446086883545,-0.4266328811645508,-0.4226939082145691,6.429999999999907
-1.3255113363265991,-1.017416000366211,0.7321476936340332,6.439999999999907
-1.031099796295166,-1.2958850860595703,1.2019400596618652,6.449999999999907
-0.26438331604003906,-1.3383417129516602,0.7948146462440491,6.459999999999907
0.19465351104736328,-1.3020572662353516,-0.1231689453125,6.4699999999999065
0.6055161952972412,-1.2318048477172852,-1.05525541305542,6.479999999999906
0.7321100234985352,-1.2191343307495117,-1.878296136856079,6.489999999999906
0.7359182834625244,-1.3359613418579102,-2.401078939437866,6.499999999999906
0.7186071872711182,-1.5188889503479004,-2.3988468647003174,6.509999999999906
0.7764999866485596,-1.7190618515014648,-2.0104095935821533,6.519999999999905
0.8481388092041016,-1.7472381591796875,-1.4185900688171387,6.529999999999905
0.670041561126709,-1.4752197265625,-0.6485744714736938,6.539999999999905
0.36591124534606934,-0.9238319396972656,0.1849871426820755,6.549999999999905
0.09988713264465332,-0.5058069229125977,1.0085506439208984,6.559999999999905
-0.007050275802612305,-0.41016197204589844,1.5254878997802734,6.569999999999904
0.004160642623901367,-0.2790069580078125,1.9354721307754517,6.579999999999904
0.13750100135803223,-0.1042490005493164,2.196389675140381,6.589999999999904
0.3833186626434326,-0.02481555938720703,2.4653398990631104,6.599999999999904
0.6361336708068848,0.0664358139038086,2.6157898902893066,6.6099999999999035
0.6920080184936523,0.07069015502929688,2.2334938049316406,6.619999999999903
0.6494162082672119,0.07947635650634766,1.7031210660934448,6.629999999999903
0.8140689134597778,0.01961231231689453,1.1107385158538818,6.639999999999903
1.3009635210037231,0.006665229797363281,0.5562498569488525,6.649999999999903
1.8183178901672363,0.0211639404296875,0.15869629383087158,6.659999999999902
2.353513240814209,0.01710796356201172,-0.0192948579788208,6.669999999999902
2.8769469261169434,-0.08917045593261719,0.08210134506225586,6.679999999999902
3.3872785568237305,-0.3117961883544922,0.25853705406188965,6.689999999999902
3.868170738220215,-0.4516153335571289,0.506556510925293,6.699999999999902
4.2905755043029785,-0.5664262771606445,0.7748630046844482,6.709999999999901
4.663303852081299,-0.33606910705566406,1.1598247289657593,6.719999999999901
4.90949821472168,0.5330657958984375,1.4187246561050415,6.729999999999901
4.549758434295654,2.001166343688965,1.1034047603607178,6.739999999999901
3.859924793243408,3.3248682022094727,0.6192230582237244,6.7499999999999005
3.1402111053466797,4.487079620361328,0.14907240867614746,6.7599999999999
2.525826930999756,4.899898529052734,-0.27450037002563477,6.7699999999999
1.859213948249817,4.641005516052246,-0.6791914701461792,6.7799999999999
1.7634496688842773,3.3637962341308594,-0.6697810888290405,6.7899999999999
1.3350529670715332,0.8309726715087891,-0.2955971956253052,6.7999999999998995
0.6897549629211426,-0.7955083847045898,-0.443428635597229,6.809999999999899
-0.09395015239715576,-2.039386749267578,-0.6121392846107483,6.819999999999899
-0.6597030162811279,-2.2758569717407227,-0.3939357399940491,6.829999999999899
-0.9942717552185059,-1.7585597038269043,0.24131138622760773,6.839999999999899
-1.232358694076538,-0.948486328125,0.7196018099784851,6.849999999999898
-1.5174444913864136,-0.23581409454345703,0.8143032789230347,6.859999999999898
-1.5815988779067993,0.2540473937988281,0.6884636878967285,6.869999999999898
-1.5228488445281982,0.9659929275512695,0.6271981596946716,6.879999999999898
-1.328256368637085,1.9232444763183594,0.3342713713645935,6.8899999999998975
-1.0404305458068848,3.1621932983398438,-0.38978731632232666,6.899999999999897
-0.9226639270782471,4.309152603149414,-1.894470453262329,6.909999999999897
-0.9876062870025635,4.911358833312988,-3.509420394897461,6.919999999999897
-1.1832830905914307,4.413139343261719,-3.427781105041504,6.929999999999897
-1.6302142143249512,3.340383529663086,-2.835186004638672,6.9399999999998965
-1.9277806282043457,2.3899145126342773,-2.2540953159332275,6.949999999999896
-1.9013073444366455,1.6603813171386719,-1.528252124786377,6.959999999999896
-1.5150423049926758,1.1502571105957031,-0.6795183420181274,6.969999999999896
-0.8469587564468384,0.3654947280883789,0.2690553665161133,6.979999999999896
-0.5627108812332153,-0.3169059753417969,0.39340972900390625,6.989999999999895
-0.5957132577896118,-1.1415424346923828,0.27227234840393066,6.999999999999895
-0.7173870801925659,-1.796236515045166,0.11725258827209473,7.009999999999895
-0.9365204572677612,-2.20682430267334,-0.28705549240112305,7.019999999999895
-1.2206653356552124,-2.452052116394043,-0.6927707195281982,7.0299999999998946
-1.4547322988510132,-2.651679039001465,-1.058929443359375,7.039999999999894
-1.5910604000091553,-2.68070650100708,-1.2107822895050049,7.049999999999894
-1.7656596899032593,-2.6683053970336914,-1.2750608921051025,7.059999999999894
-1.8131269216537476,-2.673708438873291,-1.006206750869751,7.069999999999894
-1.848686695098877,-2.6776328086853027,-0.7627875804901123,7.0799999999998935
-1.9602872133255005,-2.6027684211730957,-0.5804226398468018,7.089999999999893
-2.086923122406006,-2.6496262550354004,-0.42452049255371094,7.099999999999893
-2.1791932582855225,-2.791386604309082,-0.48321032524108887,7.109999999999893
-2.249624252319336,-2.9907755851745605,-0.6887118816375732,7.119999999999893
-2.2990410327911377,-3.26185941696167,-0.8867349624633789,7.129999999999892
-2.4126598834991455,-3.534167766571045,-1.008713722229004,7.139999999999892
-2.5597331523895264,-3.8215293884277344,-0.8619632720947266,7.149999999999892
-2.491358518600464,-4.0300984382629395,-0.4654245376586914,7.159999999999892
-2.215238094329834,-4.224069595336914,0.02125382423400879,7.169999999999892
-1.717033863067627,-4.181975841522217,0.550670862197876,7.179999999999891
-1.2071877717971802,-3.5016093254089355,1.141124963760376,7.189999999999891
-0.7416262626647949,-2.237184524536133,1.8879177570343018,7.199999999999891
-0.08026838302612305,-0.23369407653808594,3.131577968597412,7.209999999999891
0.743300199508667,2.9679737091064453,4.611916542053223,7.2199999999998905
1.5111844539642334,5.881653785705566,4.689128875732422,7.22999999999989
2.6481528282165527,8.607589721679688,3.94046688079834,7.23999999999989
4.229665756225586,8.752846717834473,3.5690226554870605,7.24999999999989
5.579493522644043,6.757451057434082,4.73652458190918,7.25999999999989
5.6121416091918945,2.8009090423583984,5.8606390953063965,7.269999999999889
3.224350929260254,-1.687950611114502,5.888882637023926,7.279999999999889
1.4847979545593262,-3.234361171722412,5.395449638366699,7.289999999999889
0.5032827854156494,-2.8820114135742188,2.968848705291748,7.299999999999889
0.1494617462158203,-1.2359447479248047,-0.0424952507019043,7.309999999999889
0.14386987686157227,-0.7054052352905273,-2.688535690307617,7.319999999999888
-0.34912967681884766,0.3880796432495117,-3.4198825359344482,7.329999999999888
-1.6960086822509766,2.9871606826782227,-13.767318725585938,7.339999999999888
-3.8051860332489014,6.1969146728515625,-16.617820739746094,7.349999999999888
-7.104950904846191,4.852903366088867,-7.1005940437316895,7.3599999999998875
-8.119316101074219,3.9520912170410156,-1.9375284910202026,7.369999999999887
-7.497898101806641,2.346829414367676,-0.23072504997253418,7.379999999999887
-6.153252601623535,0.35100364685058594,0.9259493350982666,7.389999999999887
-4.484766483306885,-1.181035041809082,1.1673622131347656,7.399999999999887
-3.3225998878479004,-1.4142365455627441,0.19848966598510742,7.4099999999998865
-2.2024569511413574,-1.1203317642211914,-1.1567689180374146,7.419999999999886
-1.393174409866333,-0.6235990524291992,-2.3958024978637695,7.429999999999886
-0.8075816631317139,0.008624076843261719,-3.155076265335083,7.439999999999886
-0.5003721714019775,1.0818843841552734,-4.5744948387146,7.449999999999886
0.6131541728973389,2.00457763671875,-5.9880523681640625,7.459999999999885
1.9573800563812256,1.6863479614257812,-4.594519138336182,7.469999999999885
2.8116226196289062,0.9712018966674805,-2.658144950866699,7.479999999999885
2.7570395469665527,0.3837242126464844,-1.7538032531738281,7.489999999999885
1.9712958335876465,-0.3269672393798828,-1.325002908706665,7.4999999999998845
1.0608458518981934,-1.1096477508544922,-0.8347269296646118,7.509999999999884
0.04971051216125488,-1.7139568328857422,-0.3007030487060547,7.519999999999884
-0.6067173480987549,-1.8805904388427734,-0.10621702671051025,7.529999999999884
-0.9770892858505249,-1.8161182403564453,-0.28180551528930664,7.539999999999884
-0.807957649230957,-1.6977291107177734,-0.5483325719833374,7.5499999999998835
-0.4518778324127197,-1.5745034217834473,-0.7115667462348938,7.559999999999883
0.00974130630493164,-1.1792659759521484,-0.9361724853515625,7.569999999999883
0.36980295181274414,-0.4094257354736328,-1.159913182258606,7.579999999999883
0.5267415046691895,0.14692974090576172,-1.234504222869873,7.589999999999883
0.6428852081298828,0.47181129455566406,-1.312386155128479,7.599999999999882
0.8625681400299072,0.42839527130126953,-1.3890485763549805,7.609999999999882
1.0519704818725586,-0.021256446838378906,-1.1983376741409302,7.619999999999882
1.0941643714904785,-0.5517854690551758,-0.8127356171607971,7.629999999999882
0.9568126201629639,-0.9865226745605469,-0.1375967562198639,7.6399999999998816
0.7979526519775391,-1.2992916107177734,0.44863611459732056,7.649999999999881
0.5955386161804199,-1.6047849655151367,0.9661971926689148,7.659999999999881
0.40952372550964355,-1.761545181274414,1.4657611846923828,7.669999999999881
0.14319610595703125,-1.757758617401123,1.9010003805160522,7.679999999999881
-0.004972934722900391,-1.3114385604858398,2.265038013458252,7.6899999999998805
-0.15118408203125,-0.6480178833007812,2.471606969833374,7.69999999999988
-0.09729266166687012,-0.33020973205566406,2.546983242034912,7.70999999999988
0.14837002754211426,-0.046525001525878906,2.3156890869140625,7.71999999999988
0.6056034564971924,0.28240299224853516,1.7060766220092773,7.72999999999988
1.1108312606811523,0.45352649688720703,0.9007267951965332,7.739999999999879
1.616931438446045,0.47031211853027344,0.25197649002075195,7.749999999999879
2.077004909515381,0.09890937805175781,-0.21649140119552612,7.759999999999879
2.5028319358825684,-0.3397397994995117,-0.36463701725006104,7.769999999999879
2.924739122390747,-0.6884956359863281,-0.15006482601165771,7.779999999999879
3.259831666946411,-0.6037769317626953,0.34458333253860474,7.789999999999878
3.442436456680298,-0.1870737075805664,0.9884083271026611,7.799999999999878
3.3668301105499268,0.17083740234375,1.6355605125427246,7.809999999999878
2.721642017364502,0.6444978713989258,2.0477685928344727,7.819999999999878
2.2377209663391113,1.4446525573730469,1.8662928342819214,7.8299999999998775
1.8955185413360596,2.856879234313965,0.984758198261261,7.839999999999877
1.7682838439941406,3.716205596923828,-0.08355242013931274,7.849999999999877
1.7388496398925781,3.9214401245117188,-0.8980064392089844,7.859999999999877
1.6420392990112305,3.4643449783325195,-1.2810624837875366,7.869999999999877
1.4099500179290771,1.9577159881591797,-1.1531779766082764,7.879999999999876
0.8882665634155273,0.6730842590332031,-0.9784201383590698,7.889999999999876
0.15500879287719727,-0.48548316955566406,-0.6999328136444092,7.899999999999876
-0.39019811153411865,-1.1320152282714844,-0.1944970339536667,7.909999999999876
-0.7716869115829468,-1.1316585540771484,0.3737442195415497,7.919999999999876
-1.1186381578445435,-0.8174905776977539,0.7445274591445923,7.929999999999875
-1.1492635011672974,-0.7868204116821289,0.49945616722106934,7.939999999999875
-1.3699198961257935,0.12499713897705078,0.596407413482666,7.949999999999875
-1.3658050298690796,0.9345941543579102,0.10785889625549316,7.959999999999875
-1.3373197317123413,2.102449417114258,-0.48555541038513184,7.9699999999998745
-1.321860671043396,3.452587127685547,-1.450101613998413,7.979999999999874
-1.2609548568725586,4.5271148681640625,-2.689162254333496,7.989999999999874
