AccX,AccY,AccZ,stepCount
-1.5408024787902832,-2.3740196228027344,-1.9092299938201904,-2.9487838745117188
-1.8172190189361572,-2.2555437088012695,-1.7172722816467285,1.6478984355926514
-2.0687520503997803,-1.9481911659240723,-1.466502070426941,-0.8201863765716553
-2.1111092567443848,-1.6362872123718262,-1.2711052894592285,-0.08754998445510864
-1.9991365671157837,-1.4751701354980469,-1.1211779117584229,-0.10715800523757935
-1.741983413696289,-1.3043603897094727,-0.9687490463256836,-0.040193796157836914
-1.502049207687378,-1.1668615341186523,-0.9476187229156494,-0.8825371265411377
-1.2744852304458618,-0.9407176971435547,-0.9043358564376831,2.5964367389678955
-1.102612018585205,-1.0635442733764648,-1.3536248207092285,-0.21629714965820312
-1.1799156665802002,-0.7579174041748047,-1.4429736137390137,-2.7939016819000244
-1.1517513990402222,-0.3950929641723633,-1.4894607067108154,0.2833901643753052
-1.202011227607727,0.13955211639404297,-1.5929670333862305,0
-1.2523237466812134,0.3102073669433594,-1.9764306545257568,0
-1.467727541923523,0.9373006820678711,-1.6992967128753662,0
-1.4266289472579956,1.5252361297607422,-1.4572837352752686,0
-1.2267956733703613,2.1266727447509766,-1.247910976409912,0
-0.8849522471427917,2.5431594848632812,-1.310410976409912,0
-0.7329292297363281,3.1621665954589844,-0.8808777332305908,0
-0.5696515440940857,3.4670305252075195,-0.8021643161773682,0
-0.46953147649765015,3.467738151550293,-1.0790009498596191,0
-0.5875601768493652,3.6045007705688477,-0.921164870262146,0
-0.7562583684921265,3.5400772094726562,-1.1667664051055908,0
-1.1576980352401733,3.423006057739258,-1.2613310813903809,0
-1.7176272869110107,3.2916011810302734,-1.6642601490020752,0
-2.328061580657959,3.191251754760742,-2.267176628112793,0
-3.034637212753296,3.2127552032470703,-2.850048065185547,0
-3.6488418579101562,3.2771482467651367,-3.2609591484069824,0
-4.005494117736816,3.3199453353881836,-3.379002571105957,0
-4.032471179962158,3.3986520767211914,-3.341219186782837,0
-3.8250813484191895,3.3817367553710938,-3.1738429069519043,0
-3.6370849609375,3.2310056686401367,-3.0941834449768066,0
-3.564260244369507,2.9130678176879883,-3.027376174926758,0
-3.1429946422576904,2.5236873626708984,-2.8246703147888184,0
-2.7519595623016357,2.0678510665893555,-2.951087474822998,0
-2.4366698265075684,1.641343116760254,-2.79945707321167,0
-2.1396031379699707,1.248885154724121,-2.202620506286621,0
-2.0697052478790283,0.7445096969604492,-1.4551572799682617,0
-2.1737587451934814,0.3530158996582031,-0.6759567856788635,0
-1.722346305847168,0.5906553268432617,0.4901587963104248,0
-2.0126256942749023,0.6556730270385742,1.0189299583435059,0
-2.4291491508483887,0.5841999053955078,1.3270156383514404,0
-1.9008334875106812,0.8785114288330078,1.6981337070465088,0
-2.4359607696533203,0.8206186294555664,2.2054333686828613,0
-1.7423739433288574,1.113844871520996,2.407550811767578,0
-2.046086311340332,1.0449466705322266,3.0485410690307617,0
-1.5313334465026855,1.0590229034423828,2.9004993438720703,0
-1.1086163520812988,1.0868291854858398,2.6897575855255127,0
-1.287440538406372,1.0281982421875,2.4229297637939453,0
-1.362558126449585,0.8955402374267578,2.619624614715576,0
-1.237734079360962,0.8566007614135742,3.4203784465789795,0
-0.8669567704200745,1.1265850067138672,4.461689472198486,0
-0.08324086666107178,1.454228401184082,5.302145004272461,0
0.9757108688354492,2.2461605072021484,6.123653888702393,0
1.7277607917785645,2.868485450744629,5.804253101348877,0
2.6656575202941895,4.1392107009887695,5.6824493408203125,0
3.401033878326416,4.6396942138671875,5.177253246307373,0
3.8847150802612305,4.930690765380859,3.9487154483795166,0
4.13082218170166,5.46683406829834,3.1546905040740967,0
3.8487846851348877,5.590202331542969,2.3025012016296387,0
3.22607684135437,5.492359161376953,2.077486991882324,0
2.490842819213867,5.4482831954956055,2.383852958679199,0
1.9675874710083008,5.010682106018066,2.533367395401001,0
1.866595983505249,4.749176979064941,2.6536929607391357,0
2.027719020843506,4.513068199157715,2.939256191253662,0
2.041093587875366,4.92391300201416,3.2532501220703125,0
2.246760845184326,4.945569038391113,3.132849931716919,0
2.4728660583496094,4.714837074279785,2.713885545730591,0
2.7561888694763184,4.440024375915527,2.0094094276428223,0
2.993288993835449,3.8893251419067383,1.250186562538147,0
3.2123632431030273,3.2878541946411133,0.3845716714859009,0
3.2712574005126953,2.8221302032470703,-0.1291337013244629,0
3.084529399871826,2.3890933990478516,-0.3176143169403076,0
3.0496225357055664,1.9576902389526367,-0.11568963527679443,0
3.0650150775909424,1.4345684051513672,0.19252467155456543,0
2.762622833251953,1.0777101516723633,0.49510860443115234,0
2.9764962196350098,0.7052211761474609,0.9679670333862305,0
3.394620895385742,0.8003530502319336,2.012112617492676,0
2.797440528869629,-0.03192329406738281,2.010376214981079,0
2.308175563812256,-0.3610219955444336,2.6423141956329346,0
1.3082048892974854,-1.3645553588867188,2.3137290477752686,0
0.7253106832504272,-1.3486108779907227,2.6126132011413574,0
0.2191101312637329,-1.4786748886108398,4.003305912017822,0
-0.7922279834747314,-2.611477851867676,2.9449784755706787,0
-0.9509731531143188,-3.1396265029907227,2.430978536605835,0
-1.7273261547088623,-4.913504123687744,0.48032045364379883,0
-2.205845594406128,-5.672094345092773,0.3748354911804199,0
-2.642075538635254,-6.868338584899902,0.0934607982635498,0
-2.4660115242004395,-7.351266860961914,-0.2907989025115967,0
-1.7705637216567993,-7.0517168045043945,0.1544337272644043,0
-1.4750064611434937,-6.9294819831848145,-0.013102054595947266,0
-1.4630615711212158,-6.97689151763916,0.25649404525756836,0
-1.07931387424469,-6.944671630859375,0.29686856269836426,0
-0.4045165777206421,-6.803613662719727,0.4707012176513672,0
0.5343000888824463,-6.500652313232422,0.5729386806488037,0
0.9565308690071106,-6.274711608886719,0.565807580947876,0
1.1722540855407715,-5.7740020751953125,0.6265952587127686,0
1.3728786706924438,-5.214034557342529,0.6120164394378662,0
1.4602458477020264,-4.8602681159973145,0.5749983787536621,0
1.4434576034545898,-4.636058330535889,0.5705010890960693,0
1.430267333984375,-4.416952610015869,0.684476375579834,0
1.3825888633728027,-4.399021625518799,0.7684519290924072,0
1.3674129247665405,-4.352545738220215,0.8031692504882812,0
1.4064275026321411,-4.392507076263428,0.7355258464813232,0
1.7131280899047852,-4.179409980773926,0.7825686931610107,0
1.4877228736877441,-4.44064474105835,0.5542409420013428,0
1.8985919952392578,-4.329214572906494,0.41393136978149414,0
1.6532163619995117,-4.441133499145508,0.08867526054382324,0
1.9388099908828735,-4.329057216644287,-0.21359753608703613,0
2.1698572635650635,-4.079290390014648,-0.39504170417785645,0
2.2582895755767822,-3.7779951095581055,-0.5130293369293213,0
2.708772659301758,-3.178933620452881,-0.6273586750030518,0
2.117734432220459,-3.3919119834899902,-1.093580722808838,0
2.2104649543762207,-3.191495418548584,-1.298642873764038,0
2.0733470916748047,-2.840951919555664,-1.2111890316009521,0
2.0226125717163086,-2.457272529602051,-1.050563097000122,0
1.6937217712402344,-2.1263136863708496,-0.8898041248321533,0
1.5144987106323242,-1.7210097312927246,-0.7015302181243896,0
1.4964449405670166,-1.241201400756836,-0.5111041069030762,0
1.4307575225830078,-0.7322397232055664,-0.30333614349365234,0
1.5685769319534302,-0.12459564208984375,-0.11330008506774902,0
1.2129168510437012,0.25176334381103516,0.11008954048156738,0
1.1825263500213623,0.8063831329345703,0.43018531799316406,0
1.1618728637695312,1.5036640167236328,0.7479735612869263,0
1.1014236211776733,2.29132080078125,0.8138266801834106,0
0.9654154777526855,3.169283866882324,0.23596906661987305,0
1.0147371292114258,4.173084259033203,-0.8949201107025146,0
1.097149133682251,4.870059013366699,-2.1673800945281982,0
1.1578741073608398,5.553757667541504,-4.120296955108643,0
1.0142205953598022,6.024251937866211,-5.956448554992676,0
0.9237233400344849,6.330244064331055,-7.537815093994141,0
0.9615707397460938,6.527698516845703,-8.532020568847656,0
0.3241422772407532,6.132689476013184,-8.824776649475098,0
-0.20641517639160156,5.493203163146973,-8.190963745117188,0
-0.8433953523635864,4.37522029876709,-7.869302272796631,0
-1.723968744277954,2.4735889434814453,-7.355120658874512,0
-1.7151261568069458,0.47849273681640625,-6.637141227722168,0
-1.9362008571624756,-1.3847990036010742,-6.039098739624023,0
-2.502973794937134,-2.8722357749938965,-5.650327682495117,0
-2.03733491897583,-3.893261432647705,-5.420140266418457,0
-1.9756577014923096,-4.599735260009766,-5.732200622558594,0
-1.6931065320968628,-5.209539413452148,-3.74648380279541,0
-1.7168066501617432,-5.535038948059082,-2.382009983062744,0
-1.348085880279541,-5.621868133544922,-1.3577892780303955,0
-0.7238109707832336,-5.603664398193359,0.5112841129302979,0
0.17775774002075195,-5.362762451171875,2.4004757404327393,0
0.9585080146789551,-4.784152507781982,4.026628017425537,0
1.3667237758636475,-3.655290126800537,5.300104141235352,0
1.896315097808838,-1.5850915908813477,6.172666549682617,0
2.436640739440918,1.4334516525268555,6.365206718444824,0
2.5694406032562256,5.322863578796387,6.9520063400268555,0
2.972644329071045,10.200582504272461,8.00078010559082,0
2.8503360748291016,16.919225692749023,9.57232666015625,0
3.092952013015747,24.341571807861328,9.934247016906738,0
3.5745415687561035,30.810604095458984,9.069835662841797,0
3.616785764694214,35.87073516845703,8.090309143066406,0
-0.8517869710922241,36.90194320678711,6.44257116317749,0
-3.0539064407348633,29.299192428588867,4.608991622924805,0
-0.8991227149963379,15.970870971679688,2.8024792671203613,0
-1.3524268865585327,3.975050926208496,0.472991943359375,0
-2.8614182472229004,-4.67894983291626,-0.7841861248016357,0
-3.4925637245178223,-10.115391731262207,-0.23997092247009277,0
-2.671602725982666,-13.014327049255371,1.4388383626937866,0
-2.1132121086120605,-14.004146575927734,3.4017045497894287,0
-1.0612132549285889,-13.784570693969727,4.776006698608398,0
0.3719075322151184,-13.279483795166016,5.339358329772949,0
1.9916952848434448,-12.816784858703613,5.0708770751953125,0
2.84169602394104,-12.734236717224121,4.291714668273926,0
3.085890293121338,-12.362322807312012,4.160350799560547,0
2.653151512145996,-11.790875434875488,3.9596776962280273,0
1.9103310108184814,-11.076602935791016,3.7846755981445312,0
0.8484992980957031,-9.766351699829102,3.7581470012664795,0
-0.35651880502700806,-7.949481010437012,4.206379413604736,0
-1.6534899473190308,-5.924899578094482,5.171030044555664,0
-2.909740686416626,-3.460263729095459,5.68963623046875,0
-3.886294364929199,-0.6222963333129883,5.731328964233398,0
-4.554508686065674,2.1952409744262695,6.080426216125488,0
-4.744614601135254,4.73282527923584,6.087954998016357,0
-4.188420295715332,6.8766584396362305,5.338396072387695,0
-3.1637825965881348,7.982073783874512,4.62650203704834,0
-2.4142489433288574,9.049816131591797,3.956103563308716,0
-1.0017119646072388,8.901330947875977,3.7738826274871826,0
1.0256738662719727,7.15354061126709,3.2892308235168457,0
2.206568479537964,4.793511390686035,2.785133123397827,0
1.73733651638031,2.3377161026000977,2.1434545516967773,0
1.860589623451233,0.4575328826904297,1.9154906272888184,0
2.3737387657165527,-1.046762466430664,1.8478589057922363,0
2.531254768371582,-2.2981481552124023,1.544098973274231,0
3.235771656036377,-3.1271872520446777,2.061276912689209,0
3.209689140319824,-3.6469974517822266,2.1445701122283936,0
2.773012161254883,-4.238664150238037,1.6944341659545898,0
1.9747155904769897,-4.854877948760986,0.8309861421585083,0
1.7911944389343262,-5.108360290527344,1.0525472164154053,0
1.745962142944336,-5.142595291137695,1.9011509418487549,0
1.3550043106079102,-4.990990161895752,1.953723669052124,0
0.8900567889213562,-4.522059917449951,1.6414494514465332,0
0.4359484910964966,-3.8315958976745605,1.4887012243270874,0
0.07769763469696045,-3.1682281494140625,1.613072156906128,0
-0.25029706954956055,-2.4622907638549805,1.5098638534545898,0
-0.7674398422241211,-1.672976016998291,1.2807810306549072,0
-1.0975764989852905,-0.8815441131591797,1.0556488037109375,0
-1.3168549537658691,-0.28153228759765625,0.8422892093658447,0
-1.5712289810180664,0.31385040283203125,0.45716026425361633,0
-1.6721856594085693,0.5817651748657227,0.09699931740760803,0
-1.752379059791565,0.4531373977661133,-0.21389085054397583,0
-1.61178457736969,0.19854068756103516,-0.3098065257072449,0
-1.2793240547180176,-0.21535778045654297,-0.30765315890312195,0
-1.018800139427185,-0.6498136520385742,-0.5909367799758911,0
-0.8336507081985474,-1.0595855712890625,-0.8540126085281372,0
-0.6556171178817749,-1.4449138641357422,-1.0234123468399048,0
-0.3893156051635742,-1.8728280067443848,-1.135819435119629,0
-0.2625240087509155,-2.034897804260254,-1.095619797706604,0
-0.2614777088165283,-2.1443848609924316,-1.0673972368240356,0
-0.34106266498565674,-2.2588205337524414,-1.0868301391601562,0
-0.34495222568511963,-2.3302230834960938,-1.2933275699615479,0
-0.8543628454208374,-2.181711196899414,-1.7270251512527466,0
-0.849494457244873,-1.968923568725586,-1.0641499757766724,0
-0.9328528642654419,-1.732511043548584,-0.8715947270393372,0
-1.2885972261428833,-1.5466423034667969,-1.2807682752609253,0
-1.4833892583847046,-1.4447021484375,-1.561729073524475,0
-1.5889508724212646,-1.2711591720581055,-1.6880073547363281,0
-1.5813347101211548,-1.143270492553711,-1.740830659866333,0
-1.5059233903884888,-1.0681495666503906,-1.6890417337417603,0
-1.3769737482070923,-0.9405174255371094,-1.623547077178955,0
-1.2589797973632812,-0.9158487319946289,-1.5827361345291138,0
-1.1778703927993774,-0.8289651870727539,-1.6362390518188477,0
-1.2052587270736694,-0.6775150299072266,-1.7915863990783691,0
-1.2665828466415405,-0.4782562255859375,-1.8983045816421509,0
-1.4405879974365234,-0.3292522430419922,-2.049898386001587,0
-1.5475420951843262,-0.06780815124511719,-2.069498300552368,0
-1.8696783781051636,0.17920589447021484,-2.107905626296997,0
-2.009572982788086,0.44291210174560547,-1.9809507131576538,0
-2.1153860092163086,0.6874122619628906,-1.808053970336914,0
-2.181898832321167,1.089583396911621,-1.4064587354660034,0
-2.120750904083252,1.4100885391235352,-1.2786411046981812,0
-1.9583799839019775,1.8449859619140625,-1.2704817056655884,0
-1.837841510772705,2.649775505065918,-0.6890780329704285,0
-1.5312974452972412,3.2978334426879883,-0.5527716875076294,0
-1.2107434272766113,3.875347137451172,-0.604644238948822,0
-0.9098361730575562,4.076340675354004,-0.7373367547988892,0
-0.7653182148933411,3.9348840713500977,-0.9020437002182007,0
-0.9159730076789856,3.659489631652832,-1.4653570652008057,0
-1.2013695240020752,3.616156578063965,-1.7574183940887451,0
-1.504609227180481,3.493968963623047,-2.4810922145843506,0
-1.7422106266021729,3.384030342102051,-3.0345072746276855,0
-1.9667494297027588,3.317441940307617,-3.5352282524108887,0
-2.2164244651794434,3.329925537109375,-3.898956298828125,0
-2.416877269744873,3.342339515686035,-4.09848690032959,0
-2.716381549835205,3.2516651153564453,-4.288028717041016,0
-3.079285144805908,2.9765634536743164,-4.373327732086182,0
-3.3315627574920654,2.598505973815918,-4.359208106994629,0
-3.2727646827697754,2.0818328857421875,-4.1173529624938965,0
-2.9487838745117188,1.5608100891113281,-3.9363579750061035,0
-2.5178449153900146,1.0116872787475586,-3.731243133544922,0
-2.118684768676758,0.5350046157836914,-3.3447556495666504,0
-1.738373875617981,0.3483095169067383,-2.8271355628967285,0
-1.5274651050567627,0.2743263244628906,-2.3772168159484863,0
-1.7825592756271362,0.19804763793945312,-1.807902455329895,0
-1.975862741470337,0.28438568115234375,-0.8573993444442749,0
-1.9517722129821777,0.44706249237060547,-0.31271034479141235,0
-2.43533992767334,0.2244701385498047,0.1686776876449585,0
-2.475815773010254,0.1741180419921875,1.0282326936721802,0
-2.3221702575683594,0.11150264739990234,1.655102252960205,0
-2.0343432426452637,0.14650630950927734,2.2040576934814453,0
-1.798858880996704,0.25989437103271484,2.670910358428955,0
-1.5318721532821655,0.26746368408203125,3.171288251876831,0
-1.3188576698303223,0.41088294982910156,3.5844197273254395,0
-1.3631062507629395,0.7306432723999023,3.8018171787261963,0
-1.582999348640442,1.033106803894043,3.7563178539276123,0
-1.5075163841247559,1.4166326522827148,3.8130738735198975,0
-1.0006719827651978,2.2329978942871094,4.1375555992126465,0
-0.21993476152420044,3.1975345611572266,4.734743595123291,0
0.9196581244468689,3.9494285583496094,5.389896869659424,0
1.8452482223510742,4.6040849685668945,5.74070930480957,0
2.616694211959839,5.209622383117676,5.506943225860596,0
3.2753829956054688,5.6584577560424805,5.043121814727783,0
3.802422046661377,5.914782524108887,4.476766109466553,0
4.248525142669678,5.8711042404174805,3.9737377166748047,0
4.207896709442139,5.506152153015137,3.0336050987243652,0
3.8344550132751465,5.295916557312012,2.0570991039276123,0
3.320167064666748,5.225532531738281,1.6702550649642944,0
2.8888564109802246,5.026816368103027,1.6551865339279175,0
2.8349313735961914,5.029928207397461,2.02626633644104,0
2.6774258613586426,4.9739580154418945,2.1229066848754883,0
2.3495800495147705,4.890052795410156,1.9765483140945435,0
2.045435905456543,4.596555709838867,2.068336248397827,0
1.9472464323043823,4.14881706237793,2.0775225162506104,0
1.9890589714050293,3.659512519836426,1.7448582649230957,0
2.119852304458618,3.0642013549804688,1.0475178956985474,0
2.135291576385498,2.5232114791870117,0.49864131212234497,0
2.1105501651763916,1.8355598449707031,0.09245002269744873,0
1.9648168087005615,1.226191520690918,0.041837334632873535,0
2.057587146759033,0.7119302749633789,0.347381591796875,0
2.3605339527130127,0.6636028289794922,1.026917576789856,0
2.4664063453674316,-0.1244344711303711,1.4041579961776733,0
2.4026272296905518,-0.6018438339233398,1.314361810684204,0
2.24658203125,-1.163949966430664,1.276564598083496,0
1.8363101482391357,-1.4571590423583984,1.6468473672866821,0
1.465386152267456,-2.1564254760742188,1.8431446552276611,0
1.140800952911377,-2.5631895065307617,2.0590765476226807,0
1.2483842372894287,-2.261758327484131,2.523763418197632,0
0.7642384767532349,-2.6451821327209473,2.053936719894409,0
0.3403867483139038,-2.928647994995117,1.801894187927246,0
-0.13352715969085693,-2.761099338531494,1.6187254190444946,0
-0.8601248264312744,-2.4417343139648438,2.2122609615325928,0
-1.269264578819275,-3.527963638305664,1.8568265438079834,0
-1.0835089683532715,-3.7253823280334473,1.4488723278045654,0
-0.7538689374923706,-4.4394354820251465,0.8084983825683594,0
-1.3533920049667358,-5.564823150634766,0.046698570251464844,0
-1.230236291885376,-5.81931209564209,-0.04465007781982422,0
-1.2049357891082764,-6.261035442352295,-0.3921787738800049,0
-0.733647346496582,-6.559299945831299,-0.4730644226074219,0
-0.30740129947662354,-6.304571151733398,0.21725916862487793,0
-0.4729020595550537,-6.991489410400391,0.5515091419219971,0
-0.2086399793624878,-7.267186164855957,0.9076747894287109,0
0.20640051364898682,-7.311009407043457,1.068871021270752,0
0.7164307236671448,-6.998591899871826,1.042578935623169,0
1.1941776275634766,-6.227540493011475,0.8162894248962402,0
1.2501964569091797,-5.440847873687744,0.6673953533172607,0
1.1884984970092773,-4.882309436798096,0.7373716831207275,0
1.0997258424758911,-4.575598239898682,0.7653968334197998,0
1.1635016202926636,-4.259812831878662,0.7752735614776611,0
1.3681336641311646,-4.030783176422119,0.6683754920959473,0
1.208269476890564,-4.440789699554443,0.3350400924682617,0
1.400284767150879,-4.420252799987793,0.22465729713439941,0
1.5114459991455078,-4.259221076965332,0.11393165588378906,0
2.0113773345947266,-3.52531099319458,0.12390708923339844,0
1.4145050048828125,-3.9865689277648926,-0.3433048725128174,0
1.6420354843139648,-4.118396759033203,-0.6415376663208008,0
1.7977238893508911,-3.8685302734375,-0.6828370094299316,0
1.8844233751296997,-3.636782169342041,-0.8646805286407471,0
2.0745229721069336,-3.3465213775634766,-1.0791316032409668,0
1.9032933712005615,-3.244098663330078,-1.287726879119873,0
1.8082274198532104,-3.1162524223327637,-1.2482564449310303,0
1.7680944204330444,-2.9243969917297363,-1.206444263458252,0
1.7756311893463135,-2.6493892669677734,-1.305548906326294,0
1.4398283958435059,-2.499277114868164,-1.3033111095428467,0
1.2148748636245728,-2.213001251220703,-1.1367063522338867,0
1.1048436164855957,-1.852430820465088,-0.8305394649505615,0
1.0487397909164429,-1.4411544799804688,-0.44774794578552246,0
0.9540329575538635,-1.0557270050048828,-0.28176283836364746,0
1.4957234859466553,-0.048773765563964844,1.0331952571868896,0
1.340734839439392,0.6705837249755859,1.3020039796829224,0
1.386521816253662,1.6508169174194336,2.036874294281006,0
1.5578358173370361,2.8011207580566406,1.9421194791793823,0
1.7321698665618896,4.190546035766602,0.7881616353988647,0
1.8632299900054932,5.682000160217285,-1.2348642349243164,0
1.769407033920288,6.898968696594238,-3.49109148979187,0
1.6135878562927246,7.623154640197754,-5.603775501251221,0
1.075078010559082,8.150516510009766,-7.340155601501465,0
0.6452814340591431,8.362075805664062,-8.893204689025879,0
0.42591822147369385,8.373955726623535,-9.669327735900879,0
-0.413213849067688,7.700700759887695,-9.536262512207031,0
-0.9986318349838257,7.19761848449707,-8.941988945007324,0
-2.289708375930786,5.557193756103516,-8.476227760314941,0
-2.4061548709869385,3.527144432067871,-8.327342987060547,0
-2.467953681945801,0.30694007873535156,-7.670592308044434,0
-2.2902915477752686,-2.1866836547851562,-6.847936630249023,0
-2.016556739807129,-4.016734600067139,-6.117862701416016,0
-1.3437128067016602,-5.0692219734191895,-5.550482749938965,0
-1.5820581912994385,-6.191547870635986,-5.165302753448486,0
-1.344779372215271,-6.888149738311768,-4.557324409484863,0
-1.1498507261276245,-7.536628246307373,-3.333451509475708,0
-0.6471420526504517,-7.954743385314941,-2.001110315322876,0
0.06729096174240112,-8.268899917602539,-0.1823863983154297,0
0.8281520009040833,-8.457085609436035,1.967451810836792,0
1.5599348545074463,-8.47829532623291,3.9876794815063477,0
1.7533392906188965,-7.691404342651367,5.5124969482421875,0
1.8777194023132324,-5.847290992736816,6.026284217834473,0
1.9998846054077148,-3.0923891067504883,6.30742073059082,0
1.6478984355926514,0.5187397003173828,7.324388027191162,0
1.8213797807693481,5.048131942749023,9.387588500976562,0
1.8695588111877441,11.039066314697266,11.846373558044434,0
1.751249074935913,19.188020706176758,12.145219802856445,0
2.4871366024017334,27.567485809326172,9.579666137695312,0
3.590810537338257,35.76030349731445,7.305278778076172,0
2.9900379180908203,43.163326263427734,5.067018985748291,0
-2.4716691970825195,40.20296859741211,3.277406692504883,0
-1.3188825845718384,26.785823822021484,3.1046407222747803,0
-0.21057993173599243,12.376067161560059,3.0864508152008057,0
-1.2623087167739868,1.4486045837402344,1.3964519500732422,0
-1.3601391315460205,-6.210399627685547,0.4995133876800537,0
-0.773117184638977,-11.051858901977539,1.281406044960022,0
-1.0425597429275513,-13.532543182373047,2.5714001655578613,0
-0.5085687637329102,-14.679630279541016,4.363572120666504,0
1.8042463064193726,-14.555593490600586,5.370260715484619,0
4.2213945388793945,-13.618509292602539,4.723788738250732,0
4.93913459777832,-13.156344413757324,3.3896892070770264,0
4.5751953125,-12.829418182373047,2.6583337783813477,0
3.780306100845337,-12.437826156616211,2.2614762783050537,0
2.623094081878662,-11.51434326171875,2.092554807662964,0
1.1698391437530518,-10.227887153625488,2.61616587638855,0
-0.7308207154273987,-8.202179908752441,2.9396862983703613,0
-2.7206673622131348,-5.902982234954834,2.982145309448242,0
-4.56107759475708,-3.7087626457214355,3.0206453800201416,0
-5.68524694442749,-1.977644443511963,3.5369200706481934,0
-6.19584321975708,0.021431922912597656,4.350037097930908,0
-7.013759136199951,2.2613744735717773,5.846107482910156,0
-7.970144271850586,5.149643898010254,6.782737731933594,0
-7.853304862976074,7.430706024169922,6.9802374839782715,0
-6.632847785949707,8.835366249084473,6.291434288024902,0
-4.141925811767578,8.738606452941895,5.567957878112793,0
-0.8794112205505371,7.238452911376953,4.788325309753418,0
1.8278005123138428,5.231052398681641,3.7235374450683594,0
3.255084991455078,3.1660003662109375,2.4974112510681152,0
3.218873977661133,1.0639171600341797,1.118235468864441,0
3.6707825660705566,-0.7504692077636719,0.9965389966964722,0
4.3182783126831055,-2.0745582580566406,1.2601416110992432,0
5.024188995361328,-2.926128387451172,1.4170820713043213,0
5.384045600891113,-3.6505680084228516,1.1324025392532349,0
5.6405720710754395,-4.310428142547607,0.7770732045173645,0
5.855079650878906,-4.836434364318848,0.6650218963623047,0
5.567809104919434,-4.982223033905029,0.8793058395385742,0
4.860493183135986,-4.874634265899658,1.1492964029312134,0
4.077831268310547,-4.561489105224609,1.3666338920593262,0
3.3031411170959473,-3.884986400604248,1.484872817993164,0
2.5116517543792725,-3.0270915031433105,1.6274316310882568,0
1.7736668586730957,-2.0930867195129395,1.551734447479248,0
1.002997875213623,-1.3507862091064453,1.3318763971328735,0
0.04533660411834717,-1.0151758193969727,1.2751128673553467,0
-0.9073207378387451,-0.877812385559082,1.5149269104003906,0
-1.6794722080230713,-0.6731433868408203,1.5312453508377075,0
-2.135951519012451,-0.63330078125,1.3106695413589478,0
-2.342287540435791,-0.7581701278686523,0.9638899564743042,0
-2.404641628265381,-0.8802909851074219,0.6060039401054382,0
-2.2878975868225098,-1.1097803115844727,0.2659046947956085,0
-2.1746068000793457,-1.4083786010742188,0.02051890268921852,0
-2.003103256225586,-1.6876544952392578,-0.2620517909526825,0
-1.759305477142334,-1.9859485626220703,-0.5796508193016052,0
-1.1417591571807861,-2.274517059326172,-0.4658995270729065,0
-0.8707464933395386,-2.5103559494018555,-0.5741753578186035,0
-0.8645873069763184,-2.734157085418701,-0.8168958425521851,0
-0.7729964256286621,-2.799896240234375,-0.8857449293136597,0
-0.8373457193374634,-2.664703369140625,-0.9544982314109802,0
-0.9401379823684692,-2.381415367126465,-1.0826330184936523,0
-1.1269009113311768,-2.0936832427978516,-1.2536027431488037,0
-1.3450500965118408,-1.691533088684082,-1.3214812278747559,0
-1.5372235774993896,-1.3783502578735352,-1.6736583709716797,0
-1.6704517602920532,-1.3359107971191406,-1.3974419832229614,0
-1.7755823135375977,-0.9182968139648438,-1.4851245880126953,0
-1.6990468502044678,-0.5945320129394531,-1.678297519683838,0
-1.4810817241668701,-0.5197277069091797,-1.8990122079849243,0
-1.3301522731781006,-0.7891063690185547,-2.3112261295318604,0
-1.2743275165557861,-0.5988216400146484,-2.0409884452819824,0
-1.2698075771331787,-0.37744903564453125,-1.8749843835830688,0
-1.2564653158187866,-0.25174522399902344,-1.8535687923431396,0
-1.258182168006897,-0.28366851806640625,-2.154325485229492,0
-1.470834732055664,0.04103374481201172,-2.176276683807373,0
-1.7313231229782104,0.3679943084716797,-2.2661077976226807,0
-2.118438720703125,0.6685342788696289,-2.4430642127990723,0
-2.5196988582611084,0.8900699615478516,-2.5182530879974365,0
-2.7270474433898926,0.8963708877563477,-2.752300262451172,0
-3.2566874027252197,1.3593454360961914,-2.0910391807556152,0
-3.524291515350342,1.788163185119629,-1.8119218349456787,0
-3.4406838417053223,2.2809629440307617,-1.835676670074463,0
-3.0460119247436523,2.9308290481567383,-1.6998025178909302,0
-2.454768180847168,3.570134162902832,-1.655350685119629,0
-2.0830163955688477,4.232122421264648,-1.7848145961761475,0
-1.4689319133758545,4.473980903625488,-0.7756322026252747,0
-1.1803393363952637,4.088474273681641,-1.617975115776062,0
-1.372953176498413,3.7532482147216797,-1.9032039642333984,0
-1.7118661403656006,3.1719884872436523,-2.2673752307891846,0
-2.1712493896484375,2.6990509033203125,-2.7212023735046387,0
-2.648502826690674,2.592514991760254,-3.0542216300964355,0
-3.021695613861084,2.789640426635742,-3.237328052520752,0
-3.1975529193878174,3.0603742599487305,-3.3608198165893555,0
-3.063467264175415,3.251511573791504,-3.476794719696045,0
-2.7151870727539062,3.286611557006836,-3.494159698486328,0
-2.2172491550445557,3.075122833251953,-3.4423067569732666,0
-1.6984484195709229,2.615091323852539,-3.3624985218048096,0
-1.318974494934082,2.086134910583496,-2.970078468322754,0
-1.0692533254623413,1.6461124420166016,-2.6263442039489746,0
-0.8201863765716553,1.385763168334961,-2.0562331676483154,0
-0.7883554100990295,0.9485464096069336,-1.5017311573028564,0
-0.472958505153656,1.121023178100586,-0.24796605110168457,0
-0.735245943069458,1.0845537185668945,0.7939766645431519,0
-1.1278753280639648,1.0594940185546875,1.4562973976135254,0
-1.1328294277191162,1.1321430206298828,1.7937371730804443,0
-1.3333024978637695,1.101572036743164,2.2205424308776855,0
-1.355275273323059,1.2475128173828125,2.573225498199463,0
-1.519056797027588,1.5122480392456055,2.8173558712005615,0
-1.628434419631958,1.5583696365356445,3.3539295196533203,0
-1.682677984237671,1.4770193099975586,3.8301587104797363,0
-2.1351146697998047,1.0940723419189453,3.8732194900512695,0
-2.382110595703125,0.608708381652832,3.6292834281921387,0
-2.2379939556121826,0.5139541625976562,3.533252239227295,0
-1.776970386505127,0.989069938659668,3.910003185272217,0
-1.0158193111419678,1.7251176834106445,4.568180561065674,0
0.22219496965408325,2.375302314758301,5.2362751960754395,0
1.2467340230941772,3.0906801223754883,5.557136535644531,0
1.8313961029052734,3.7398681640625,5.535347938537598,0
2.111955165863037,4.394684791564941,5.075832366943359,0
2.190854549407959,5.2153215408325195,4.782789707183838,0
2.326453924179077,5.670875549316406,4.364497661590576,0
2.252851963043213,5.914955139160156,3.645669460296631,0
1.9736499786376953,6.351870536804199,3.331275224685669,0
1.6089351177215576,6.756390571594238,3.1016011238098145,0
1.1236648559570312,7.099584579467773,2.471874475479126,0
0.8071897625923157,7.3188676834106445,2.015597105026245,0
0.8952322006225586,6.933589935302734,2.083132028579712,0
1.2428216934204102,5.456966400146484,1.7602988481521606,0
2.0702126026153564,5.085456848144531,1.7236249446868896,0
2.2334299087524414,4.920614242553711,0.3309343457221985,0
2.6377813816070557,4.648750305175781,-0.5958797335624695,0
3.0165536403656006,4.0237274169921875,-1.0051301717758179,0
3.108471155166626,3.1297807693481445,-1.277630090713501,0
2.872816562652588,2.369086265563965,-1.3419907093048096,0
2.50780987739563,1.8205080032348633,-1.2559300661087036,0
2.478482961654663,1.5341548919677734,-0.88721764087677,0
2.622007369995117,0.9623470306396484,-0.5548431873321533,0
2.2931740283966064,0.2583341598510742,-0.42250168323516846,0
1.707999587059021,-0.1929187774658203,0.056501150131225586,0
1.5348085165023804,-0.4944190979003906,1.1635212898254395,0
1.5777398347854614,-0.8065767288208008,2.047720193862915,0
0.8009034991264343,-1.4360027313232422,2.4360527992248535,0
-0.10999417304992676,-2.4402880668640137,2.540254592895508,0
-0.7173382043838501,-3.1975574493408203,2.653587579727173,0
-0.9133838415145874,-3.2512125968933105,3.637261152267456,0
-1.7220280170440674,-4.059123992919922,3.040842056274414,0
-2.617755889892578,-5.1310648918151855,1.7542469501495361,0
-3.063209056854248,-5.017765522003174,1.8793351650238037,0
-3.1495566368103027,-4.834527492523193,2.592339038848877,0
-3.052471160888672,-4.9309468269348145,2.3914685249328613,0
-2.8326380252838135,-4.435852527618408,2.327709674835205,0
-1.4098565578460693,-3.860891819000244,3.714405059814453,0
-1.5069103240966797,-5.555809020996094,1.7865554094314575,0
-1.0567350387573242,-6.991052627563477,0.7180705070495605,0
-0.8533141613006592,-8.719759941101074,-0.8492369651794434,0
0.017578482627868652,-8.725034713745117,-0.5305087566375732,0
0.8718717098236084,-8.193937301635742,0.13055849075317383,0
1.59775972366333,-7.829553127288818,0.3580787181854248,0
2.016014337539673,-7.444650650024414,0.8262226581573486,0
2.246304512023926,-7.175060272216797,1.1729419231414795,0
2.4826135635375977,-6.700080871582031,1.250634789466858,0
2.7397122383117676,-6.048766136169434,1.0974609851837158,0
2.7549259662628174,-5.429473400115967,0.8519799709320068,0
2.588174343109131,-5.01917839050293,0.8130757808685303,0
2.4187748432159424,-4.760228633880615,0.8945727348327637,0
2.1534690856933594,-4.669243335723877,0.8713743686676025,0
2.697920322418213,-4.152998447418213,1.027714490890503,0
1.9933860301971436,-4.632547378540039,0.6793303489685059,0
1.977827787399292,-4.789209365844727,0.3432779312133789,0
2.0387513637542725,-4.730984687805176,0.08394622802734375,0
2.001646041870117,-4.630336284637451,-0.14913320541381836,0
1.8687686920166016,-4.331859111785889,-0.43712353706359863,0
1.9182809591293335,-3.8978919982910156,-0.5312643051147461,0
1.8751444816589355,-3.7110085487365723,-0.6536853313446045,0
1.921715497970581,-3.4334616661071777,-0.7413787841796875,0
1.7349992990493774,-3.0627012252807617,-0.714540958404541,0
1.5753438472747803,-2.5818700790405273,-0.6345007419586182,0
1.5954437255859375,-2.024339199066162,-0.5338282585144043,0
1.6724556684494019,-1.5000276565551758,-0.500175952911377,0
1.7554086446762085,-0.956049919128418,-0.3218846321105957,0
1.8987804651260376,-0.41606903076171875,-0.03614497184753418,0
2.0349907875061035,0.18961811065673828,0.43023061752319336,0
2.075129985809326,0.8471260070800781,1.2466307878494263,0
2.3208723068237305,1.7316293716430664,2.1544570922851562,0
2.5022149085998535,2.8097686767578125,2.4207470417022705,0
2.563127279281616,4.086160659790039,1.7421841621398926,0
2.50467586517334,5.4189605712890625,0.09580087661743164,0
2.298321008682251,6.304897308349609,-2.3229594230651855,0
1.9697790145874023,7.763496398925781,-3.689267873764038,0
1.2803654670715332,8.479012489318848,-6.3551740646362305,0
0.9580996036529541,8.844796180725098,-8.194894790649414,0
-0.08158862590789795,8.596973419189453,-8.959516525268555,0
-0.675612211227417,8.527300834655762,-9.081961631774902,0
-1.744890570640564,7.403969764709473,-8.529034614562988,0
-2.4596328735351562,5.318838119506836,-8.206701278686523,0
-2.770425796508789,1.9041166305541992,-6.846689701080322,0
-3.4173810482025146,-1.3482999801635742,-6.704294681549072,0
-3.5849483013153076,-3.7355146408081055,-6.547374248504639,0
-3.271580219268799,-5.007418155670166,-6.447128772735596,0
-3.1092562675476074,-6.054821491241455,-6.274154186248779,0
-2.896416187286377,-6.69614315032959,-5.9807281494140625,0
-2.5046114921569824,-7.065797805786133,-5.747466087341309,0
-2.4660637378692627,-7.463042736053467,-5.482108116149902,0
-2.4511265754699707,-7.904360771179199,-5.079919815063477,0
-2.2442824840545654,-8.228997230529785,-4.78240442276001,0
-2.219891309738159,-7.9418134689331055,-4.548524856567383,0
-2.101331949234009,-7.771753787994385,-3.368384838104248,0
-1.4677311182022095,-7.851038455963135,-1.0646388530731201,0
-0.982821524143219,-7.48030424118042,0.7353276014328003,0
-0.5363471508026123,-6.969932556152344,3.3511605262756348,0
-0.22836947441101074,-5.697991847991943,5.514508247375488,0
-0.08754998445510864,-4.337395668029785,7.219870567321777,0
0.30389586091041565,-2.766951560974121,8.526315689086914,0
0.6468361616134644,-0.4645519256591797,9.508986473083496,0
0.31310322880744934,3.4428892135620117,11.125554084777832,0
0.31823182106018066,9.966057777404785,11.264698028564453,0
0.10927638411521912,18.4388484954834,11.317225456237793,0
0.616837739944458,30.94835090637207,9.5330171585083,0
4.525462627410889,41.82598876953125,6.035220146179199,0
10.234198570251465,52.20066833496094,5.819158554077148,0
9.257495880126953,52.12589645385742,5.18636417388916,0
6.699955463409424,35.24526596069336,4.9753923416137695,0
5.635172367095947,17.285472869873047,5.604067802429199,0
2.9434571266174316,4.887373924255371,2.476287364959717,0
0.879330039024353,-3.398162364959717,-0.6818108558654785,0
-1.4428074359893799,-10.938905715942383,-2.1221468448638916,0
-2.372267961502075,-15.590078353881836,-0.6611120700836182,0
-2.4734950065612793,-17.906064987182617,1.9446886777877808,0
-1.8876612186431885,-18.407209396362305,3.949089288711548,0
0.34943756461143494,-17.553308486938477,6.393340587615967,0
2.165987968444824,-15.668664932250977,6.533999443054199,0
3.217207670211792,-13.685508728027344,4.8697638511657715,0
3.605642557144165,-12.874777793884277,3.3224024772644043,0
2.7973952293395996,-12.278292655944824,2.54773211479187,0
1.812786340713501,-11.17113208770752,2.5308704376220703,0
0.682655930519104,-9.87341594696045,3.223935127258301,0
-0.881750762462616,-8.16869068145752,3.7537293434143066,0
-2.5302200317382812,-6.378037929534912,4.479034900665283,0
-3.9772791862487793,-4.453189849853516,5.007257461547852,0
-5.050795555114746,-2.0295639038085938,5.459056854248047,0
-6.096189022064209,0.18411827087402344,6.669629096984863,0
-6.645350456237793,2.9979543685913086,7.3954386711120605,0
-6.477701187133789,6.146799087524414,7.579287528991699,0
-5.367398262023926,8.10996150970459,6.762160301208496,0
-3.733828544616699,9.33859634399414,4.910118579864502,0
-1.9095749855041504,9.592082977294922,3.167421817779541,0
0.49382472038269043,8.226276397705078,1.765188217163086,0
1.5164802074432373,5.809787750244141,0.21125978231430054,0
1.0873327255249023,3.098982810974121,-0.46398210525512695,0
2.13100266456604,0.612889289855957,0.3142552971839905,0
2.8456172943115234,-1.0057868957519531,-0.08430778980255127,0
3.957718849182129,-2.026035785675049,0.0020792484283447266,0
4.403061389923096,-2.960599899291992,0.05877572298049927,0
4.861303806304932,-3.5875210762023926,0.9061644077301025,0
5.445344924926758,-4.072329998016357,1.3000543117523193,0
5.142424583435059,-4.477764129638672,0.9445827603340149,0
4.2628173828125,-4.7635955810546875,0.5595993995666504,0
3.733250617980957,-4.95856237411499,0.6928579211235046,0
3.4268264770507812,-5.0457844734191895,1.126467227935791,0
3.0631165504455566,-4.745662689208984,1.2785992622375488,0
2.540541887283325,-3.8482723236083984,1.4053905010223389,0
1.0807238817214966,-2.7273387908935547,0.6318960785865784,0
-0.12371444702148438,-1.6936683654785156,0.6630062460899353,0
-1.1074446439743042,-0.7755117416381836,1.3449307680130005,0
-2.0025525093078613,0.027387619018554688,1.746830701828003,0
-2.885746955871582,0.5787687301635742,1.1956310272216797,0
-3.225311279296875,0.9387178421020508,0.573753833770752,0
-3.3461170196533203,0.9927558898925781,-0.19650478661060333,0
-3.1140642166137695,0.803441047668457,-0.721472442150116,0
-2.798016309738159,0.27527332305908203,-1.308906078338623,0
-2.356196641921997,-0.6465511322021484,-1.5626718997955322,0
-2.0247726440429688,-1.643843173980713,-1.5795438289642334,0
-1.8098746538162231,-2.2887887954711914,-1.510448694229126,0
-1.4801812171936035,-2.703950881958008,-1.3403698205947876,0
-1.3134446144104004,-3.1861777305603027,-1.220561146736145,0
-1.3163139820098877,-3.6874513626098633,-1.686812400817871,0
-1.3612874746322632,-3.832204818725586,-1.5668295621871948,0
-1.4535142183303833,-3.6759185791015625,-1.482951283454895,0
-1.4424694776535034,-3.4461164474487305,-1.5401650667190552,0
-1.4812278747558594,-3.1500234603881836,-1.5942047834396362,0
-1.5241320133209229,-2.7566113471984863,-1.6297988891601562,0
-1.5830386877059937,-2.2875237464904785,-1.7441012859344482,0
-1.6243958473205566,-1.7572364807128906,-1.7948994636535645,0
-1.5761137008666992,-1.2901411056518555,-1.9250208139419556,0
-1.478535532951355,-0.8119754791259766,-1.875934362411499,0
-1.2358074188232422,-0.46613025665283203,-1.7990494966506958,0
-1.019647240638733,-0.22120380401611328,-1.6398839950561523,0
-0.7596746683120728,-0.09359550476074219,-1.4371284246444702,0
-0.6492624282836914,-0.1786336898803711,-1.5433952808380127,0
-0.8554261922836304,-0.3468294143676758,-1.7699735164642334,0
-0.9608316421508789,-0.16999244689941406,-1.7908222675323486,0
-1.0702979564666748,-0.08844184875488281,-2.141800880432129,0
-1.241163969039917,0.05573463439941406,-2.473226547241211,0
-1.5049821138381958,0.08058643341064453,-2.8922533988952637,0
-1.85471773147583,0.5072336196899414,-2.502638816833496,0
-2.0634708404541016,0.6368522644042969,-2.581976890563965,0
-2.4065473079681396,0.9741926193237305,-2.371034622192383,0
-2.632634401321411,1.1388006210327148,-2.379612684249878,0
-2.683943748474121,1.2219314575195312,-2.4410367012023926,0
-2.4020962715148926,1.250143051147461,-2.797335147857666,0
-2.5088376998901367,1.7756671905517578,-2.2725770473480225,0
-2.4816741943359375,2.1904497146606445,-1.926350712776184,0
-2.346358299255371,2.437162399291992,-1.4924566745758057,0
-2.1456828117370605,2.4276647567749023,-1.3879492282867432,0
-2.06330943107605,2.5233240127563477,-1.1365563869476318,0
-2.0632200241088867,2.4658079147338867,-1.0857124328613281,0
-1.968501091003418,2.2220592498779297,-1.3898473978042603,0
-1.971118688583374,1.790018081665039,-2.0400047302246094,0
-2.2225780487060547,1.5428409576416016,-2.5121984481811523,0
-2.589925765991211,1.6379690170288086,-2.938042640686035,0
-2.903719425201416,1.9887151718139648,-3.1781723499298096,0
-2.783766746520996,2.544388771057129,-3.31559419631958,0
-2.3525102138519287,3.1252870559692383,-3.4024252891540527,0
-1.7444863319396973,3.649995803833008,-3.2997119426727295,0
-0.9337504506111145,3.967850685119629,-2.9713783264160156,0
-0.10715800523757935,4.0025434494018555,-2.517867088317871,0
0.610589325428009,3.735280990600586,-2.0804519653320312,0
0.9827248454093933,3.080458641052246,-1.7744752168655396,0
1.2300918102264404,2.5550661087036133,-1.2744767665863037,0
0.9330202341079712,1.6973943710327148,-0.6837099194526672,0
0.8644980788230896,1.4903078079223633,0.535171389579773,0
0.47522562742233276,1.2131671905517578,1.3903069496154785,0
-0.02808380126953125,1.169896125793457,1.7812726497650146,0
-0.37893998622894287,1.1452436447143555,1.7628214359283447,0
-0.48087573051452637,1.2348480224609375,1.637361764907837,0
-0.4915504455566406,1.328495979309082,1.5639722347259521,0
-0.628812313079834,1.2850046157836914,2.0100650787353516,0
-0.8731504678726196,1.0328874588012695,2.585645914077759,0
-1.5174098014831543,0.5726518630981445,3.3525197505950928,0
-2.3723764419555664,0.2611503601074219,4.009105682373047,0
-3.3758397102355957,-0.26000404357910156,4.107308387756348,0
-3.752753734588623,-0.7364282608032227,3.848524570465088,0
-3.704440116882324,-0.14453887939453125,4.466890811920166,0
-2.862555503845215,1.1724052429199219,5.247326850891113,0
-1.4490503072738647,2.3648290634155273,5.505887031555176,0
0.19808000326156616,3.3160295486450195,5.4627604484558105,0
1.4634180068969727,4.055280685424805,4.9237260818481445,0
2.7523059844970703,4.673833847045898,4.44857931137085,0
3.4862823486328125,5.018800735473633,3.951152801513672,0
3.8692989349365234,5.13348388671875,3.4407753944396973,0
3.7825756072998047,5.137618064880371,2.8474786281585693,0
3.228494644165039,5.164916038513184,2.4889137744903564,0
2.6132824420928955,5.398994445800781,2.596475601196289,0
2.2322537899017334,5.669544219970703,2.716757297515869,0
1.731351613998413,5.813774108886719,2.286450147628784,0
1.535207986831665,5.917920112609863,1.8165428638458252,0
1.3028905391693115,5.8529462814331055,1.3662700653076172,0
1.073242425918579,5.563998222351074,1.1458702087402344,0
0.7556719779968262,5.1396894454956055,0.8700560927391052,0
0.758044958114624,4.589738845825195,0.32994383573532104,0
1.016998291015625,4.079348564147949,-0.26672589778900146,0
1.2009081840515137,3.448305130004883,-0.7524712085723877,0
1.2100088596343994,2.8067541122436523,-1.0792880058288574,0
1.2289676666259766,2.271845817565918,-1.1395227909088135,0
1.2986562252044678,1.941431999206543,-0.9262120723724365,0
1.4840857982635498,1.5044679641723633,-0.7238857746124268,0
1.5962183475494385,1.1405963897705078,-0.2583979368209839,0
1.7232660055160522,0.42671966552734375,0.1393880844116211,0
1.528564691543579,-0.14436626434326172,0.4083019495010376,0
1.192508339881897,-0.43906593322753906,1.0206291675567627,0
1.1109812259674072,-0.6705141067504883,1.7403992414474487,0
0.6314336061477661,-1.1379528045654297,1.8384861946105957,0
0.4702068567276001,-1.3127851486206055,2.186521530151367,0
0.40847790241241455,-1.6520729064941406,2.7176170349121094,0
-0.47376084327697754,-2.51747465133667,2.24332594871521,0
-1.1717636585235596,-3.4237685203552246,1.6728882789611816,0
-1.2325928211212158,-3.9527502059936523,1.3797502517700195,0
-1.3516395092010498,-4.272434711456299,1.8595530986785889,0
-2.0756616592407227,-4.990983009338379,1.6051876544952393,0
-2.027121067047119,-5.641823768615723,1.5892375707626343,0
-2.3408379554748535,-6.3300700187683105,1.6534301042556763,0
-1.1263083219528198,-5.634960174560547,2.048401117324829,0
-1.189435362815857,-5.828000068664551,1.2368971109390259,0
-0.3480184078216553,-5.6332621574401855,1.2030746936798096,0
0.5712898969650269,-5.380889415740967,1.2722289562225342,0
0.6666975021362305,-5.721602439880371,0.43503236770629883,0
1.3914759159088135,-5.231344699859619,0.5737876892089844,0
1.3503634929656982,-4.788012981414795,1.080014705657959,0
1.5598323345184326,-4.22352933883667,1.6615302562713623,0
1.4012492895126343,-4.011209011077881,1.9754880666732788,0
1.3194233179092407,-3.044668197631836,3.4761292934417725,0
1.2483431100845337,-3.9338183403015137,3.6080641746520996,0
1.2075263261795044,-4.9677510261535645,2.601719856262207,0
1.2092335224151611,-5.929522514343262,1.5248240232467651,0
1.3232098817825317,-6.795848846435547,0.6340105533599854,0
1.2911767959594727,-7.215461730957031,0.47391653060913086,0
1.7362406253814697,-6.789456844329834,0.6370854377746582,0
2.0395283699035645,-5.994630813598633,0.8408443927764893,0
2.0745480060577393,-5.374255180358887,0.94637131690979,0
2.085597515106201,-4.947295188903809,1.0372858047485352,0
2.149388313293457,-4.605912685394287,0.9413423538208008,0
2.4124741554260254,-4.249543190002441,0.8163259029388428,0
2.5277292728424072,-3.734590530395508,0.9376418590545654,0
2.3622357845306396,-3.9699759483337402,0.3797786235809326,0
2.3633742332458496,-4.0580735206604,-0.17738676071166992,0
2.4522511959075928,-3.9726624488830566,-0.621422529220581,0
2.510193347930908,-3.670602321624756,-0.7368786334991455,0
2.494288682937622,-3.3311524391174316,-0.8126504421234131,0
2.056995391845703,-3.0139784812927246,-0.9365770816802979,0
1.5875881910324097,-2.8048667907714844,-1.1577060222625732,0
1.3584487438201904,-2.3804569244384766,-1.2162415981292725,0
1.1348299980163574,-1.8648295402526855,-1.010110855102539,0
0.8535540699958801,-1.2289485931396484,-0.7550978660583496,0
0.5305817127227783,-0.5035924911499023,-0.5685625076293945,0
0.49110251665115356,0.3570747375488281,-0.2425384521484375,0
0.5171987414360046,1.2697525024414062,0.27305078506469727,0
0.5948792099952698,2.321147918701172,0.9663585424423218,0
0.8813061714172363,3.442521095275879,1.4975552558898926,0
0.9815264344215393,4.548300743103027,1.3802369832992554,0
1.0796308517456055,5.588395118713379,0.4205920696258545,0
1.0653668642044067,6.505067825317383,-1.2185392379760742,0
0.8542237877845764,7.168173789978027,-3.293276309967041,0
0.5898424386978149,7.545021057128906,-5.432560920715332,0
0.6613211631774902,7.64576530456543,-7.299225330352783,0
0.13260388374328613,7.255924224853516,-8.473162651062012,0
-0.13253021240234375,6.970290184020996,-9.223033905029297,0
0.005984187126159668,6.499176025390625,-9.25538158416748,0
-0.009196162223815918,5.5560808181762695,-8.784473419189453,0
-0.4187920093536377,3.6207666397094727,-8.11817455291748,0
-0.4773210287094116,0.9292840957641602,-7.482766151428223,0
-0.7259426116943359,-1.7613162994384766,-6.494645118713379,0
-1.4393068552017212,-3.862767219543457,-5.843576908111572,0
-1.8844878673553467,-5.344940185546875,-5.394846439361572,0
-2.090965747833252,-6.211174964904785,-5.430729866027832,0
-2.111245632171631,-7.0112457275390625,-5.328926086425781,0
-2.0811502933502197,-7.630826950073242,-6.134103775024414,0
-2.073697566986084,-8.351967811584473,-6.035050392150879,0
-2.1390762329101562,-8.716666221618652,-4.686243057250977,0
-1.9843171834945679,-8.79582691192627,-2.737306594848633,0
-1.6079124212265015,-8.531182289123535,-0.4186744689941406,0
-0.7162342071533203,-7.993862152099609,2.027040481567383,0
-0.02011418342590332,-7.162354469299316,3.674899101257324,0
0.3924410939216614,-5.61099100112915,5.20695161819458,0
0.6176468729972839,-3.94553279876709,6.603634834289551,0
0.4699113965034485,-1.7609333992004395,7.661585807800293,0
0.474903404712677,1.791245460510254,8.35563850402832,0
0.3667541742324829,6.489714622497559,9.121255874633789,0
-0.040193796157836914,13.881549835205078,10.008077621459961,0
-1.0328688621520996,25.731060028076172,9.416019439697266,0
-0.5239325761795044,38.57720947265625,7.162176132202148,0
2.8449885845184326,47.95515060424805,5.607400894165039,0
5.133564472198486,50.179439544677734,5.693816184997559,0
5.466791152954102,38.970069885253906,6.539152145385742,0
6.260894775390625,23.97854232788086,7.404044151306152,0
4.5703887939453125,11.315573692321777,4.949532508850098,0
1.8888521194458008,0.7708978652954102,1.4464497566223145,0
-0.6403298377990723,-8.389986991882324,-1.1835646629333496,0
-2.2483105659484863,-14.399537086486816,-1.1919867992401123,0
-2.304776668548584,-17.39436912536621,0.9279705286026001,0
-1.3523125648498535,-18.995731353759766,3.0371205806732178,0
0.3022233843803406,-18.725914001464844,5.2917799949646,0
2.9486656188964844,-16.634777069091797,5.504075050354004,0
4.242617607116699,-14.793327331542969,4.2944865226745605,0
4.316622257232666,-13.455171585083008,3.449195384979248,0
3.4072444438934326,-12.326112747192383,3.3901124000549316,0
2.592169761657715,-11.08141040802002,3.6786789894104004,0
1.517932415008545,-9.423328399658203,3.8508920669555664,0
0.08133190870285034,-7.465925216674805,3.597750186920166,0
-1.537174940109253,-5.227109432220459,3.388554334640503,0
-3.2313106060028076,-2.6287670135498047,3.2601044178009033,0
-4.468174934387207,-0.03194236755371094,3.6064913272857666,0
-5.778741836547852,1.9689292907714844,4.4346394538879395,0
-7.497623443603516,4.996116638183594,4.804279327392578,0
-8.111254692077637,7.860543251037598,4.984905242919922,0
-7.380414962768555,9.327411651611328,5.443520545959473,0
-5.650633335113525,9.354120254516602,5.082544803619385,0
-3.9185147285461426,8.449893951416016,4.208215713500977,0
-1.4606525897979736,6.523231506347656,3.717001438140869,0
0.784379243850708,4.354996681213379,2.8653202056884766,0
1.179949402809143,2.4038305282592773,1.3772417306900024,0
1.9590166807174683,0.5538711547851562,0.871705174446106,0
1.530680537223816,-0.9136676788330078,-0.5399709939956665,0
1.167391300201416,-1.7726073265075684,-0.6050355434417725,0
2.361187696456909,-2.5920634269714355,0.7383123636245728,0
4.0778913497924805,-3.2518200874328613,1.9673762321472168,0
5.839674472808838,-3.720728874206543,2.817521572113037,0
7.128626823425293,-4.011167526245117,2.1529364585876465,0
7.322269916534424,-4.224320888519287,0.7088993787765503,0
6.3323516845703125,-4.690545558929443,-0.10394018888473511,0
5.400546550750732,-5.206106662750244,0.29874753952026367,0
5.214178562164307,-5.534027576446533,1.416562557220459,0
4.5546488761901855,-5.146737098693848,1.6690967082977295,0
2.1465604305267334,-4.096380710601807,-0.6935733556747437,0
-0.10313820838928223,-2.6252450942993164,-0.8881893754005432,0
-1.6090576648712158,-1.1730070114135742,0.9673205614089966,0
-2.4193413257598877,-0.2507314682006836,2.0356996059417725,0
-2.7616944313049316,0.2215261459350586,2.431936264038086,0
-2.549269914627075,0.7682905197143555,2.079594135284424,0
-2.6438000202178955,1.382411003112793,1.1237428188323975,0
-2.602195978164673,1.5448980331420898,0.119378462433815,0
-2.286958694458008,1.1342458724975586,-0.4744499921798706,0
-2.2224698066711426,0.17468643188476562,-0.6999057531356812,0
-2.230393409729004,-1.049180030822754,-0.5679033398628235,0
-2.0279407501220703,-2.2002334594726562,-0.3859405815601349,0
-1.7974460124969482,-2.903291702270508,-0.47187215089797974,0
-1.5265663862228394,-3.21628999710083,-0.6418904662132263,0
-1.3685908317565918,-3.2736997604370117,-0.867813229560852,0
-1.3957526683807373,-3.281609535217285,-1.1145578622817993,0
-1.5601799488067627,-3.452920436859131,-1.1508160829544067,0
-1.3193457126617432,-3.3327465057373047,-1.0627299547195435,0
-1.4809001684188843,-2.7299890518188477,-0.9330299496650696,0
-1.6086277961730957,-2.1759843826293945,-1.139567494392395,0
-1.9221665859222412,-1.8666486740112305,-1.5847233533859253,0
-2.196000099182129,-1.7082834243774414,-1.8460803031921387,0
-2.4747045040130615,-1.5929059982299805,-2.096454620361328,0
-2.520730972290039,-1.4103374481201172,-2.2611565589904785,0
-2.3938300609588623,-1.2897272109985352,-2.466869831085205,0
-2.072968006134033,-1.2357664108276367,-2.5447587966918945,0
-1.7981759309768677,-1.2268915176391602,-2.4933032989501953,0
-1.4737427234649658,-1.2869329452514648,-2.3172380924224854,0
-1.2340956926345825,-1.4541616439819336,-2.271791458129883,0
-0.7989513874053955,-1.4534502029418945,-1.9708424806594849,0
-0.6112055778503418,-1.638906478881836,-1.9864455461502075,0
-0.579865574836731,-1.7568378448486328,-1.9931951761245728,0
-0.6215230226516724,-1.9365129470825195,-2.1536130905151367,0
-0.48713111877441406,-1.8718023300170898,-2.1009914875030518,0
-0.3940143585205078,-1.5893120765686035,-2.1959407329559326,0
-0.401790976524353,-1.323638916015625,-2.4382662773132324,0
-0.539164662361145,-0.945734977722168,-2.6192915439605713,0
-0.8209890127182007,-0.47502613067626953,-2.7243945598602295,0
-1.1398981809616089,0.009225845336914062,-2.733366012573242,0
-1.174572229385376,0.7723121643066406,-2.5947389602661133,0
-1.4420465230941772,1.3355913162231445,-2.729604721069336,0
-1.4468538761138916,1.656290054321289,-2.6285715103149414,0
-1.612887978553772,1.5889415740966797,-2.8525490760803223,0
-1.7478692531585693,1.887333869934082,-2.5739946365356445,0
-1.923117756843567,2.0489654541015625,-2.5208065509796143,0
-2.004622459411621,2.313105583190918,-2.2288410663604736,0
-2.0118017196655273,2.385438919067383,-2.0090012550354004,0
-1.7883856296539307,2.866201400756836,-1.2618796825408936,0
-1.410258412361145,3.025575637817383,-1.0373351573944092,0
-0.814919114112854,2.952493667602539,-1.3254029750823975,0
