AccX,AccY,AccZ,stepCount
-1.1830322742462158,3.591456413269043,3.3778603076934814,-2.8821284770965576
0.4092615246772766,3.095442771911621,2.6613106727600098,3.445237398147583
1.7629587650299072,2.1969451904296875,1.9179542064666748,-1.0598114728927612
1.992526650428772,0.9635114669799805,1.3967821598052979,1.0167509317398071
1.7018910646438599,-0.33655261993408203,1.222908616065979,-3.124796152114868
1.4010541439056396,-1.432938575744629,1.1318141222000122,3.2287240028381348
1.250938892364502,-2.1155495643615723,0.9426064491271973,-0.2753908634185791
1.2405414581298828,-2.5213212966918945,0.7226786017417908,0.8507785797119141
1.402474045753479,-2.851546287536621,0.5391144156455994,0.2682200074195862
1.5113201141357422,-3.173354148864746,0.43494048714637756,0
1.5974081754684448,-3.30996036529541,0.4387580454349518,0
1.7124093770980835,-3.3287177085876465,0.2967849373817444,0
1.5821443796157837,-3.2945351600646973,0.1741810441017151,0
1.5136377811431885,-3.39658260345459,0.2237902581691742,0
1.1437578201293945,-3.7377381324768066,0.47369539737701416,0
0.9784553050994873,-3.519317150115967,0.7829246520996094,0
1.170503854751587,-3.1055221557617188,1.1255409717559814,0
1.1992385387420654,-2.54917049407959,1.0328325033187866,0
1.3155114650726318,-1.9148807525634766,0.8873953819274902,0
1.5216172933578491,-1.2240991592407227,0.9017167091369629,0
1.22603178024292,-0.4768028259277344,0.4915717542171478,0
1.2253601551055908,-0.17737388610839844,0.5775833129882812,0
0.6279723644256592,0.20319175720214844,0.17119021713733673,0
0.5740222930908203,0.014570236206054688,0.4397938847541809,0
0.12073248624801636,-0.037194252014160156,0.13379201292991638,0
-0.23872911930084229,-0.4710988998413086,-0.11565730720758438,0
-0.5940778255462646,-0.6722602844238281,-0.1774163842201233,0
-0.7713813185691833,-1.1574382781982422,-0.28889137506484985,0
-0.8983905911445618,-1.5963430404663086,-0.4456331133842468,0
-0.9023018479347229,-1.8982419967651367,-0.4967413544654846,0
-0.7599269151687622,-2.010735511779785,-0.46801891922950745,0
-0.8283112645149231,-2.091886520385742,-0.7851139903068542,0
-0.6331936717033386,-2.1727538108825684,-0.9405622482299805,0
-0.7561081051826477,-2.0333776473999023,-1.094226598739624,0
-0.8044968247413635,-1.8892297744750977,-1.2096068859100342,0
-1.0459964275360107,-1.5586004257202148,-1.3364872932434082,0
-1.0893418788909912,-1.4074602127075195,-1.4725329875946045,0
-1.5543315410614014,-1.1271591186523438,-1.6751534938812256,0
-2.278278112411499,-0.6868228912353516,-2.269247055053711,0
-1.8222732543945312,-0.5743780136108398,-1.3598132133483887,0
-2.0186245441436768,-0.29918956756591797,-1.5101689100265503,0
-2.4441945552825928,-1.964569091796875E-4,-1.5331947803497314,0
-2.371513605117798,-0.19618892669677734,-1.5445258617401123,0
-2.451885938644409,-0.40593910217285156,-1.4319159984588623,0
-2.3411705493927,-0.12983226776123047,-1.079650640487671,0
-2.0442862510681152,-0.19577693939208984,-1.1693648099899292,0
-1.800870418548584,-0.03187847137451172,-1.1174203157424927,0
-1.6040350198745728,0.17014503479003906,-1.1905386447906494,0
-1.091629981994629,0.3645925521850586,-0.5995547771453857,0
-1.144063115119934,0.9769620895385742,-0.8656297922134399,0
-1.0767600536346436,1.143651008605957,-1.3407803773880005,0
-1.124361515045166,1.6566247940063477,-1.5061211585998535,0
-1.1933215856552124,2.2762250900268555,-1.4617524147033691,0
-1.163480520248413,2.7511959075927734,-1.2697101831436157,0
-1.276465892791748,2.687255859375,-1.4423717260360718,0
-1.4412624835968018,2.8477725982666016,-1.333495020866394,0
-1.5924040079116821,2.7064876556396484,-1.438851237297058,0
-1.7466113567352295,2.739622116088867,-1.6413871049880981,0
-1.9593888521194458,2.8131837844848633,-2.066519021987915,0
-2.088693141937256,2.6354684829711914,-2.044928789138794,0
-2.3263816833496094,2.873838424682617,-2.026421546936035,0
-2.399287462234497,2.9205217361450195,-2.2364513874053955,0
-2.3125691413879395,3.043741226196289,-2.499345541000366,0
-2.3878836631774902,3.494403839111328,-2.6497416496276855,0
-2.0551819801330566,3.4853572845458984,-2.6104917526245117,0
-1.7625939846038818,3.5288190841674805,-2.558394432067871,0
-1.603840947151184,3.4668169021606445,-2.4734911918640137,0
-1.060525894165039,3.072355270385742,-2.4802327156066895,0
-0.8092077970504761,2.9841928482055664,-2.197777509689331,0
-0.4136675000190735,2.405825614929199,-2.2130777835845947,0
-0.3769516348838806,2.1890735626220703,-1.901576042175293,0
-0.5623095631599426,1.9293022155761719,-1.5761561393737793,0
-0.6799561977386475,1.743638038635254,-1.1116578578948975,0
-0.8541739583015442,1.574549674987793,-0.6989871859550476,0
-1.15171480178833,1.4099903106689453,-0.301427960395813,0
-1.5149955749511719,1.2427291870117188,0.11048781871795654,0
-1.491518259048462,1.113389015197754,0.429789662361145,0
-1.7081056833267212,0.983647346496582,1.0040252208709717,0
-1.900995135307312,0.9348573684692383,1.603500485420227,0
-1.988408088684082,0.8499269485473633,1.9475207328796387,0
-2.0417237281799316,0.5688085556030273,2.215567111968994,0
-2.1320836544036865,0.3668022155761719,2.178497791290283,0
-2.115447759628296,0.20565414428710938,2.2267098426818848,0
-1.8242472410202026,-0.02932262420654297,2.432124614715576,0
-1.3592936992645264,-0.2899818420410156,2.8102383613586426,0
-0.7709320187568665,-0.5545186996459961,3.4353675842285156,0
-0.14984893798828125,-0.6529779434204102,4.286572456359863,0
0.3530096113681793,-0.4204998016357422,4.985467910766602,0
0.9619340300559998,0.11626434326171875,5.248222351074219,0
1.772094964981079,0.8231191635131836,5.135973930358887,0
2.6780853271484375,1.8386592864990234,4.592270374298096,0
3.5219452381134033,2.7729082107543945,3.8396944999694824,0
4.356436252593994,3.8699989318847656,3.174037456512451,0
4.716951370239258,4.689844131469727,2.792665481567383,0
4.70008659362793,5.079739570617676,2.675447702407837,0
4.45020055770874,5.128606796264648,2.575333595275879,0
3.90859317779541,4.93243408203125,2.4016294479370117,0
3.5239150524139404,4.749662399291992,2.0825917720794678,0
3.37489914894104,4.391358375549316,1.7692759037017822,0
3.201064109802246,4.536830902099609,1.5598678588867188,0
3.02250337600708,4.96544075012207,1.4223709106445312,0
2.9767465591430664,5.3204755783081055,1.2143174409866333,0
2.677461624145508,5.484755516052246,0.9250357151031494,0
2.4222445487976074,5.613834381103516,0.8097219467163086,0
2.280984878540039,5.289223670959473,0.6574001908302307,0
1.6845662593841553,4.999185562133789,0.18350374698638916,0
1.6525161266326904,4.511754035949707,0.14914512634277344,0
1.668097734451294,3.774653434753418,0.045076847076416016,0
1.4511523246765137,2.9365100860595703,0.2308194637298584,0
1.3688263893127441,1.6291627883911133,0.45795726776123047,0
0.8663454055786133,0.41484832763671875,0.29379260540008545,0
0.9346601963043213,-0.5920743942260742,0.37474584579467773,0
0.8290576338768005,-1.7939410209655762,0.554895281791687,0
1.1356735229492188,-3.1142773628234863,0.5391532182693481,0
0.9460910558700562,-3.5509819984436035,0.9880959987640381,0
0.7297104001045227,-3.4566421508789062,1.3084794282913208,0
0.6254209876060486,-3.293682098388672,1.1863045692443848,0
0.14988720417022705,-3.535928726196289,0.9967528581619263,0
-0.17779064178466797,-3.8866629600524902,0.7273150682449341,0
-0.7120026350021362,-4.204736232757568,0.6700536012649536,0
-0.7922937870025635,-4.382486343383789,0.7008472681045532,0
-1.378462791442871,-4.506268501281738,0.5828683376312256,0
-1.0754139423370361,-4.458872318267822,0.6895971298217773,0
-1.7235863208770752,-4.800188064575195,0.695326566696167,0
-2.0944838523864746,-5.07787561416626,0.6164407730102539,0
-2.0388011932373047,-5.416289329528809,0.48376917839050293,0
-2.182952880859375,-5.738645553588867,0.6421027183532715,0
-2.021151542663574,-5.973209381103516,0.3997514247894287,0
-1.3487030267715454,-5.99803352355957,0.13475489616394043,0
-0.8086323142051697,-6.044953346252441,0.4864978790283203,0
-0.9392538070678711,-6.128220558166504,0.5579817295074463,0
-0.6080651879310608,-6.1927056312561035,0.4883565902709961,0
-0.22810989618301392,-6.183356285095215,0.380598783493042,0
0.3977794051170349,-5.918440818786621,0.35918283462524414,0
0.7530661225318909,-5.606251239776611,0.4266357421875,0
0.842555046081543,-5.347292900085449,0.5255999565124512,0
0.8528702259063721,-5.141532897949219,0.6537230014801025,0
0.881749153137207,-4.862273693084717,0.7917447090148926,0
0.9409770965576172,-4.686724662780762,0.7886216640472412,0
1.092990517616272,-4.641106128692627,0.8572266101837158,0
1.1151971817016602,-4.577281951904297,0.6907217502593994,0
1.27339768409729,-4.462038040161133,0.49439311027526855,0
1.4409241676330566,-4.415175914764404,0.2988698482513428,0
1.5509662628173828,-4.331453800201416,0.18053936958312988,0
1.5965124368667603,-4.246897220611572,0.0194399356842041,0
1.7234777212142944,-4.178269386291504,-0.06967020034790039,0
1.766752004623413,-3.986572265625,0.05501103401184082,0
1.8865184783935547,-3.7170825004577637,0.04737281799316406,0
1.8215526342391968,-3.3599839210510254,0.10230231285095215,0
1.7415404319763184,-2.9246110916137695,0.13465356826782227,0
1.6484055519104004,-2.420395851135254,0.09258556365966797,0
1.4914228916168213,-1.9116954803466797,0.07754993438720703,0
1.3469784259796143,-1.4029760360717773,0.08336639404296875,0
1.217626929283142,-0.8987598419189453,0.04864811897277832,0
1.1371067762374878,-0.3653106689453125,-0.03293251991271973,0
0.8807998895645142,0.21668529510498047,-0.10320711135864258,0
0.6265552043914795,0.9072589874267578,-0.04170536994934082,0
0.3226143717765808,1.6682462692260742,-0.1277158260345459,0
0.04170289635658264,2.4516382217407227,-0.48102355003356934,0
-0.11260554194450378,3.245114326477051,-1.1263976097106934,0
-0.2573634684085846,4.048243522644043,-1.926175832748413,0
-0.21049779653549194,4.697884559631348,-2.9441287517547607,0
-0.19564688205718994,5.061954498291016,-3.971834421157837,0
-0.4348423480987549,5.223987579345703,-4.773837089538574,0
-0.21810132265090942,5.164800643920898,-5.427805423736572,0
-0.5039851665496826,4.506836891174316,-5.560757637023926,0
-0.7815711498260498,3.8365707397460938,-5.8285017013549805,0
-0.4200984239578247,3.2303953170776367,-6.039880752563477,0
-0.8598426580429077,2.3224124908447266,-5.919370651245117,0
-0.9755681753158569,1.5148563385009766,-5.717522621154785,0
-0.9671661853790283,0.8724136352539062,-5.225363731384277,0
-0.8489570021629333,0.29207515716552734,-4.993181228637695,0
-0.8411431908607483,-0.3697528839111328,-4.7051897048950195,0
-1.0082687139511108,-1.0891780853271484,-4.6655707359313965,0
-0.8467563986778259,-1.6632061004638672,-4.722380638122559,0
-0.8222203850746155,-2.250053882598877,-4.82879638671875,0
-0.8811136484146118,-2.816359043121338,-4.803838729858398,0
-0.9725582599639893,-3.307147979736328,-4.68393087387085,0
-1.1124228239059448,-3.7366013526916504,-4.4042816162109375,0
-1.3668538331985474,-3.859896183013916,-3.027311086654663,0
-1.2848966121673584,-3.59525203704834,-1.8933250904083252,0
-1.0040392875671387,-3.073927402496338,-1.1265077590942383,0
-0.5718086957931519,-2.3069167137145996,0.5740435123443604,0
0.05952426791191101,-1.2171306610107422,1.7854149341583252,0
0.8998469114303589,0.26720714569091797,2.8065531253814697,0
1.9265401363372803,2.112277030944824,3.8488011360168457,0
2.638599157333374,4.334188461303711,4.7944183349609375,0
2.6166844367980957,7.134988784790039,5.444954872131348,0
2.7530248165130615,10.517877578735352,5.922097682952881,0
3.36894154548645,15.260652542114258,6.2681379318237305,0
3.8632752895355225,21.428604125976562,6.331912994384766,0
4.743241786956787,26.629554748535156,5.992597579956055,0
4.739819049835205,30.763790130615234,6.321861267089844,0
6.3187360763549805,30.510303497314453,6.136716365814209,0
7.651028633117676,25.08304786682129,7.033681869506836,0
6.153290271759033,16.909727096557617,8.692408561706543,0
3.499046564102173,9.758783340454102,8.623686790466309,0
2.218562364578247,3.953815460205078,6.9582672119140625,0
1.7013590335845947,-0.3883228302001953,4.325908660888672,0
1.4292302131652832,-3.5357980728149414,2.0921530723571777,0
1.694775938987732,-5.794317245483398,0.7924338579177856,0
1.5278477668762207,-7.643151760101318,0.710395336151123,0
1.3055607080459595,-9.012935638427734,1.600396752357483,0
1.108067512512207,-10.02329158782959,2.7580020427703857,0
1.044219732284546,-10.734442710876465,3.336488962173462,0
1.057828664779663,-11.28589153289795,3.3634932041168213,0
1.1093006134033203,-11.630526542663574,3.3349709510803223,0
0.457815945148468,-11.606722831726074,2.7937710285186768,0
0.7429380416870117,-11.50964641571045,2.9168806076049805,0
1.450021505355835,-11.323359489440918,3.3418173789978027,0
1.1616591215133667,-10.924424171447754,2.9481544494628906,0
0.04806700348854065,-10.107863426208496,3.3777384757995605,0
-1.1513383388519287,-9.017807006835938,4.131214618682861,0
-2.33197283744812,-7.4753313064575195,4.557095527648926,0
-3.085615634918213,-5.580921173095703,5.1930341720581055,0
-3.3610167503356934,-3.2123465538024902,5.759438514709473,0
-3.681265354156494,-0.1854839324951172,6.0463337898254395,0
-4.344935417175293,3.26986026763916,6.0160746574401855,0
-4.816849708557129,6.331189155578613,5.790916442871094,0
-4.299617767333984,8.669554710388184,5.1261982917785645,0
-3.1187233924865723,9.872740745544434,4.456597805023193,0
-1.6117970943450928,10.205469131469727,3.8972532749176025,0
0.15232934057712555,9.673654556274414,2.9786739349365234,0
1.2058722972869873,7.922224044799805,2.3592584133148193,0
0.8328326940536499,5.124878883361816,1.9151761531829834,0
0.2090338170528412,2.299027442932129,1.409769058227539,0
0.14978408813476562,-0.01979541778564453,0.881434977054596,0
0.44237643480300903,-1.6386232376098633,0.5263867974281311,0
0.718512773513794,-2.747354507446289,0.37813764810562134,0
0.8183997869491577,-3.5906710624694824,0.3005650043487549,0
0.7976850867271423,-4.238443374633789,0.3872518539428711,0
0.7193385362625122,-4.729457855224609,0.5899447798728943,0
0.6757714748382568,-4.9805145263671875,0.7354558110237122,0
0.7288750410079956,-5.142798900604248,0.7365533113479614,0
0.629300594329834,-5.080374717712402,0.680660605430603,0
0.5631856322288513,-5.013652801513672,0.5291846990585327,0
0.39294540882110596,-4.660645484924316,0.45693495869636536,0
0.32566624879837036,-4.447445392608643,0.6386345624923706,0
-0.1395137906074524,-4.338160514831543,0.26274874806404114,0
-0.19247817993164062,-4.00008487701416,0.638684093952179,0
-0.25253450870513916,-2.952651023864746,0.711247444152832,0
-0.1845412254333496,-2.0404725074768066,0.44674474000930786,0
-0.4951820373535156,-0.9164314270019531,0.06974118947982788,0
-0.46838176250457764,-0.28354454040527344,-0.16922920942306519,0
-0.755631148815155,0.21041584014892578,-0.4547645151615143,0
-0.9997128248214722,0.3432960510253906,-0.32260894775390625,0
-1.4784436225891113,0.4000520706176758,-0.5552006363868713,0
-1.6559888124465942,0.17273998260498047,-0.846097469329834,0
-1.6504795551300049,-0.1757211685180664,-0.5611755847930908,0
-1.8323466777801514,-0.5951118469238281,-0.8874120712280273,0
-1.8492308855056763,-0.9874258041381836,-0.9773160219192505,0
-1.676512598991394,-1.823845386505127,-0.9480788707733154,0
-1.643980622291565,-2.3985772132873535,-1.0335406064987183,0
-1.3789429664611816,-2.5422167778015137,-0.9529009461402893,0
-1.1946384906768799,-2.781324863433838,-1.0577223300933838,0
-1.076074481010437,-2.5347065925598145,-1.208866000175476,0
-1.0346938371658325,-2.491560935974121,-1.3950741291046143,0
-1.0480186939239502,-2.197244167327881,-1.5257759094238281,0
-1.1919021606445312,-1.790715217590332,-1.591339111328125,0
-1.1860108375549316,-1.346207618713379,-1.6826834678649902,0
-1.2594525814056396,-1.0597963333129883,-1.6923243999481201,0
-1.4769600629806519,-0.809356689453125,-1.6465613842010498,0
-1.5683118104934692,-0.7526617050170898,-1.6698451042175293,0
-1.2769936323165894,-0.9492473602294922,-1.1660109758377075,0
-1.3142296075820923,-0.8799304962158203,-1.185880422592163,0
-1.0435535907745361,-1.3077630996704102,-1.306309700012207,0
-1.0375912189483643,-1.115570068359375,-1.0478755235671997,0
-0.6522979736328125,-1.4470539093017578,-1.1284232139587402,0
-0.3948010802268982,-1.290144920349121,-1.2004503011703491,0
-0.7536294460296631,-0.7100343704223633,-1.8977477550506592,0
0.1603163182735443,-0.7474355697631836,-1.1070855855941772,0
0.2153853327035904,-0.30409908294677734,-1.13986074924469,0
0.03866177052259445,0.4734992980957031,-1.1823281049728394,0
0.28886353969573975,0.8150186538696289,-1.1319646835327148,0
0.38719120621681213,1.5553817749023438,-0.6938380002975464,0
0.4776078462600708,2.127312660217285,-0.46572548151016235,0
0.5104726552963257,2.7173843383789062,-0.16662883758544922,0
0.4617096781730652,2.71829891204834,-0.43134981393814087,0
0.29772546887397766,2.4728031158447266,-0.939913272857666,0
-0.06061305105686188,2.6482553482055664,-1.0316345691680908,0
-0.5323125123977661,2.835346221923828,-1.6143351793289185,0
-0.7919571995735168,2.670779228210449,-2.3470778465270996,0
-1.1193392276763916,3.0611419677734375,-2.4782557487487793,0
-1.5838831663131714,3.6542320251464844,-2.749777317047119,0
-1.7065727710723877,3.8185653686523438,-3.099651336669922,0
-2.0475800037384033,4.161947250366211,-3.1446475982666016,0
-2.31809401512146,4.385183334350586,-3.130674362182617,0
-2.604698419570923,4.442896842956543,-2.9852182865142822,0
-2.715878486633301,3.861865997314453,-3.1294398307800293,0
-2.8821284770965576,3.348334312438965,-3.0948357582092285,0
-3.190819263458252,2.70623779296875,-3.307752847671509,0
-3.088470220565796,2.150864601135254,-3.219851016998291,0
-3.053962230682373,1.5363473892211914,-3.367891788482666,0
-3.1400885581970215,1.0468835830688477,-3.254223108291626,0
-3.164705991744995,0.7037906646728516,-2.8046159744262695,0
-3.1099348068237305,0.35619068145751953,-2.22969388961792,0
-2.986952304840088,0.1953592300415039,-1.809438943862915,0
-2.989293098449707,0.06560134887695312,-1.3736064434051514,0
-2.518495559692383,0.0193939208984375,-1.2037333250045776,0
-2.680293321609497,-0.1443033218383789,-0.9016357660293579,0
-2.665602445602417,-0.3513507843017578,-0.2581189274787903,0
-2.742197275161743,-0.5229425430297852,0.5773544907569885,0
-2.8325488567352295,-0.5300350189208984,1.449571132659912,0
-2.8495378494262695,-0.40142154693603516,2.159116744995117,0
-3.000272512435913,-0.2543220520019531,2.7650678157806396,0
-3.252300262451172,-0.184356689453125,3.291208267211914,0
-3.5824573040008545,0.05251789093017578,3.493556261062622,0
-3.793816328048706,0.15014171600341797,3.532517433166504,0
-3.6852715015411377,0.11116695404052734,3.595409631729126,0
-2.997032403945923,0.22765350341796875,3.873825788497925,0
-1.7738579511642456,0.8774375915527344,4.534669399261475,0
-0.3444988429546356,1.7516593933105469,4.916543483734131,0
1.266528606414795,2.654193878173828,5.0070600509643555,0
2.88151216506958,3.5541067123413086,4.952361106872559,0
4.076189994812012,4.482633590698242,4.95173454284668,0
5.044997692108154,5.191198348999023,4.7496819496154785,0
6.168464660644531,5.924073219299316,4.202199459075928,0
6.845325946807861,6.270023345947266,3.3179614543914795,0
7.0558671951293945,6.420812606811523,2.3398990631103516,0
6.890349388122559,6.630058288574219,1.6663706302642822,0
6.233261585235596,6.766033172607422,1.178991675376892,0
5.430934429168701,6.699525833129883,0.790924072265625,0
4.863996982574463,6.3470306396484375,0.7180202007293701,0
4.5017218589782715,6.191887855529785,1.032332181930542,0
4.438838005065918,5.860918998718262,1.3127477169036865,0
3.9972786903381348,5.62225341796875,1.3302282094955444,0
3.6207244396209717,5.346737861633301,1.4032115936279297,0
3.3887453079223633,4.99613094329834,0.9804137945175171,0
3.343057632446289,4.596769332885742,0.32604461908340454,0
3.0150458812713623,4.0936479568481445,-0.12746286392211914,0
2.5333030223846436,3.570556640625,0.11788070201873779,0
2.0496480464935303,2.3365259170532227,0.644536554813385,0
1.6035709381103516,1.2986421585083008,0.9174362421035767,0
1.4002444744110107,0.09321784973144531,1.2051243782043457,0
0.9215667843818665,-0.6819190979003906,1.0701264142990112,0
0.4947431683540344,-1.0896797180175781,0.9666700959205627,0
0.10691523551940918,-1.4295883178710938,0.9376278519630432,0
0.36988937854766846,-1.6467523574829102,1.0311298370361328,0
0.6509795784950256,-1.827437400817871,1.2523562908172607,0
0.4944841265678406,-2.1560182571411133,1.362121820449829,0
0.5672241449356079,-2.3766536712646484,1.5229511260986328,0
0.4933200478553772,-2.812504768371582,1.552229642868042,0
0.4978421926498413,-3.3057994842529297,1.0900839567184448,0
-0.1469942331314087,-3.8713064193725586,0.7191307544708252,0
-0.38069212436676025,-4.3514323234558105,0.7296533584594727,0
-0.7007977962493896,-4.634017467498779,0.7645590305328369,0
-1.2647191286087036,-4.8963799476623535,0.6727383136749268,0
-1.0404654741287231,-4.920901775360107,0.7721478939056396,0
-1.5802576541900635,-4.944526195526123,0.8426827192306519,0
-1.7987723350524902,-5.074653148651123,0.9324449300765991,0
-1.8050752878189087,-5.1292195320129395,0.9244472980499268,0
-1.5505261421203613,-5.158402442932129,0.7854135036468506,0
-0.9668238162994385,-5.032846927642822,0.7979743480682373,0
-0.5390774011611938,-4.924708843231201,0.8716251850128174,0
-0.6665823459625244,-5.094496250152588,0.9327104091644287,0
-0.537370502948761,-5.183067321777344,0.8093903064727783,0
0.10747712850570679,-5.025430679321289,0.7268052101135254,0
0.3924860656261444,-4.930269241333008,0.7712843418121338,0
0.30105650424957275,-4.964423179626465,0.8354237079620361,0
0.4077925682067871,-5.010530948638916,0.8548040390014648,0
0.7057807445526123,-4.836678981781006,0.7958929538726807,0
0.7686803340911865,-4.30226993560791,0.8018925189971924,0
1.082456111907959,-4.412009239196777,0.724574089050293,0
1.1229692697525024,-4.2684831619262695,0.8031363487243652,0
1.210852861404419,-4.118493556976318,0.6949920654296875,0
1.386810302734375,-3.9598488807678223,0.6318366527557373,0
1.631801962852478,-3.8094358444213867,0.5511140823364258,0
1.8550419807434082,-3.6482419967651367,0.4405808448791504,0
2.123643159866333,-3.4787302017211914,0.4077775478363037,0
2.4592366218566895,-3.0140910148620605,0.46189022064208984,0
2.648622989654541,-3.4070968627929688,0.0771932601928711,0
2.9264845848083496,-3.401308059692383,-0.07375931739807129,0
3.046398878097534,-3.1694912910461426,-0.30478453636169434,0
3.1087403297424316,-2.900695323944092,-0.38103508949279785,0
3.120750904083252,-2.582960605621338,-0.4938678741455078,0
3.11842942237854,-2.319077491760254,-0.6023592948913574,0
2.9605870246887207,-2.0082406997680664,-0.5454046726226807,0
2.709399461746216,-1.6598529815673828,-0.5831801891326904,0
2.3574368953704834,-1.31917142868042,-0.6670525074005127,0
2.098295211791992,-0.9835700988769531,-0.753220796585083,0
1.6826952695846558,-0.6695384979248047,-0.7380468845367432,0
1.3472535610198975,-0.3337373733520508,-0.7594220638275146,0
1.0560210943222046,0.0861368179321289,-0.8334915637969971,0
0.6654343605041504,0.5279474258422852,-0.9453542232513428,0
0.45084893703460693,1.0108299255371094,-1.1904804706573486,0
0.5038141012191772,1.5585756301879883,-1.6718263626098633,0
0.14469636976718903,1.970254898071289,-2.049485445022583,0
0.1419599950313568,2.4994421005249023,-2.421858072280884,0
0.09610438346862793,3.0552053451538086,-2.599843978881836,0
0.053079307079315186,3.53231143951416,-2.8706817626953125,0
-0.0471876859664917,3.916378974914551,-3.4164185523986816,0
-0.33495649695396423,4.106715202331543,-4.1158528327941895,0
-0.1909427046775818,4.158041954040527,-4.724159240722656,0
0.10203137993812561,4.07480525970459,-5.1594014167785645,0
0.22971946001052856,3.749187469482422,-5.523320198059082,0
0.05931729078292847,3.2457656860351562,-5.9792327880859375,0
0.05672001838684082,2.6291255950927734,-6.13774299621582,0
0.04929542541503906,1.9972867965698242,-6.183799743652344,0
-0.7799931168556213,0.7261676788330078,-6.024033546447754,0
-1.2307562828063965,-0.4110584259033203,-5.957259654998779,0
-1.2869572639465332,-1.4526734352111816,-5.667288780212402,0
-1.4352335929870605,-2.3101158142089844,-5.404691219329834,0
-1.5856353044509888,-3.037806987762451,-4.305813789367676,0
-1.640554428100586,-3.479551315307617,-2.65303897857666,0
-1.2094707489013672,-3.6640777587890625,-2.0171592235565186,0
-0.6359157562255859,-3.5073351860046387,-0.6709024906158447,0
0.035733699798583984,-2.985072135925293,0.7583925724029541,0
0.8646959066390991,-2.113971710205078,1.8918344974517822,0
1.941158652305603,-0.8202390670776367,2.9163200855255127,0
2.8953492641448975,0.8044233322143555,3.675234079360962,0
3.695075511932373,2.8259801864624023,4.3866777420043945,0
4.038339614868164,5.54209041595459,5.0527663230896,0
3.8765928745269775,9.28364086151123,5.630765914916992,0
3.445237398147583,14.34253978729248,6.287552833557129,0
3.7719268798828125,20.066669464111328,5.70911169052124,0
4.348779678344727,24.503101348876953,5.177111625671387,0
3.2973098754882812,26.905887603759766,5.057295799255371,0
4.396608352661133,25.168581008911133,5.423223495483398,0
6.002187252044678,19.650043487548828,7.1451568603515625,0
4.4326653480529785,13.320740699768066,9.061105728149414,0
2.0330810546875,8.076438903808594,8.667032241821289,0
1.0887043476104736,4.128253936767578,6.921734809875488,0
0.8719936013221741,1.105341911315918,4.528897285461426,0
0.9970943927764893,-1.4464473724365234,2.279186248779297,0
1.3320826292037964,-3.772152900695801,1.1173021793365479,0
1.5067089796066284,-5.867120742797852,1.2244292497634888,0
1.0922071933746338,-7.41065788269043,2.1949610710144043,0
0.8471079468727112,-8.561003684997559,2.99601149559021,0
0.8939570188522339,-9.221048355102539,2.7890827655792236,0
0.8622525930404663,-9.71018123626709,2.1126084327697754,0
1.3567081689834595,-10.105587005615234,1.9765264987945557,0
1.4811930656433105,-10.278827667236328,1.8681747913360596,0
1.2436150312423706,-10.142434120178223,1.604819893836975,0
0.499803364276886,-9.613471984863281,1.9356374740600586,0
-0.466613233089447,-8.809919357299805,2.6527514457702637,0
-1.5919944047927856,-7.8804545402526855,3.3942174911499023,0
-2.4724526405334473,-6.772470474243164,4.103315830230713,0
-3.4242568016052246,-5.313679218292236,4.877389907836914,0
-4.029109954833984,-3.434880256652832,5.4453840255737305,0
-4.430769443511963,-1.2439804077148438,5.581711292266846,0
-4.888609409332275,1.077239990234375,5.534824371337891,0
-5.106601238250732,3.098687171936035,5.579179286956787,0
-4.606451511383057,4.756697654724121,5.371543884277344,0
-3.571744680404663,5.714982032775879,4.89603328704834,0
-2.3423497676849365,6.089391708374023,4.169620037078857,0
-0.6410322189331055,6.127065658569336,3.2089343070983887,0
0.6739165782928467,5.281039237976074,2.586002826690674,0
1.7354354858398438,3.887289047241211,2.1308465003967285,0
1.7830829620361328,2.042107582092285,1.6806976795196533,0
1.400202989578247,0.1931629180908203,1.3890178203582764,0
1.625375509262085,-1.4729318618774414,1.2113547325134277,0
1.7815194129943848,-2.509232521057129,0.952608048915863,0
2.113274097442627,-3.0361452102661133,0.646994948387146,0
2.1286139488220215,-3.422677993774414,0.2709394693374634,0
2.005946159362793,-3.6237707138061523,0.010854661464691162,0
1.9672565460205078,-3.9124202728271484,-0.1650523543357849,0
1.82763671875,-4.025681018829346,-0.2861454486846924,0
1.6986011266708374,-3.85396146774292,-0.2020862102508545,0
1.418889045715332,-3.546027660369873,-0.1950845718383789,0
1.293874979019165,-3.128476619720459,-0.03959488868713379,0
1.0688856840133667,-2.8814101219177246,-0.07797282934188843,0
0.5678461790084839,-2.422292709350586,-0.08772140741348267,0
0.056220054626464844,-2.569308280944824,-0.0988185703754425,0
-0.3787475824356079,-2.441725254058838,0.11503654718399048,0
-0.8314434289932251,-1.853257656097412,0.07726562023162842,0
-1.0246977806091309,-1.1318321228027344,0.06554171442985535,0
-1.2696764469146729,-0.5403690338134766,0.046854257583618164,0
-1.777031421661377,-0.2913179397583008,-0.4430311322212219,0
-2.0908000469207764,-0.19762134552001953,-0.5044769048690796,0
-2.590987205505371,-0.605778694152832,-1.0715653896331787,0
-3.3383333683013916,-0.9916257858276367,-1.6495609283447266,0
-3.2114741802215576,-1.3408517837524414,-1.3271807432174683,0
-3.062537670135498,-1.9953885078430176,-1.3566019535064697,0
-3.163414478302002,-2.271113395690918,-1.4172285795211792,0
-2.840540885925293,-2.921751022338867,-1.4016932249069214,0
-2.5685811042785645,-3.25103759765625,-1.2255247831344604,0
-2.276437997817993,-3.364607810974121,-1.1779060363769531,0
-2.019045352935791,-3.4754819869995117,-1.3903342485427856,0
-1.965996265411377,-3.337339401245117,-1.4265682697296143,0
-1.9491238594055176,-2.8332910537719727,-1.402835726737976,0
-1.862441062927246,-2.5901851654052734,-1.4650450944900513,0
-1.9491758346557617,-2.0242204666137695,-1.4404563903808594,0
-1.9884161949157715,-1.4227123260498047,-1.4841229915618896,0
-1.9965589046478271,-0.976994514465332,-1.6101148128509521,0
-1.9209816455841064,-0.5793018341064453,-1.7081794738769531,0
-1.8478801250457764,-0.33960819244384766,-1.8834080696105957,0
-1.3341038227081299,-0.2936229705810547,-1.4893304109573364,0
-1.3422613143920898,-0.11597633361816406,-1.5025811195373535,0
-1.3298155069351196,-0.5958347320556641,-1.6396996974945068,0
-1.1991169452667236,-0.6779155731201172,-1.5466508865356445,0
-1.1992197036743164,-0.5229778289794922,-1.4193415641784668,0
-1.0762760639190674,-0.7074871063232422,-1.5716805458068848,0
-1.1942849159240723,-0.566319465637207,-1.6158156394958496,0
-1.2061725854873657,-0.209930419921875,-1.493890643119812,0
-1.3608136177062988,-0.03313732147216797,-1.5813815593719482,0
-1.3226721286773682,0.3444051742553711,-1.5880069732666016,0
-1.1439858675003052,0.48253536224365234,-1.6505560874938965,0
-1.1929248571395874,0.5203075408935547,-1.7958087921142578,0
-1.1747658252716064,0.8594427108764648,-1.647491693496704,0
-1.060128092765808,1.0141220092773438,-1.7724190950393677,0
-1.0084736347198486,1.5057086944580078,-1.6315298080444336,0
-0.7200959920883179,1.2913618087768555,-1.831064224243164,0
-0.7473976612091064,1.2111997604370117,-1.8780285120010376,0
-0.7020575404167175,1.248185157775879,-1.690759301185608,0
-0.7041279077529907,1.0124826431274414,-2.1549453735351562,0
-0.772247314453125,1.0041570663452148,-2.181973457336426,0
-0.8708118796348572,0.7162361145019531,-2.658630847930908,0
-1.2162392139434814,1.0049858093261719,-2.7278404235839844,0
-1.3730354309082031,1.374617576599121,-2.721928119659424,0
-1.3483068943023682,1.5835590362548828,-2.830167293548584,0
-1.5692110061645508,2.2106447219848633,-2.884970188140869,0
-1.442566156387329,2.3634395599365234,-3.1038718223571777,0
-1.230118751525879,2.652181625366211,-3.1083900928497314,0
-1.0598114728927612,2.942690849304199,-3.1803503036499023,0
-0.4605811834335327,2.739933967590332,-3.190180778503418,0
-0.13936711847782135,2.876558303833008,-3.0251247882843018,0
0.6383970975875854,2.7209415435791016,-2.876984119415283,0
0.9636619091033936,2.5986719131469727,-2.5832901000976562,0
1.252695918083191,2.253870964050293,-2.0246520042419434,0
1.207282304763794,2.035837173461914,-1.3707499504089355,0
1.16057550907135,1.8151817321777344,-0.6402798891067505,0
0.951104998588562,1.907236099243164,0.28521084785461426,0
0.8054153323173523,1.9813728332519531,1.1459064483642578,0
0.36195501685142517,2.0517969131469727,2.0073742866516113,0
0.08328726887702942,2.1302871704101562,2.6791861057281494,0
-0.0046881139278411865,2.2811927795410156,3.2650651931762695,0
-0.71541827917099,2.444652557373047,3.75341796875,0
-1.129193902015686,2.6756534576416016,4.096667766571045,0
-1.816175937652588,2.9285659790039062,4.75721549987793,0
-2.985574245452881,2.9522104263305664,5.482275009155273,0
-3.8522326946258545,2.6704578399658203,5.664237976074219,0
-4.3624396324157715,1.9694576263427734,5.109566688537598,0
-4.602122783660889,1.816218376159668,4.830930709838867,0
-4.262905120849609,2.478287696838379,4.985217571258545,0
-3.026815891265869,3.163760185241699,5.217660903930664,0
-0.917617917060852,3.6053409576416016,5.180628299713135,0
1.0190095901489258,3.9663171768188477,4.8378705978393555,0
2.723228693008423,4.318799018859863,4.4380106925964355,0
3.9454755783081055,4.734643936157227,4.093677520751953,0
4.543855667114258,5.132473945617676,3.769075870513916,0
4.509137153625488,5.378368377685547,3.076265811920166,0
4.361944198608398,5.630282402038574,2.4615864753723145,0
4.058592796325684,5.775724411010742,2.1507933139801025,0
3.64939284324646,5.695101737976074,2.3131861686706543,0
3.1323630809783936,5.541572570800781,2.6354823112487793,0
2.5469229221343994,5.250604629516602,2.7110884189605713,0
2.1145987510681152,4.984963417053223,2.4344890117645264,0
1.8945813179016113,4.639444351196289,1.8963603973388672,0
1.9027094841003418,4.5585126876831055,1.3648380041122437,0
2.010995864868164,4.344953536987305,0.7705032825469971,0
2.001936912536621,4.180635452270508,0.17560270428657532,0
1.9162497520446777,3.8669891357421875,-0.45830434560775757,0
1.7152819633483887,3.3658790588378906,-0.8632127046585083,0
1.4315861463546753,2.3881406784057617,-0.8665979504585266,0
1.132202386856079,1.556117057800293,-0.48702967166900635,0
0.8513792157173157,0.4226675033569336,-0.2617408037185669,0
0.79475337266922,0.0116119384765625,0.11792212724685669,0
0.7250099182128906,-0.5650815963745117,0.47442686557769775,0
0.5748922824859619,-0.7645034790039062,0.768915057182312,0
0.40421262383461,-1.007948875427246,1.0325801372528076,0
0.2603362202644348,-1.3862762451171875,1.3011987209320068,0
-0.16573703289031982,-1.6961250305175781,1.3547241687774658,0
-0.723439633846283,-2.0739288330078125,1.382199764251709,0
-0.5850318670272827,-2.1658425331115723,1.2895530462265015,0
-0.7559347748756409,-2.1062469482421875,1.2917847633361816,0
-0.8805062770843506,-2.1273465156555176,1.5874872207641602,0
-1.4125120639801025,-2.2603955268859863,1.8030071258544922,0
-1.512846827507019,-2.479234218597412,2.1456451416015625,0
-1.4379997253417969,-2.7721433639526367,2.2505862712860107,0
-1.7360917329788208,-3.299687385559082,2.2075700759887695,0
-2.3951010704040527,-4.0620527267456055,2.1827876567840576,0
-2.473560333251953,-4.561951160430908,1.8496466875076294,0
-2.02255916595459,-4.811629772186279,1.853997826576233,0
-1.9262398481369019,-4.993095874786377,1.8489134311676025,0
-1.345733642578125,-4.926990985870361,1.84914231300354,0
-0.849598228931427,-4.68517541885376,1.757363200187683,0
0.1495041847229004,-4.250857353210449,1.8615403175354004,0
0.4217386841773987,-4.071182727813721,1.94016432762146,0
0.5297902822494507,-4.02366828918457,2.003793954849243,0
0.9118343591690063,-4.165413856506348,1.9644641876220703,0
1.1349091529846191,-4.048893451690674,1.9950616359710693,0
1.323699712753296,-4.054667949676514,1.8085139989852905,0
1.1837384700775146,-4.295032978057861,1.6489707231521606,0
1.2150895595550537,-4.480427265167236,1.5809201002120972,0
1.1807408332824707,-4.756843090057373,1.5946072340011597,0
1.2218955755233765,-4.8612871170043945,1.5676686763763428,0
1.2882734537124634,-4.942404747009277,1.4758203029632568,0
1.398937463760376,-4.885644912719727,1.3569682836532593,0
1.407827377319336,-4.897031784057617,1.213038682937622,0
1.41562020778656,-4.869077682495117,1.0866494178771973,0
1.4629939794540405,-4.859415054321289,0.9414575099945068,0
1.5093104839324951,-4.817908763885498,0.8203186988830566,0
1.5403333902359009,-4.761413097381592,0.696746826171875,0
1.5826878547668457,-4.773684024810791,0.5730288028717041,0
1.6557459831237793,-4.701637268066406,0.42755842208862305,0
1.656855583190918,-4.375657081604004,0.29369163513183594,0
1.6291821002960205,-4.544321537017822,0.12398838996887207,0
1.5056742429733276,-4.360401630401611,0.06474947929382324,0
1.4037154912948608,-4.178197860717773,-0.1400306224822998,0
1.1772563457489014,-4.016608715057373,-0.2791924476623535,0
0.9864552617073059,-3.851591110229492,-0.47217631340026855,0
0.8098994493484497,-3.644718647003174,-0.6037559509277344,0
0.33834683895111084,-3.4147567749023438,-0.4887537956237793,0
-0.026679813861846924,-3.0849084854125977,-0.6096184253692627,0
-0.20148193836212158,-2.6741867065429688,-0.8242852687835693,0
-0.38489484786987305,-2.1871728897094727,-0.9619505405426025,0
-0.4763709604740143,-1.6116628646850586,-1.0431129932403564,0
-0.39197027683258057,-0.9833307266235352,-1.0931146144866943,0
-0.286945104598999,-0.29957103729248047,-1.1348752975463867,0
-0.12538301944732666,0.3513460159301758,-1.145873785018921,0
0.10459736734628677,0.9720067977905273,-1.204378366470337,0
0.4223945140838623,1.6725177764892578,-1.2764651775360107,0
0.7107976675033569,2.3834638595581055,-1.3499701023101807,0
0.9533337950706482,2.9541549682617188,-1.5469017028808594,0
1.0354504585266113,3.573465347290039,-2.018419027328491,0
0.9408911466598511,4.147735595703125,-2.684117078781128,0
0.8858641386032104,4.774609565734863,-3.571712017059326,0
0.4995887577533722,5.221578598022461,-4.486686706542969,0
0.08289150893688202,5.469030380249023,-5.641873359680176,0
0.19738255441188812,5.621593475341797,-6.642948150634766,0
-0.030171096324920654,5.327336311340332,-7.137955665588379,0
-0.5231688022613525,4.689289093017578,-7.494261264801025,0
-0.5382122993469238,3.865682601928711,-7.582948684692383,0
-1.2017252445220947,2.45778751373291,-7.132699966430664,0
-1.8187625408172607,1.1170434951782227,-6.953432083129883,0
-1.7531455755233765,-0.09658432006835938,-6.647024154663086,0
-1.8934818506240845,-1.1853418350219727,-6.375119209289551,0
-2.964046001434326,-2.4503960609436035,-6.136374473571777,0
-3.1030611991882324,-3.451144218444824,-5.7548322677612305,0
-3.3036282062530518,-4.198671817779541,-3.695974111557007,0
-3.3377676010131836,-4.632498741149902,-1.646211862564087,0
-2.8690671920776367,-4.6637654304504395,-0.011583566665649414,0
-2.096867322921753,-4.184556007385254,1.787719964981079,0
-1.093316912651062,-3.3506317138671875,2.5018692016601562,0
-0.10240542888641357,-2.234259605407715,3.009028196334839,0
1.0167509317398071,-0.9150543212890625,3.6496200561523438,0
2.0528111457824707,0.8619899749755859,4.344339370727539,0
2.837833881378174,3.31805419921875,5.207676887512207,0
3.561325788497925,6.8151655197143555,5.957408905029297,0
3.9718387126922607,11.693138122558594,6.27033805847168,0
3.9087278842926025,18.550735473632812,6.450518608093262,0
4.267488956451416,25.106853485107422,5.05647087097168,0
3.595386028289795,29.52103042602539,4.073247909545898,0
3.379978656768799,30.04629898071289,4.171051979064941,0
5.361961841583252,25.014476776123047,5.558289051055908,0
5.233964920043945,17.091888427734375,8.355491638183594,0
2.7580349445343018,10.220476150512695,9.415485382080078,0
1.290622353553772,4.980330467224121,8.023321151733398,0
0.8447147607803345,0.9189062118530273,5.104175567626953,0
0.8046451807022095,-2.040668487548828,1.9988025426864624,0
1.1235932111740112,-4.455112934112549,0.6612899303436279,0
1.7633576393127441,-6.432530403137207,0.8947662115097046,0
2.2510268688201904,-7.681595802307129,0.945730447769165,0
2.6373682022094727,-8.284457206726074,0.9345577955245972,0
2.79902982711792,-8.686652183532715,1.2944352626800537,0
2.8671505451202393,-8.833598136901855,1.9335129261016846,0
2.010631561279297,-8.702128410339355,1.911864161491394,0
1.2914414405822754,-8.570283889770508,1.9769201278686523,0
0.7137486934661865,-8.459802627563477,2.074671983718872,0
0.18544147908687592,-8.218059539794922,2.2027928829193115,0
-0.33285418152809143,-7.972454071044922,2.3969779014587402,0
-1.226309061050415,-7.5943732261657715,2.769465446472168,0
-2.2245326042175293,-7.089159965515137,3.3445334434509277,0
-3.253192186355591,-6.428668975830078,3.972031831741333,0
-3.973554849624634,-5.348058223724365,4.509249687194824,0
-4.0868730545043945,-3.9581313133239746,5.074496269226074,0
-4.100640773773193,-1.9868464469909668,5.515984058380127,0
-4.033573150634766,0.12289047241210938,5.986942291259766,0
-3.9540247917175293,2.0173768997192383,6.255948543548584,0
-4.006734848022461,3.6018381118774414,6.327178955078125,0
-3.821866989135742,4.643043518066406,6.212538719177246,0
-2.931230068206787,5.391037940979004,5.88333797454834,0
-1.3164570331573486,5.8850812911987305,5.267788887023926,0
0.38959670066833496,5.652627944946289,4.595609188079834,0
1.890387773513794,4.7309160232543945,3.8523917198181152,0
2.825985908508301,3.3004608154296875,3.1361687183380127,0
2.9001243114471436,1.665635108947754,2.5848677158355713,0
2.74053955078125,0.2809114456176758,2.0174689292907715,0
2.80830979347229,-0.7991485595703125,1.4296526908874512,0
2.9092905521392822,-1.5176887512207031,0.843058168888092,0
2.842327117919922,-2.1312036514282227,0.08031541109085083,0
2.738929271697998,-2.6232361793518066,-0.3396083116531372,0
2.533900737762451,-3.108841896057129,-0.3162819743156433,0
2.2358250617980957,-3.5284337997436523,-0.28265899419784546,0
2.0538856983184814,-3.791468620300293,-0.10948377847671509,0
1.4526172876358032,-3.8219919204711914,-0.4383705258369446,0
1.3307756185531616,-3.7974424362182617,0.07770949602127075,0
0.8520134091377258,-3.481428623199463,0.0387214720249176,0
0.7503810524940491,-3.321648597717285,0.3005818724632263,0
0.012323975563049316,-3.2249794006347656,0.09356474876403809,0
-0.3625439405441284,-2.883058547973633,0.17951981723308563,0
-0.22920620441436768,-2.7144622802734375,0.9233696460723877,0
-0.47997790575027466,-2.874199390411377,0.8730339407920837,0
-0.8011351227760315,-2.374081611633301,1.0713374614715576,0
-1.2363978624343872,-1.5662336349487305,0.9464704990386963,0
-1.6951310634613037,-1.0414257049560547,0.49397462606430054,0
-1.9551106691360474,-0.6412754058837891,0.08257362991571426,0
-2.3506429195404053,-0.3894777297973633,-0.5514391660690308,0
-2.474637269973755,-0.3814363479614258,-0.9156206846237183,0
-2.5717999935150146,-0.4351310729980469,-1.0605604648590088,0
-2.4849977493286133,-0.7178688049316406,-1.0918223857879639,0
-2.524502754211426,-1.0501022338867188,-1.0164196491241455,0
-2.270430326461792,-1.4939699172973633,-0.9847394227981567,0
-2.0132548809051514,-1.7193822860717773,-0.8905212879180908,0
-1.6147656440734863,-2.1761326789855957,-1.0469400882720947,0
-1.2425825595855713,-2.3761239051818848,-1.3122005462646484,0
-1.0614911317825317,-2.4129037857055664,-1.3554611206054688,0
-0.9134250283241272,-2.470768928527832,-1.3921785354614258,0
-1.4736435413360596,-2.51629638671875,-1.6297378540039062,0
-1.2766473293304443,-2.3271303176879883,-1.0355230569839478,0
-1.5689839124679565,-1.829483985900879,-1.1666654348373413,0
-1.4694154262542725,-1.5856456756591797,-1.2188618183135986,0
-1.806706190109253,-1.3897628784179688,-1.6057370901107788,0
-1.750882863998413,-1.0122976303100586,-1.817376732826233,0
-1.7327549457550049,-0.7309093475341797,-1.86549711227417,0
-1.372080683708191,-0.7080106735229492,-1.9210731983184814,0
-1.5089521408081055,-0.5702304840087891,-2.25256085395813,0
-0.8813877701759338,-0.7265825271606445,-1.8167064189910889,0
-1.0397722721099854,-0.6792449951171875,-2.3203678131103516,0
-1.2709602117538452,-0.44521141052246094,-2.729583263397217,0
-1.5968915224075317,-0.3331899642944336,-2.908064365386963,0
-1.7253743410110474,-0.44579315185546875,-2.930506706237793,0
-2.0322840213775635,-0.16829967498779297,-2.8060216903686523,0
-2.295079469680786,0.4269275665283203,-2.447539806365967,0
-2.065514087677002,0.43806934356689453,-2.2021942138671875,0
-1.8714065551757812,0.7337722778320312,-1.8662230968475342,0
-1.60184645652771,1.4258756637573242,-1.5103449821472168,0
-1.0627248287200928,1.863417625427246,-1.218061923980713,0
-0.6938793063163757,2.455545425415039,-0.6259025931358337,0
-0.7273135185241699,3.032137870788574,-0.5799994468688965,0
0.046391263604164124,3.2962703704833984,0.7377344369888306,0
-0.01105731725692749,2.892441749572754,-0.3022744655609131,0
-0.6609108448028564,2.4435386657714844,-1.320565938949585,0
-1.693811297416687,2.3394775390625,-1.9304879903793335,0
-2.015627384185791,1.7789278030395508,-2.334434986114502,0
-2.793306350708008,2.1971912384033203,-2.8369951248168945,0
-2.9680137634277344,2.493185043334961,-3.5295352935791016,0
-3.4134764671325684,3.348318099975586,-3.9466614723205566,0
-3.2538981437683105,3.4896163940429688,-4.431823253631592,0
-3.124796152114868,3.582484245300293,-4.5267133712768555,0
-2.989684581756592,3.4571409225463867,-4.539552688598633,0
-2.764420986175537,3.090104103088379,-4.4519944190979,0
-2.354689836502075,2.4293622970581055,-4.23716402053833,0
-2.218947410583496,2.0660572052001953,-3.9199469089508057,0
-2.1540091037750244,1.7846899032592773,-3.4888954162597656,0
-2.227418899536133,1.3221797943115234,-3.0709264278411865,0
-2.179255962371826,1.240468978881836,-2.3636717796325684,0
-2.193300247192383,1.082350730895996,-1.8240160942077637,0
-2.304070472717285,1.0964689254760742,-1.324366807937622,0
-1.8895957469940186,1.1962823867797852,-0.6054345369338989,0
-1.7294422388076782,1.2452526092529297,0.07499992847442627,0
-1.6991304159164429,1.1954889297485352,0.5097899436950684,0
-1.4326870441436768,1.2310562133789062,0.8725600242614746,0
-1.2598248720169067,1.3253135681152344,1.2963618040084839,0
-0.9788082242012024,1.5138931274414062,1.7725991010665894,0
-0.8281813859939575,1.6436147689819336,2.1006956100463867,0
-0.910088300704956,1.7050104141235352,2.4986515045166016,0
-0.9649081230163574,1.7866783142089844,2.9281840324401855,0
-1.3542778491973877,1.7834577560424805,3.3077821731567383,0
-1.9851350784301758,1.6263179779052734,3.4070839881896973,0
-2.9516255855560303,1.1029348373413086,3.3926570415496826,0
-3.31534743309021,0.6252555847167969,3.8145265579223633,0
-2.807833194732666,0.7148208618164062,4.315580368041992,0
-1.6069622039794922,1.079620361328125,4.693990707397461,0
-0.04250151664018631,1.4805383682250977,4.853449821472168,0
1.286298155784607,2.015829086303711,4.975388050079346,0
2.5313971042633057,2.829000473022461,4.9949517250061035,0
4.0552215576171875,3.762094497680664,4.5503082275390625,0
4.968262195587158,4.84614372253418,4.069570541381836,0
5.52720832824707,5.739046096801758,3.6409246921539307,0
5.738356113433838,6.381234169006348,3.2376577854156494,0
5.524998664855957,6.648634910583496,2.9240646362304688,0
5.011224269866943,6.534461975097656,2.508450508117676,0
4.481518268585205,6.318874359130859,2.476381778717041,0
4.050930976867676,6.174100875854492,2.286623477935791,0
4.081625461578369,5.918329238891602,2.0106821060180664,0
3.981635570526123,5.709562301635742,1.543532371520996,0
3.7655999660491943,5.688846588134766,1.3287224769592285,0
3.6526551246643066,5.602425575256348,1.1914167404174805,0
3.777036428451538,5.251890182495117,0.8987500667572021,0
3.998434066772461,4.826401710510254,0.41578519344329834,0
4.085625171661377,4.383328437805176,-0.16064774990081787,0
3.8000853061676025,3.9058876037597656,-0.3116876482963562,0
3.247244358062744,2.9350099563598633,-0.1757267713546753,0
2.4284393787384033,2.045111656188965,0.25997281074523926,0
1.785017728805542,1.0997600555419922,0.8790894746780396,0
1.455010175704956,0.15883636474609375,1.1848796606063843,0
1.1390427350997925,-0.44060707092285156,0.9047122001647949,0
0.8444305658340454,-1.328282356262207,0.6798428297042847,0
0.5742816925048828,-2.0447912216186523,0.6605151891708374,0
-0.5196645259857178,-2.315030097961426,0.9984230399131775,0
-1.4268242120742798,-2.5989298820495605,1.1333909034729004,0
-1.767538070678711,-2.8776402473449707,1.0190095901489258,0
-1.7572689056396484,-3.1057987213134766,1.1478033065795898,0
-2.045285940170288,-3.4031882286071777,1.1870557069778442,0
-2.276235818862915,-3.695812702178955,1.3448762893676758,0
-2.0440673828125,-4.060356616973877,1.699629783630371,0
-2.016909122467041,-4.48979377746582,1.6310828924179077,0
-2.4366350173950195,-4.903201580047607,1.2076328992843628,0
-2.7159688472747803,-5.542435646057129,1.0736632347106934,0
-2.2900736331939697,-5.7638936042785645,1.0319081544876099,0
-1.9897704124450684,-5.818960189819336,1.099077582359314,0
-1.452251672744751,-5.722132682800293,0.9736131429672241,0
-0.860722541809082,-5.518925666809082,0.866418719291687,0
-0.2738623023033142,-5.283420085906982,0.988398551940918,0
0.3236311674118042,-4.939016819000244,1.0431922674179077,0
0.5398156642913818,-4.997533321380615,0.9905166625976562,0
0.6695460677146912,-5.056751251220703,0.7829148769378662,0
1.0697270631790161,-5.176375865936279,0.7126281261444092,0
1.0341404676437378,-5.387337684631348,0.8207476139068604,0
1.2159056663513184,-5.328272342681885,0.9883315563201904,0
1.2796727418899536,-5.372402667999268,1.132225751876831,0
1.2468218803405762,-5.311507225036621,1.3006550073623657,0
1.3495280742645264,-5.310735702514648,1.2161774635314941,0
1.2836437225341797,-5.190863132476807,1.0388872623443604,0
1.1879663467407227,-5.107595920562744,0.938330888748169,0
1.1296801567077637,-4.919992446899414,0.806307315826416,0
1.1137746572494507,-4.7024664878845215,0.6973910331726074,0
1.1501063108444214,-4.577062129974365,0.632896900177002,0
1.2269091606140137,-4.321385383605957,0.5455610752105713,0
1.39711594581604,-4.196233749389648,0.3277924060821533,0
1.5964404344558716,-4.0626630783081055,0.1713099479675293,0
1.7149983644485474,-3.753267765045166,-0.05295681953430176,0
1.9154932498931885,-3.5048828125,-0.29439353942871094,0
2.006255865097046,-3.2982330322265625,-0.5527365207672119,0
2.089982271194458,-3.013632297515869,-0.7846856117248535,0
2.108689546585083,-2.691704750061035,-0.8989875316619873,0
2.105074405670166,-2.3730268478393555,-0.9671392440795898,0
2.0763213634490967,-2.0837182998657227,-0.9216716289520264,0
1.947920322418213,-1.778116226196289,-0.821850061416626,0
1.8511583805084229,-1.518301010131836,-0.7127926349639893,0
1.6470316648483276,-1.2251253128051758,-0.5412726402282715,0
1.4241729974746704,-0.9104833602905273,-0.4313633441925049,0
1.2330348491668701,-0.5791501998901367,-0.5167789459228516,0
1.0619480609893799,-0.30515003204345703,-0.5147349834442139,0
0.8155341744422913,-0.011706352233886719,-0.4797072410583496,0
0.5802963376045227,0.3370981216430664,-0.5166890621185303,0
0.3780665993690491,0.6312189102172852,-0.7307677268981934,0
0.2258317470550537,0.9640264511108398,-0.9541809558868408,0
0.1669151484966278,1.3260345458984375,-1.1386983394622803,0
0.2349284291267395,1.6790227890014648,-1.3678288459777832,0
0.35545945167541504,2.011002540588379,-1.7899250984191895,0
0.4275777339935303,2.290713310241699,-2.367140531539917,0
0.5684129595756531,2.649542808532715,-3.071269989013672,0
0.19379255175590515,2.867086410522461,-3.8769092559814453,0
-0.11010950803756714,3.0816650390625,-4.895782470703125,0
-0.2498154640197754,3.194690704345703,-5.730345726013184,0
-0.4941657781600952,3.083981513977051,-6.219377040863037,0
-1.1196632385253906,2.6540136337280273,-6.437650680541992,0
-1.2295918464660645,2.2254772186279297,-6.404980659484863,0
-1.3185433149337769,1.7075605392456055,-6.011214256286621,0
-2.0203537940979004,0.9163217544555664,-5.765271186828613,0
-2.105708599090576,0.19893455505371094,-5.747734546661377,0
-2.089073419570923,-0.5209875106811523,-5.548770904541016,0
-1.977536678314209,-1.2385034561157227,-5.579445838928223,0
-2.4249627590179443,-2.1108317375183105,-4.708441734313965,0
-2.191429615020752,-2.541506767272949,-3.060451030731201,0
-1.985039234161377,-2.757871150970459,-2.2276439666748047,0
-1.460851788520813,-2.7070837020874023,-1.1144230365753174,0
-0.8504449129104614,-2.324227809906006,0.35791921615600586,0
-0.03086310625076294,-1.623673915863037,1.525486707687378,0
1.0613148212432861,-0.557830810546875,2.6854028701782227,0
2.204698324203491,0.8392019271850586,3.592702865600586,0
3.2287240028381348,2.571321487426758,4.128235340118408,0
4.037606239318848,5.1731157302856445,4.512039661407471,0
4.322667121887207,8.910733222961426,4.8351006507873535,0
4.275999069213867,14.12136459350586,5.1754302978515625,0
4.179152011871338,20.210159301757812,4.756772994995117,0
3.7068474292755127,25.689979553222656,3.7923941612243652,0
2.9087748527526855,28.89324951171875,3.5012004375457764,0
3.4912073612213135,26.563690185546875,3.944967746734619,0
5.361403465270996,19.760162353515625,6.097785472869873,0
4.281196117401123,12.6327486038208,8.606818199157715,0
2.220228672027588,7.315723419189453,8.777217864990234,0
1.4124974012374878,3.4238739013671875,7.204120635986328,0
0.8975995182991028,0.4930744171142578,5.026961326599121,0
0.6646993160247803,-1.8564224243164062,3.1256089210510254,0
1.1351853609085083,-3.757235050201416,2.189122200012207,0
1.7537531852722168,-5.356027603149414,1.739587426185608,0
2.241363286972046,-6.636626243591309,1.43630051612854,0
1.8536697626113892,-7.563586711883545,1.4370067119598389,0
1.395694375038147,-8.472105026245117,1.7678380012512207,0
1.2228612899780273,-9.046709060668945,2.17453932762146,0
1.187336802482605,-9.240288734436035,2.0747756958007812,0
0.5494401454925537,-8.962664604187012,1.525604248046875,0
0.8878685235977173,-9.034585952758789,2.349592447280884,0
0.23471036553382874,-8.894179344177246,1.9937156438827515,0
-0.6128373742103577,-8.52289867401123,2.1553475856781006,0
-1.717321753501892,-7.871001720428467,2.8350956439971924,0
-2.7633728981018066,-6.998867034912109,3.5862326622009277,0
-3.5857818126678467,-5.837700843811035,4.239902496337891,0
-4.014068603515625,-4.26378870010376,4.6465654373168945,0
-4.246077060699463,-2.280205726623535,5.013421535491943,0
-4.402698993682861,-0.13370227813720703,5.249344348907471,0
-4.510710716247559,1.802811622619629,5.3767313957214355,0
-4.689070701599121,3.4512948989868164,5.550863742828369,0
-4.468991756439209,4.6000213623046875,5.595188140869141,0
-3.6439056396484375,5.233382225036621,5.10760498046875,0
-1.9754775762557983,5.730058670043945,4.01511287689209,0
-0.15627002716064453,5.511843681335449,2.9695870876312256,0
1.64859938621521,4.620678901672363,2.353065013885498,0
2.704141855239868,3.3159799575805664,2.019012928009033,0
2.167402982711792,1.7179126739501953,1.531083345413208,0
1.543818473815918,0.053963661193847656,1.033744215965271,0
1.413570523262024,-1.250187873840332,0.9055911898612976,0
1.404734492301941,-2.0563840866088867,0.6635934710502625,0
1.5283918380737305,-2.4753899574279785,0.2884770631790161,0
1.4655653238296509,-2.7517547607421875,-0.007274270057678223,0
1.7062478065490723,-2.9431657791137695,-0.013543367385864258,0
1.9751578569412231,-3.0593786239624023,0.11848974227905273,0
1.6946885585784912,-3.1317715644836426,0.05806303024291992,0
1.4425745010375977,-3.131930351257324,0.09181565046310425,0
1.3038105964660645,-3.03861665725708,0.25500789284706116,0
1.186639428138733,-2.8090829849243164,0.353189617395401,0
1.1022891998291016,-2.367147445678711,0.4123186767101288,0
0.8392288684844971,-1.8136916160583496,0.3123946785926819,0
0.5163636207580566,-1.4192075729370117,0.1775113344192505,0
0.4784192740917206,-1.315007209777832,0.8354867100715637,0
0.10743296146392822,-1.0393590927124023,0.5488759279251099,0
-0.19626957178115845,-1.4533185958862305,0.12714684009552002,0
-0.10263413190841675,-1.491745948791504,0.48580896854400635,0
-0.24360978603363037,-1.2146587371826172,0.504798412322998,0
-0.4137611389160156,-1.1435174942016602,0.3686225414276123,0
-0.714171826839447,-1.1224699020385742,0.1947481483221054,0
-1.1295740604400635,-1.2302751541137695,-0.15079760551452637,0
-1.5188310146331787,-1.5121965408325195,-0.5343358516693115,0
-1.800961971282959,-1.781508445739746,-0.7072310447692871,0
-2.034212827682495,-1.7465367317199707,-0.6600172519683838,0
-1.831144094467163,-1.9838685989379883,-0.6682833433151245,0
-1.8625507354736328,-2.148861885070801,-0.5357713103294373,0
-1.7032158374786377,-2.241626739501953,-0.47492164373397827,0
-1.4517828226089478,-2.2718167304992676,-0.5403227806091309,0
-1.3023037910461426,-2.258634567260742,-0.5089819431304932,0
-1.1877152919769287,-2.1782336235046387,-0.6213971376419067,0
-1.0411930084228516,-2.140721321105957,-0.6209380626678467,0
-1.1786489486694336,-1.8925995826721191,-0.8521836996078491,0
-1.3271331787109375,-1.728254795074463,-1.0013083219528198,0
-1.314337968826294,-1.4395618438720703,-1.173388957977295,0
-1.307420253753662,-1.165369987487793,-1.284212589263916,0
-1.2170658111572266,-0.7143697738647461,-1.2662917375564575,0
-1.2042105197906494,-0.5602121353149414,-1.4915709495544434,0
-1.3005924224853516,-0.5208292007446289,-1.6564788818359375,0
-1.1423624753952026,-0.37613773345947266,-1.5212457180023193,0
-1.2130167484283447,-0.2937030792236328,-1.4803752899169922,0
-1.3044326305389404,-0.2996864318847656,-2.0463685989379883,0
-0.8949725031852722,-0.5733633041381836,-1.340720772743225,0
-0.8911684155464172,-0.4568748474121094,-1.3324124813079834,0
-1.132845401763916,-0.3859386444091797,-1.453900694847107,0
-1.081815481185913,-0.633026123046875,-1.5813692808151245,0
-1.0610744953155518,-0.5808124542236328,-1.5140466690063477,0
-1.2884643077850342,-0.5357503890991211,-1.5534173250198364,0
-1.2325505018234253,-0.35677623748779297,-1.4551652669906616,0
-1.3623311519622803,-0.03215980529785156,-1.5752768516540527,0
-1.1893870830535889,0.02672576904296875,-1.6868739128112793,0
-1.269026279449463,0.1048116683959961,-1.902804970741272,0
-1.1531496047973633,0.3765869140625,-1.9212335348129272,0
-1.056571125984192,0.6433181762695312,-1.8832082748413086,0
-1.1748113632202148,1.0220794677734375,-1.8359888792037964,0
-0.9493496417999268,1.024942398071289,-1.7485498189926147,0
-1.0141077041625977,1.0349321365356445,-1.8601257801055908,0
-0.9902080297470093,1.3172130584716797,-1.444658637046814,0
-0.7934799194335938,1.3501319885253906,-1.3802744150161743,0
-0.6374620795249939,1.126861572265625,-1.667075753211975,0
-0.6892083883285522,1.2023382186889648,-1.4337667226791382,0
-0.4964512586593628,0.9092283248901367,-1.7653344869613647,0
-0.48872265219688416,0.8674325942993164,-2.095396041870117,0
-0.6525235176086426,1.3635368347167969,-2.3090617656707764,0
-0.302826464176178,1.5097551345825195,-2.4160497188568115,0
-0.20378616452217102,2.0049266815185547,-2.5874648094177246,0
-0.2753908634185791,2.549729347229004,-2.710794448852539,0
-0.22796349227428436,3.0984888076782227,-2.6535441875457764,0
0.09417787939310074,3.005624771118164,-2.9445180892944336,0
0.18014127016067505,3.120677947998047,-3.1187047958374023,0
0.35521039366722107,2.8408117294311523,-3.2765326499938965,0
0.5572749376296997,2.4510889053344727,-3.157512664794922,0
0.5139124393463135,2.001885414123535,-2.8218729496002197,0
0.5300767421722412,1.7203388214111328,-2.221607208251953,0
0.29275378584861755,1.8833980560302734,-1.3726003170013428,0
0.15296509861946106,1.9762516021728516,-0.7024374604225159,0
-0.3078913688659668,2.2883214950561523,-0.16074848175048828,0
-0.7881969213485718,2.5944652557373047,0.4780266284942627,0
-1.3259071111679077,2.7941341400146484,1.238452434539795,0
-1.587186574935913,3.0810413360595703,2.039517879486084,0
-2.090048313140869,3.208817481994629,2.785292625427246,0
-2.6779587268829346,3.1490249633789062,3.3224847316741943,0
-3.204075813293457,2.7966156005859375,3.869556427001953,0
-3.5189523696899414,2.431624412536621,4.126016616821289,0
-3.678187370300293,1.9034957885742188,4.027580261230469,0
-3.986696481704712,0.9544944763183594,3.8149333000183105,0
-3.632556676864624,0.4198904037475586,3.7650208473205566,0
-2.9783408641815186,0.35918617248535156,3.772603988647461,0
-1.8542355298995972,0.6382102966308594,3.5337677001953125,0
-0.815795361995697,0.9506692886352539,3.4657516479492188,0
-0.1287815123796463,1.571603775024414,3.677405834197998,0
0.558944821357727,2.2521562576293945,3.805250883102417,0
1.24876070022583,2.9662342071533203,3.7743892669677734,0
1.6913496255874634,3.5730037689208984,3.808300495147705,0
1.9848008155822754,4.192399978637695,3.905095100402832,0
1.9904301166534424,4.676356315612793,3.780142307281494,0
1.676527500152588,4.8529205322265625,3.6446352005004883,0
1.3075611591339111,4.889739036560059,3.5239882469177246,0
1.032971978187561,4.59311580657959,3.303300142288208,0
0.875465452671051,4.262141227722168,2.963632822036743,0
1.081512689590454,3.944551467895508,2.5149099826812744,0
1.443420648574829,3.946319580078125,1.9163203239440918,0
2.0651559829711914,4.145078659057617,1.354222059249878,0
2.9241771697998047,4.279987335205078,0.8164875507354736,0
3.5814120769500732,4.379855155944824,0.40637335181236267,0
3.8245692253112793,4.463852882385254,0.19844233989715576,0
3.986506938934326,4.410038948059082,-0.03431516885757446,0
3.92579984664917,4.024833679199219,-0.2703949213027954,0
3.4305477142333984,3.41365909576416,-0.2585127353668213,0
2.851351261138916,2.562284469604492,0.15684032440185547,0
2.454066753387451,1.3157634735107422,0.5372864007949829,0
1.7327773571014404,0.73150634765625,1.011336088180542,0
1.261249303817749,0.02433490753173828,1.2794759273529053,0
0.8530616760253906,0.05986499786376953,1.3737514019012451,0
0.4797089695930481,0.18867015838623047,1.811409831047058,0
1.166590929031372,-0.46420764923095703,2.442136287689209,0
0.7062099575996399,-1.0791072845458984,2.4539666175842285,0
-0.10633337497711182,-0.893153190612793,2.754364490509033,0
-0.7809154987335205,-0.539311408996582,2.6521878242492676,0
-1.9145548343658447,-0.6310024261474609,1.9254999160766602,0
-2.4622995853424072,-0.9720859527587891,0.939534068107605,0
-2.308469533920288,-1.3828659057617188,0.6503579616546631,0
-1.6770013570785522,-1.7506041526794434,1.2364252805709839,0
-1.0903220176696777,-1.9077677726745605,2.014427423477173,0
-0.5942491292953491,-1.9908647537231445,2.3510372638702393,0
-0.348659873008728,-2.126821517944336,2.2485404014587402,0
-0.3050093650817871,-2.4807701110839844,2.0219485759735107,0
-0.019767045974731445,-2.7320685386657715,2.1035990715026855,0
0.02699100971221924,-2.988436222076416,2.0241541862487793,0
0.2982657551765442,-3.249673843383789,2.066255807876587,0
0.4192968010902405,-3.446511745452881,1.9231171607971191,0
0.6373535394668579,-3.5049986839294434,1.7164227962493896,0
0.7280442118644714,-3.6809654235839844,1.9801785945892334,0
1.4026834964752197,-3.7517685890197754,2.032614231109619,0
1.6180143356323242,-4.026171684265137,1.6583611965179443,0
1.6902742385864258,-4.310401439666748,1.2664738893508911,0
1.9189057350158691,-4.420229434967041,1.2519398927688599,0
1.5264049768447876,-4.5542778968811035,1.3732140064239502,0
1.200048565864563,-4.659887790679932,1.4987953901290894,0
1.026126742362976,-4.6080241203308105,1.5401315689086914,0
0.6860869526863098,-4.446941375732422,1.3700921535491943,0
0.6032117009162903,-4.112361907958984,1.2827650308609009,0
0.6461582183837891,-3.8867335319519043,1.2228431701660156,0
0.7220504283905029,-3.8322324752807617,1.1014186143875122,0
0.70902419090271,-3.7407913208007812,0.8201196193695068,0
0.6838087439537048,-3.6101207733154297,0.6062450408935547,0
0.7279152870178223,-3.325498104095459,0.490861177444458,0
0.7553337216377258,-3.1787338256835938,0.3546426296234131,0
0.7588920593261719,-2.9089365005493164,0.21468424797058105,0
0.9062010049819946,-2.702713966369629,0.06637430191040039,0
1.0125154256820679,-2.593442916870117,-0.1738278865814209,0
0.9432332515716553,-2.466102123260498,-0.3762061595916748,0
0.8823246955871582,-2.3706789016723633,-0.35590553283691406,0
1.0139096975326538,-2.3237218856811523,-0.28493213653564453,0
0.9379153251647949,-2.2963786125183105,-0.37342262268066406,0
0.9888506531715393,-2.293346405029297,-0.43444037437438965,0
0.7639049291610718,-2.295461654663086,-0.6257522106170654,0
0.7871483564376831,-2.037015914916992,-0.4154844284057617,0
1.1530557870864868,-2.15889835357666,0.11041402816772461,0
0.82548588514328,-2.3499956130981445,-0.40482664108276367,0
0.6205598711967468,-2.2179136276245117,-0.37644290924072266,0
0.883385419845581,-2.212498664855957,-0.3500697612762451,0
0.6568619012832642,-2.16866397857666,-0.4836888313293457,0
0.35645967721939087,-1.711014747619629,-0.6309816837310791,0
0.11350903660058975,-1.3059930801391602,-0.5062088966369629,0
-0.13605406880378723,-1.0393552780151367,-0.5105500221252441,0
-0.006222918629646301,-0.8175468444824219,-0.456920862197876,0
-0.01350460946559906,-0.5399837493896484,-0.5626201629638672,0
-0.05473136901855469,-0.16366100311279297,-0.7244858741760254,0
-0.16064254939556122,0.24190330505371094,-0.868478536605835,0
-0.35251930356025696,0.7674322128295898,-1.0188963413238525,0
-0.42901185154914856,1.068380355834961,-1.2286255359649658,0
-0.4947252869606018,1.104365348815918,-1.3638203144073486,0
-0.2838025987148285,0.9927453994750977,-1.680983304977417,0
-0.3113183379173279,1.247542381286621,-2.111421823501587,0
-0.2859969139099121,1.5356788635253906,-2.600848436355591,0
-0.46196237206459045,1.7157516479492188,-2.932558059692383,0
-0.27958786487579346,1.641733169555664,-3.3373537063598633,0
-0.29976019263267517,1.5072765350341797,-3.7707858085632324,0
-0.3033527731895447,1.2667884826660156,-4.1115264892578125,0
-0.30090823769569397,0.9203033447265625,-4.245102882385254,0
-0.4103569984436035,0.4201068878173828,-4.365412712097168,0
-0.6013493537902832,-0.08053779602050781,-4.3860979080200195,0
-0.807668924331665,-0.48351192474365234,-4.330774307250977,0
-0.8996671438217163,-0.7529640197753906,-4.325961112976074,0
-1.0786070823669434,-1.1949224472045898,-4.21066951751709,0
-1.3161453008651733,-1.6536426544189453,-4.041989803314209,0
-1.1745039224624634,-2.0548553466796875,-3.879380464553833,0
-1.0122287273406982,-2.5013537406921387,-3.6484930515289307,0
-0.6954901218414307,-2.8401641845703125,-3.7802343368530273,0
-1.0552480220794678,-3.1933650970458984,-3.6188690662384033,0
-1.0292205810546875,-3.2764906883239746,-3.545320510864258,0
-0.9091781377792358,-3.3411169052124023,-3.617692708969116,0
-0.7831443548202515,-3.540297508239746,-3.5347580909729004,0
-0.6147562265396118,-3.6558828353881836,-2.8770949840545654,0
-0.5040915608406067,-3.35007381439209,-1.5447468757629395,0
-0.04106384515762329,-3.062887668609619,-0.8783793449401855,0
0.4428773522377014,-2.5641632080078125,0.12686371803283691,0
0.8507785797119141,-1.7793049812316895,1.3490722179412842,0
1.3508660793304443,-1.1242437362670898,1.9291585683822632,0
1.6394476890563965,0.09025287628173828,3.0724570751190186,0
2.1968250274658203,1.3133764266967773,3.6013033390045166,0
2.7040140628814697,3.2499303817749023,4.231550216674805,0
3.217545747756958,5.814671516418457,4.988980293273926,0
3.582015037536621,9.17591667175293,5.490580081939697,0
3.848397970199585,13.430054664611816,5.370795249938965,0
3.5138931274414062,18.792604446411133,4.132121562957764,0
3.533383369445801,24.01626205444336,2.981579303741455,0
3.4644336700439453,29.25375747680664,2.31539249420166,0
3.7521443367004395,30.782516479492188,1.9236035346984863,0
5.940478801727295,27.40829086303711,3.4453248977661133,0
7.4819746017456055,20.022499084472656,4.648898124694824,0
2.4690113067626953,13.13356876373291,4.300148963928223,0
-0.46028026938438416,6.800809860229492,3.236283779144287,0
-1.3009647130966187,1.3175325393676758,2.2230026721954346,0
-1.5807294845581055,-2.853545665740967,1.5107498168945312,0
-2.116704225540161,-5.891012191772461,1.1896889209747314,0
-1.739530086517334,-7.427734375,2.231158494949341,0
-0.5754928588867188,-7.8362274169921875,3.122194290161133,0
0.4097471535205841,-8.122596740722656,3.7514543533325195,0
1.0795667171478271,-8.667668342590332,4.033817291259766,0
1.2713836431503296,-8.69956111907959,3.8998422622680664,0
1.961283564567566,-10.41226863861084,3.3714632987976074,0
1.9538493156433105,-9.761476516723633,2.4908339977264404,0
1.4850025177001953,-9.09157657623291,2.1460862159729004,0
0.6318141222000122,-8.130350112915039,1.7594285011291504,0
-0.2776411175727844,-6.818741798400879,1.7292799949645996,0
-2.2071049213409424,-5.0615620613098145,1.1153342723846436,0
-1.5370844602584839,-4.604163646697998,2.683039903640747,0
-1.7242934703826904,-4.213582515716553,2.950446367263794,0
-3.5229761600494385,-1.9437170028686523,2.9217300415039062,0
-2.533723831176758,-0.71429443359375,3.5649194717407227,0
-3.9241676330566406,1.1636638641357422,3.1199443340301514,0
-4.015505790710449,3.020038604736328,4.557911396026611,0
-4.787993907928467,4.868633270263672,4.088760852813721,0
-4.358138084411621,6.068171501159668,2.9416427612304688,0
-4.0772705078125,6.727840423583984,2.702181339263916,0
-4.2819952964782715,6.553168296813965,2.906938314437866,0
-3.5466723442077637,5.938648223876953,3.5425608158111572,0
-2.2554612159729004,5.789063453674316,2.5746898651123047,0
-0.873706579208374,3.921031951904297,1.1395665407180786,0
0.121924489736557,2.015997886657715,0.8619457483291626,0
1.2904547452926636,0.0745086669921875,0.7433685064315796,0
1.7311222553253174,-3.0517578125E-5,0.16117572784423828,0
1.1496381759643555,0.08333969116210938,0.6410390138626099,0
1.1191343069076538,-0.6360273361206055,1.6650197505950928,0
1.442995548248291,-1.504399299621582,1.674555778503418,0
1.2607107162475586,-2.12772274017334,0.9156912565231323,0
1.3420896530151367,-2.765401840209961,0.4503418207168579,0
0.8349956274032593,-3.6310553550720215,-0.026510238647460938,0
1.1623358726501465,-4.311057090759277,0.7192827463150024,0
2.0470809936523438,-4.423406600952148,1.2270087003707886,0
2.1761207580566406,-4.545548439025879,1.1111502647399902,0
2.027947425842285,-4.809260845184326,1.29354727268219,0
2.6525402069091797,-5.1737141609191895,2.1508331298828125,0
1.8633062839508057,-5.227613925933838,2.526848793029785,0
1.8261473178863525,-4.44542932510376,3.201005458831787,0
1.5077778100967407,-2.790072441101074,3.380542278289795,0
1.4286587238311768,-1.0779075622558594,3.6612548828125,0
1.5308977365493774,-0.3962526321411133,4.2294020652771,0
1.4500383138656616,0.43282508850097656,4.502228736877441,0
0.8985751271247864,1.1672554016113281,3.508361339569092,0
0.3774982988834381,1.6636180877685547,2.908902645111084,0
0.2664710283279419,2.4818801879882812,2.3071775436401367,0
0.05280447006225586,2.8258113861083984,2.417996644973755,0
0.15051895380020142,2.481207847595215,2.522799253463745,0
0.26968812942504883,2.0970726013183594,2.2137954235076904,0
0.07864809036254883,2.1563940048217773,1.7840336561203003,0
0.1869509220123291,1.5490150451660156,1.4152721166610718,0
0.7694430947303772,0.7228317260742188,0.9442500472068787,0
0.492770791053772,-0.1856689453125,0.8449204564094543,0
0.46264326572418213,-0.8869466781616211,1.115417718887329,0
0.4893781542778015,-1.1258535385131836,0.7177356481552124,0
0.5182793736457825,-1.3718681335449219,0.6648753881454468,0
0.5471553206443787,-1.9020590782165527,1.2834104299545288,0
0.9629606008529663,-1.9196553230285645,1.5889569520950317,0
1.1943367719650269,-1.226675033569336,2.0393474102020264,0
2.267556667327881,-1.4743518829345703,1.0701956748962402,0
3.1790566444396973,-2.5282907485961914,-1.1027792692184448,0
1.44620680809021,-1.1589365005493164,0.5447096824645996,0
0.35916441679000854,0.45048046112060547,2.0547120571136475,0
0.6909130811691284,0.5179347991943359,1.1689784526824951,0
0.20605427026748657,1.0487146377563477,0.2815603017807007,0
-0.7153335809707642,1.4684629440307617,0.7569553256034851,0
-0.8359642028808594,1.0290775299072266,0.9443075656890869,0
-0.8261352777481079,1.039658546447754,1.2150732278823853,0
-1.0948494672775269,1.353947639465332,1.5966343879699707,0
-0.7366758584976196,1.1467037200927734,1.557416319847107,0
-0.3181205987930298,0.6575937271118164,1.0986714363098145,0
-0.19572627544403076,0.3388338088989258,1.0383892059326172,0
-0.28599047660827637,-0.010628700256347656,1.0562520027160645,0
-0.27097201347351074,-0.2567939758300781,1.1170860528945923,0
-0.5127232074737549,-0.6127157211303711,1.034285068511963,0
-1.849609375,-1.2029199600219727,0.5274112820625305,0
-1.3022165298461914,-1.1876468658447266,0.5299098491668701,0
-1.0215874910354614,-0.8424530029296875,0.5012602806091309,0
-0.6482633352279663,-0.8969669342041016,0.4129325747489929,0
-0.5721813440322876,-0.8461542129516602,0.2938835024833679,0
-0.2857757806777954,-0.7067680358886719,0.5394737720489502,0
-0.4597975015640259,-0.010408401489257812,0.49870774149894714,0
-0.4461709260940552,0.62994384765625,0.3072582483291626,0
-0.7800111770629883,0.7242755889892578,0.17814397811889648,0
-0.43334829807281494,0.46239757537841797,0.25967395305633545,0
-0.16775941848754883,0.37316131591796875,0.08549809455871582,0
0.2682200074195862,0.7481698989868164,0.481692910194397,0
0.24980616569519043,0.4605226516723633,0.18211722373962402,0
-0.0032444000244140625,0.12065696716308594,0.096035897731781,0
-0.005220651626586914,-0.04178619384765625,0.1541174054145813,0
-0.09848678112030029,-0.04617118835449219,0.06220841407775879,0
-0.29273509979248047,-0.19163036346435547,-0.17016065120697021,0
-0.5262883901596069,-0.5593585968017578,-0.31082582473754883,0
-0.6076384782791138,-0.7281970977783203,-0.39068639278411865,0
-0.6350939273834229,-0.8083686828613281,-0.4404844045639038,0
-0.8094121217727661,-0.8549308776855469,-0.11550348997116089,0
-0.7474832534790039,-0.7842473983764648,-0.5909224152565002,0
-0.8201466798782349,-0.5797510147094727,-0.6036412119865417,0
-0.8355355262756348,-0.4089241027832031,-0.46249788999557495,0
-0.9083600044250488,-0.6780319213867188,1.176134705543518,0
-0.988577127456665,-0.4566316604614258,-0.47010302543640137,0
-0.5729504823684692,-0.240264892578125,-0.5851268172264099,0
-0.9826909303665161,-0.3875999450683594,-0.10717236995697021,0
-1.0883352756500244,-0.35538482666015625,0.2462056279182434,0
-0.9856153726577759,-0.19644451141357422,0.1662866175174713,0
-0.9088590145111084,0.11059761047363281,0.32535111904144287,0
-0.848414421081543,-0.14937973022460938,0.4553025960922241,0
-1.0996341705322266,-0.583648681640625,0.40085431933403015,0
-1.4143340587615967,-1.1227474212646484,0.23867079615592957,0
-0.8754826784133911,-1.2021465301513672,-0.22050917148590088,0
-0.5287268161773682,-1.2001514434814453,-0.4402182102203369,0
-0.5179216861724854,-0.8466863632202148,-0.5945860743522644,0
-0.2850736975669861,-0.6442604064941406,-0.6666998267173767,0
0.16085529327392578,0.005122184753417969,-1.3150867223739624,0
0.26759445667266846,0.18514060974121094,-1.4008891582489014,0
-0.0221291184425354,0.01597118377685547,-1.131638765335083,0
-0.24180102348327637,-0.3274240493774414,-1.215508222579956,0
-0.2813670039176941,-0.6177072525024414,-1.5261799097061157,0
-0.32966822385787964,-0.3791074752807617,-1.635559320449829,0
-0.8442185521125793,-0.3368206024169922,-1.4666271209716797,0
-1.203752040863037,-0.1606893539428711,-1.1889110803604126,0
-1.7776732444763184,0.005549430847167969,-1.3122894763946533,0
-1.982320785522461,0.3914756774902344,-0.8459449410438538,0
-1.8047900199890137,0.6287155151367188,-0.5963810682296753,0
-1.3851966857910156,0.9662361145019531,-0.5085843205451965,0
-1.3298224210739136,1.4181346893310547,-0.5089412927627563,0
-1.0714137554168701,4.71518611907959,0.08551162481307983,0
2.525991439819336,1.0365543365478516,1.1564090251922607,0
-0.09381103515625,-0.2677726745605469,1.296275019645691,0
-0.250585675239563,0.2681407928466797,0.13414612412452698,0
0.02217620611190796,0.8178443908691406,0.5186419486999512,0
-0.15762180089950562,0.7358722686767578,0.9761791229248047,0
-0.4357481598854065,1.0822763442993164,1.1000871658325195,0
-0.6012296676635742,1.2970542907714844,1.3115555047988892,0
-0.7155075669288635,1.3708906173706055,1.5744497776031494,0
-0.48801469802856445,1.6722993850708008,1.800001621246338,0
-0.6677438020706177,2.3516321182250977,1.918605089187622,0
-0.23003768920898438,2.502267837524414,2.0451154708862305,0
0.21487212181091309,2.5170059204101562,1.8870656490325928,0
0.810191810131073,2.0779361724853516,1.5156843662261963,0
0.8075423240661621,1.9194660186767578,0.889520525932312,0
1.460038185119629,1.759047508239746,0.5227871537208557,0
2.1715307235717773,1.5154428482055664,0.6379653811454773,0
2.0757737159729004,1.1312894821166992,0.49994176626205444,0
2.7940468788146973,0.5326519012451172,0.1535407304763794,0
1.8896785974502563,-1.6197834014892578,-0.028868794441223145,0
-3.446870803833008,-12.265885353088379,3.2008132934570312,0
-1.1718244552612305,-3.951765537261963,-0.6617084741592407,0
11.821226119995117,10.237088203430176,-3.261181354522705,0
6.0929341316223145,7.147300720214844,-1.266528606414795,0
0.0881924033164978,2.3473892211914062,2.720355749130249,0
-1.07051420211792,-0.20141887664794922,-0.0911175012588501,0
-0.9012945890426636,-0.5429191589355469,-2.2907819747924805,0
-0.9735671877861023,0.22070884704589844,-1.390769600868225,0
-0.8631868958473206,0.5748310089111328,-0.2779977321624756,0
-0.6310802698135376,0.13254451751708984,0.14821112155914307,0
-0.3784414529800415,-0.1824188232421875,0.35378074645996094,0
-0.14938348531723022,-0.29156970977783203,0.4478614330291748,0
-0.0380437970161438,-0.4416208267211914,0.5281641483306885,0
0.4153650999069214,-0.598942756652832,1.0016852617263794,0
0.4426059424877167,-0.7253036499023438,0.9617282152175903,0
0.5368016958236694,-0.9140710830688477,0.8700364828109741,0
0.11910086870193481,-1.2154054641723633,0.590369701385498,0
0.28469014167785645,-1.5813465118408203,0.7927797436714172,0
0.40071314573287964,-2.0979623794555664,0.9100158214569092,0
0.593796968460083,-2.9637231826782227,1.138269305229187,0
1.783730149269104,-3.2335243225097656,1.5861997604370117,0
2.3731439113616943,-1.9799470901489258,0.9749067425727844,0
0.904213547706604,-0.6037683486938477,-0.16885614395141602,0
1.2046232223510742,-0.22904205322265625,0.507206916809082,0
1.1468347311019897,-0.017446517944335938,0.2430124282836914,0
1.2018345594406128,0.6910858154296875,-0.6335599422454834,0
0.5213863849639893,1.2884197235107422,-1.0746052265167236,0
-1.1289479732513428,1.2992401123046875,-0.7219140529632568,0
-0.5369939208030701,1.3842697143554688,-0.49188506603240967,0
0.039200425148010254,1.3208723068237305,-0.38030171394348145,0
0.6407824754714966,1.4726791381835938,-0.4325622320175171,0
0.6596051454544067,1.4209661483764648,-0.3254666328430176,0
0.9688763618469238,1.254486083984375,-0.4367712736129761,0
0.8286571502685547,1.1790237426757812,-0.5100877285003662,0
1.2752041816711426,1.2352285385131836,-0.09784018993377686,0
2.6396896839141846,1.4063005447387695,0.12270665168762207,0
3.8466930389404297,1.2665739059448242,0.23071372509002686,0
4.025672435760498,1.0819120407104492,0.45629334449768066,0
2.730678081512451,1.4262123107910156,0.620532751083374,0
2.489985466003418,1.2850980758666992,0.7099674940109253,0
2.7569580078125,1.7089776992797852,0.895027756690979,0
2.8019657135009766,1.6666641235351562,1.6852035522460938,0
2.356867551803589,1.9069461822509766,1.385919213294983,0
2.2380475997924805,1.89593505859375,0.8216795921325684,0
2.6763055324554443,1.5786867141723633,0.1464306116104126,0
2.901789665222168,1.2256240844726562,-0.35855555534362793,0
2.3546266555786133,1.2145214080810547,-0.6171259880065918,0
2.520961284637451,0.9662380218505859,-0.6659228801727295,0
2.368849039077759,0.7369108200073242,-0.7107716798782349,0
1.710953712463379,1.1628503799438477,-0.32424187660217285,0
0.8561504483222961,1.5905017852783203,0.40809059143066406,0
0.4872528612613678,2.911383628845215,0.2650120258331299,0
1.3409861326217651,3.255025863647461,1.3100954294204712,0
0.2989152669906616,3.3402862548828125,1.8930904865264893,0
-0.8915075659751892,2.013011932373047,2.1172728538513184,0
-0.2651936411857605,1.8045454025268555,1.5125913619995117,0
0.18736779689788818,1.7279777526855469,0.446832537651062,0
0.494362473487854,2.210866928100586,0.02511310577392578,0
0.6425234079360962,2.3055315017700195,-0.26486992835998535,0
0.3971334993839264,2.2754735946655273,0.048120856285095215,0
0.2738071084022522,2.5373716354370117,0.48469817638397217,0
0.14214962720870972,2.861217498779297,0.8524104356765747,0
-0.18970143795013428,3.268216133117676,0.5957098007202148,0
0.3405195474624634,3.119532585144043,0.018619060516357422,0
1.050195336341858,3.5111522674560547,-0.022757411003112793,0
0.490943968296051,3.591205596923828,0.2015993595123291,0
-0.012472450733184814,4.098727226257324,0.19842135906219482,0
0.003952682018280029,4.702643394470215,0.30688512325286865,0
-0.2307126522064209,4.893059730529785,0.9931098818778992,0
-0.3392374515533447,3.938206672668457,1.8557451963424683,0
-0.3827396631240845,3.8528366088867188,-1.5655548572540283,0
0.9703898429870605,5.168397903442383,-1.795958161354065,0
-0.8221560716629028,5.052085876464844,1.1744170188903809,0
-1.9928253889083862,4.124122619628906,0.24754714965820312,0
0.38003015518188477,3.3546905517578125,0.05072188377380371,0
0.17402279376983643,2.3850669860839844,0.7492030262947083,0
-0.3954118490219116,1.351710319519043,1.469337821006775,0
-0.00506746768951416,1.019918441772461,1.0317976474761963,0
0.8383821249008179,1.510359764099121,0.26693129539489746,0
0.8013853430747986,1.8270072937011719,-0.6481627225875854,0
0.280165433883667,2.5342578887939453,-0.8585026264190674,0
-0.13487911224365234,2.383601188659668,-1.3434330224990845,0
-0.14925193786621094,2.2703332901000977,-1.7968477010726929,0
0.6383000016212463,2.5630531311035156,-2.153839588165283,0
-0.6893429756164551,1.8818588256835938,-1.8024073839187622,0
-0.06630218029022217,1.182398796081543,-1.224475383758545,0
0.6892958879470825,-0.34769439697265625,-1.6635303497314453,0
1.0671675205230713,-2.047238349914551,-1.8876228332519531,0
0.846039354801178,-2.7062549591064453,-1.3212571144104004,0
0.4963340759277344,-2.603126049041748,-0.9125317335128784,0
0.5574048161506653,-2.1742849349975586,-1.2273805141448975,0
1.5044453144073486,-1.099557876586914,-2.004153251647949,0
0.723430335521698,-1.4143342971801758,-2.1178722381591797,0
1.6861095428466797,-1.1398372650146484,-2.1630146503448486,0
1.590929388999939,-0.8311977386474609,-1.9731515645980835,0
1.2391129732131958,-0.024389266967773438,-2.0169358253479004,0
1.379185676574707,0.06329822540283203,-2.112901449203491,0
2.4157931804656982,-2.357558250427246,-3.8413853645324707,0
2.8176233768463135,-3.1857643127441406,-5.299227714538574,0
3.08784818649292,-4.824737071990967,-5.982657432556152,0
2.6850593090057373,-5.58048152923584,-5.134239196777344,0
3.250553607940674,-5.071225643157959,-3.296064853668213,0
1.3811599016189575,1.203521728515625,-3.8670058250427246,0
0.9838287830352783,2.0726490020751953,-0.8006452322006226,0
1.0968042612075806,-2.162993907928467,-0.8986235857009888,0
2.045623540878296,-3.595642566680908,-0.28753501176834106,0
1.554384708404541,-6.818837642669678,-0.04115802049636841,0
1.591462254524231,-8.442434310913086,-0.6294568777084351,0
1.8279600143432617,-10.852911949157715,-0.8479002118110657,0
1.613152027130127,-11.697084426879883,-0.2750621438026428,0
1.0221049785614014,-11.491488456726074,0.5380591154098511,0
0.7954239845275879,-11.46696949005127,0.903895378112793,0
0.8584556579589844,-11.190950393676758,0.6016799211502075,0
1.3374696969985962,-10.175396919250488,0.7176873683929443,0
1.0733184814453125,-9.422647476196289,0.8466325998306274,0
0.7721962928771973,-7.047580718994141,2.451064109802246,0
-0.22025346755981445,-5.493318557739258,1.8619998693466187,0
-1.203545093536377,-4.02826452255249,-0.7362362742424011,0
-0.524620771408081,-2.0231122970581055,-1.2516462802886963,0
-0.5132138729095459,0.05413818359375,-1.487847089767456,0
-0.5128371715545654,1.3854446411132812,-1.7471661567687988,0
-0.5950500965118408,1.9198417663574219,-1.6653096675872803,0
-0.9768831729888916,1.5656023025512695,-1.6883995532989502,0
-0.6458122730255127,0.9435319900512695,-1.395295262336731,0
0.12850189208984375,1.0729484558105469,-1.669888973236084,0
-0.007943153381347656,1.283111572265625,-1.3452459573745728,0
-0.49364256858825684,1.1457767486572266,-0.9581615924835205,0
-0.4330253601074219,0.8359966278076172,-0.8161804676055908,0
0.06285452842712402,0.6346464157104492,-1.161195158958435,0
0.5444440841674805,0.3625516891479492,-1.136702060699463,0
0.5805606842041016,-0.030358314514160156,-1.4658606052398682,0
0.292588472366333,-0.31235313415527344,-0.9690475463867188,0
0.9991734027862549,-0.19413185119628906,-0.8824849128723145,0
-0.21993064880371094,-0.8147668838500977,-0.98651123046875,0
1.2738137245178223,-0.5891628265380859,-0.32092881202697754,0
2.734029531478882,-0.02493572235107422,-1.9333242177963257,0
-0.4616200923919678,-0.3512401580810547,-0.5310449600219727,0
0.34015345573425293,-0.5804972648620605,-0.768561840057373,0
0.8846259117126465,-0.753242015838623,-0.5278670787811279,0
0.9732269048690796,-1.331136703491211,-0.6204948425292969,0
0.25151562690734863,-1.8270654678344727,-0.19138479232788086,0
0.2711215019226074,-2.3184938430786133,0.6702713966369629,0
-0.24246501922607422,-2.225198268890381,0.4808497428894043,0
-0.5397143363952637,-2.6290855407714844,0.7847285270690918,0
-0.993722677230835,-2.564790725708008,1.2605071067810059,0
-1.211271047592163,-2.2706027030944824,1.8594980239868164,0
-1.8899006843566895,-1.4587650299072266,2.314328670501709,0
-1.8979973793029785,-0.4450407028198242,2.197665214538574,0
-1.6950058937072754,-0.6338105201721191,2.96049165725708,0
-2.2960731983184814,0.019878387451171875,2.565232753753662,0
-1.853895664215088,0.2704038619995117,2.6190576553344727,0
-1.2219624519348145,0.1000967025756836,2.158921241760254,0
-0.27181029319763184,0.4137430191040039,1.4450931549072266,0
-0.8719472885131836,-0.20743227005004883,1.5110111236572266,0
-0.8618779182434082,0.2936282157897949,1.4857277870178223,0
-0.2898426055908203,0.19339895248413086,1.374795913696289,0
-0.07944560050964355,-0.3707132339477539,0.6613864898681641,0
0.1255948543548584,-0.31523895263671875,0.3628253936767578,0
0.17285799980163574,0.379366397857666,-0.33056068420410156,0
0.5239026546478271,0.09637832641601562,0.26043701171875,0
0.3612651824951172,-0.4654426574707031,-0.008316516876220703,0
0.6701593399047852,-0.5247931480407715,0.44927358627319336,0
0.9213461875915527,0.6287441253662109,-0.3797941207885742,0
0.5820064544677734,-0.12191629409790039,0.3289942741394043,0
-0.24831366539001465,-0.12485170364379883,0.6145844459533691,0
1.5042822360992432,1.2603425979614258,0.970890998840332,0
-0.13519501686096191,0.5010871887207031,0.8129725456237793,0
-0.7477226257324219,0.4690284729003906,1.2053546905517578,0
0.7587807178497314,2.3524203300476074,1.803731918334961,0
0.5775980949401855,1.4474849700927734,1.4741950035095215,0
0.5054175853729248,0.4573025703430176,1.0244626998901367,0
0.11583971977233887,0.0018358230590820312,0.941779613494873,0
-0.1514441967010498,-0.2547130584716797,0.7737083435058594,0
-0.21722674369812012,-0.24922513961791992,0.33999156951904297,0
0.5690317153930664,-0.06287002563476562,0.6066985130310059,0
0.03790426254272461,-0.36079978942871094,0.174530029296875,0
0.027654170989990234,-0.24381780624389648,0.14829158782958984,0
0.7476603984832764,1.1187777519226074,-0.5085415840148926,0
0.27311253547668457,0.6620745658874512,-0.5553712844848633,0
0.3128795623779297,0.883209228515625,-0.07513809204101562,0
0.10930204391479492,0.5541529655456543,0.1015172004699707,0
0.03955435752868652,0.4214286804199219,0.0822300910949707,0
-0.04403495788574219,0.22679471969604492,0.16393518447875977,0
-0.1668410301208496,0.052150726318359375,0.023754596710205078,0
-0.08420467376708984,0.04394721984863281,-0.11339092254638672,0
-0.15571188926696777,-0.2457256317138672,-0.12539052963256836,0
-0.4595606327056885,-0.41580677032470703,-0.01497030258178711,0
-0.5946941375732422,-0.2877926826477051,0.19862127304077148,0
-1.127837896347046,-0.6565351486206055,0.38435935974121094,0
-1.3179755210876465,-0.8245105743408203,0.6840052604675293,0
-1.4465279579162598,-0.880615234375,0.5659246444702148,0
-1.6265888214111328,-0.6617469787597656,0.36437320709228516,0
-1.2719969749450684,0.0906834602355957,0.19947099685668945,0
-0.8241214752197266,0.6737546920776367,-1.093553066253662,0
-0.7996954917907715,0.3147549629211426,0.2799234390258789,0
-0.9623804092407227,0.1004018783569336,0.3569302558898926,0
-1.0402827262878418,-0.06756448745727539,0.30300474166870117,0
-1.058588981628418,-0.062033653259277344,0.29414844512939453,0
-1.0668730735778809,-0.031314849853515625,0.3664531707763672,0
-1.120615005493164,-0.016622543334960938,0.3358287811279297,0
-1.2283105850219727,-0.02633810043334961,0.35317182540893555,0
-1.1867170333862305,0.19158554077148438,0.2415938377380371,0
-1.243764877319336,0.14212942123413086,0.1991901397705078,0
-1.3521671295166016,0.6967086791992188,0.22918987274169922,0
-1.0399317741394043,0.6142573356628418,0.2352762222290039,0
-0.8920683860778809,0.24025440216064453,0.14919567108154297,0
-0.8278613090515137,-0.10275411605834961,0.017943859100341797,0
-0.7965140342712402,-0.3701648712158203,-0.1895442008972168,0
-0.7333731651306152,-0.5274109840393066,-0.4071168899536133,0
-0.6414384841918945,-0.5373749732971191,-0.5669169425964355,0
-0.7071738243103027,-0.2220916748046875,-0.6699261665344238,0
-0.5170302391052246,-0.24204349517822266,-0.5578184127807617,0
-0.49390459060668945,-0.34104061126708984,-0.4801344871520996,0
-0.47806787490844727,-0.42634153366088867,-0.3221712112426758,0
-0.5246596336364746,-0.49753475189208984,-0.10362672805786133,0
-0.6405315399169922,-0.5019197463989258,0.15870094299316406,0
-0.6749377250671387,-0.4581260681152344,0.39734792709350586,0
-0.6816563606262207,-0.38239002227783203,0.5190544128417969,0
-0.6373987197875977,-0.1759481430053711,0.419891357421875,0
-0.4792137145996094,0.10975074768066406,0.17380809783935547,0
-0.24813222885131836,0.33930397033691406,-0.029573440551757812,0
-0.18528318405151367,0.6498489379882812,-0.2076406478881836,0
0.02970266342163086,0.7457022666931152,-0.24851560592651367,0
0.18351125717163086,0.5735430717468262,-0.24129247665405273,0
0.2202444076538086,0.37285709381103516,-0.20003366470336914,0
0.22574400901794434,0.22753190994262695,-0.12277936935424805,0
0.18608784675598145,0.10132503509521484,-0.053522586822509766,0
0.15095877647399902,6.327629089355469E-4,0.015124797821044922,0
0.13194751739501953,-0.06019401550292969,0.056620121002197266,0
0.14774799346923828,-0.06163501739501953,0.05370616912841797,0
0.20543622970581055,-0.02456188201904297,0.005880832672119141,0
0.2391493320465088,0.04946184158325195,-0.1119999885559082,0
0.05663323402404785,0.12652158737182617,-0.40416431427001953,0
0.30638551712036133,0.1943984031677246,-0.297332763671875,0
0.41344666481018066,0.20389461517333984,-0.33327388763427734,0
0.42032599449157715,0.21432161331176758,-0.37790632247924805,0
0.569453239440918,0.4320855140686035,-0.5055651664733887,0
0.5645287036895752,0.38399553298950195,-0.5476679801940918,0
0.5029339790344238,0.3461112976074219,-0.48687076568603516,0
0.3949463367462158,0.28534889221191406,-0.3789863586425781,0
0.259631872177124,0.21625375747680664,-0.2481846809387207,0
0.10953950881958008,0.1726698875427246,-0.13394594192504883,0
0.1640636920928955,0.11657285690307617,-0.8077740669250488,0
0.22410058975219727,0.17651605606079102,-1.7105393409729004,0
-0.41740918159484863,0.20739364624023438,-2.143770694732666,0
-0.10669493675231934,0.15503358840942383,-1.130563735961914,0
0.34030723571777344,-0.07635116577148438,0.030380725860595703,0
0.0874781608581543,-0.1914958953857422,0.6322174072265625,0
-0.19469594955444336,0.07120275497436523,0.8017487525939941,0
-0.4124138355255127,0.16294145584106445,0.6438775062561035,0
-0.4689912796020508,0.1283397674560547,0.4925808906555176,0
-0.44938039779663086,0.0587773323059082,0.35065650939941406,0
-0.4187800884246826,-0.013880252838134766,0.24244117736816406,0
-0.4026503562927246,-0.02978372573852539,0.1993579864501953,0
-0.4278848171234131,-0.010924339294433594,0.18301868438720703,0
-0.4658925533294678,0.0328369140625,0.17673206329345703,0
-0.4949502944946289,0.08485555648803711,0.16614866256713867,0
-0.5101830959320068,0.13122034072875977,0.15343046188354492,0
-0.523390531539917,0.1601886749267578,0.1457056999206543,0
-0.5175974369049072,0.16719341278076172,0.1286158561706543,0
-0.4950847625732422,0.15968847274780273,0.10207843780517578,0
-0.44254541397094727,0.15242481231689453,0.08806037902832031,0
-0.20006752014160156,0.19545984268188477,0.14747190475463867,0
0.0691680908203125,0.7507877349853516,0.3422412872314453,0
0.6180288791656494,1.3672142028808594,0.37609291076660156,0
0.7619187831878662,1.5012001991271973,0.005012035369873047,0
0.7437713146209717,1.175607681274414,-0.45193052291870117,0
0.6026778221130371,0.7048549652099609,-0.6994013786315918,0
0.36519861221313477,0.4114823341369629,-0.6906733512878418,0
0.3113229274749756,0.020415306091308594,-0.7817540168762207,0
0.16643500328063965,-0.3886752128601074,-0.49026966094970703,0
3.924369812011719E-4,-0.6453728675842285,-0.29008913040161133,0
-0.20435023307800293,-0.733302116394043,-0.2546234130859375,0
-0.3522815704345703,-0.6397976875305176,-0.2743353843688965,0
-0.3812706470489502,-0.4675278663635254,-0.2740669250488281,0
-0.2735154628753662,-0.19931364059448242,-0.23084259033203125,0
-0.23011136054992676,-0.07319164276123047,-0.26624155044555664,0
-0.177354097366333,-0.04729747772216797,-0.181121826171875,0
-0.1732494831085205,-0.0668187141418457,-0.18734455108642578,0
-0.19875574111938477,-0.10266780853271484,-0.2324666976928711,0
-0.2174997329711914,-0.09988641738891602,-0.25161027908325195,0
-0.21772551536560059,-0.06297826766967773,-0.24509477615356445,0
-0.23157501220703125,0.026609420776367188,-0.2047867774963379,0
-0.251345157623291,0.08135366439819336,-0.15596961975097656,0
-0.3084871768951416,0.10396957397460938,-0.13844728469848633,0
-0.3623514175415039,0.11476898193359375,-0.14092111587524414,0
-0.39092278480529785,0.1223454475402832,-0.08007097244262695,0
-0.4215550422668457,0.07569456100463867,-0.03492593765258789,0
-0.4776153564453125,0.037975311279296875,-0.04996347427368164,0
-0.503345251083374,0.026206493377685547,-0.06274890899658203,0
-0.49497342109680176,-0.020735740661621094,-0.03596687316894531,0
-0.4819164276123047,-0.07393932342529297,-0.0107574462890625,0
-0.4788975715637207,-0.09713268280029297,-0.0018801689147949219,0
-0.48125267028808594,-0.07823562622070312,0.014434814453125,0
-0.4864926338195801,-0.026821136474609375,0.03819704055786133,0
-0.4774301052093506,0.0332636833190918,0.0886836051940918,0
-0.44771575927734375,0.1386713981628418,0.12914133071899414,0
-0.3973262310028076,0.27292585372924805,0.18094778060913086,0
-0.3302767276763916,0.31020450592041016,0.1998729705810547,0
-0.26107120513916016,0.3184380531311035,0.16270923614501953,0
-0.23063921928405762,0.3372650146484375,0.06624174118041992,0
-0.15033292770385742,0.36596155166625977,0.04848051071166992,0
-0.11710691452026367,0.3395695686340332,0.0420527458190918,0
-0.09685063362121582,0.3811812400817871,0.0525507926940918,0
0.02798628807067871,0.2982449531555176,-0.019737720489501953,0
0.06663703918457031,0.15932035446166992,-0.08417749404907227,0
0.0988469123840332,0.06132650375366211,-0.150604248046875,0
0.10667037963867188,0.0216064453125,-0.2020864486694336,0
0.13541603088378906,-0.01311492919921875,-0.12934064865112305,0
0.13418316841125488,-0.021640300750732422,-0.06603765487670898,0
0.10048413276672363,0.005366802215576172,-0.03604745864868164,0
0.08494377136230469,0.0830841064453125,-0.013430595397949219,0
0.0952138900756836,0.1989607810974121,0.05695199966430664,0
0.09354019165039062,0.23411226272583008,0.10732650756835938,0
0.04604506492614746,0.24912595748901367,0.11942815780639648,0
-0.009328603744506836,0.2515277862548828,0.11223077774047852,0
-0.04928278923034668,0.26128292083740234,0.10177898406982422,0
-0.08116674423217773,0.2698941230773926,0.13741779327392578,0
-0.09332919120788574,0.22677135467529297,0.15025854110717773,0
-0.12003064155578613,0.18505001068115234,0.14218521118164062,0
-0.15877056121826172,0.13300323486328125,0.15365076065063477,0
-0.18622279167175293,0.12559032440185547,0.1413564682006836,0
-0.19294404983520508,0.15798139572143555,0.12197542190551758,0
-0.1892702579498291,0.22152996063232422,0.10881900787353516,0
-0.1687309741973877,0.2962064743041992,0.0936574935913086,0
-0.13690495491027832,0.2666902542114258,0.1184091567993164,0
-0.1428530216217041,0.18878650665283203,0.11298799514770508,0
-0.1581275463104248,0.12060308456420898,0.09367990493774414,0
-0.1518402099609375,0.08375263214111328,0.0817570686340332,0
-0.14798688888549805,0.08286333084106445,0.06991815567016602,0
-0.1271522045135498,0.0939168930053711,0.0512232780456543,0
-0.10106205940246582,0.0789346694946289,0.03530740737915039,0
-0.0696711540222168,0.04281187057495117,0.03647661209106445,0
-0.052269697189331055,0.002216339111328125,0.04029560089111328,0
-0.05850505828857422,-0.03325939178466797,0.03233051300048828,0
-0.06424927711486816,-0.056372642517089844,0.017428874969482422,0
-0.07184910774230957,-0.0718698501586914,-0.0020232200622558594,0
-0.07732343673706055,-0.0700979232788086,-0.0502467155456543,0
-0.07441496849060059,-0.06288671493530273,-0.12753725051879883,0
-0.08316707611083984,-0.06237363815307617,-0.2197732925415039,0
-0.09421348571777344,-0.06849479675292969,-0.3245816230773926,0
-0.09731435775756836,-0.08334970474243164,-0.4155092239379883,0
-0.09878396987915039,-0.10436582565307617,-0.4875631332397461,0
-0.08587384223937988,-0.12191390991210938,-0.5215086936950684,0
-0.06080055236816406,-0.12183856964111328,-0.5246124267578125,0
-0.05978202819824219,-0.08667135238647461,-0.5098428726196289,0
-0.06009793281555176,0.04421186447143555,-0.4836306571960449,0
-0.07102513313293457,0.14780569076538086,-0.43558740615844727,0
-0.061533451080322266,0.159576416015625,-0.37734079360961914,0
-0.07522869110107422,0.12385845184326172,-0.35492753982543945,0
-0.11971640586853027,0.08465003967285156,-0.36652374267578125,0
-0.14493322372436523,0.0518031120300293,-0.3835716247558594,0
-0.1529979705810547,0.02996683120727539,-0.3867926597595215,0
-0.15820002555847168,0.03566789627075195,-0.388120174407959,0
-0.16802668571472168,0.03988790512084961,-0.39230966567993164,0
-0.1825723648071289,0.04463052749633789,-0.389681339263916,0
-0.22591638565063477,0.039885520935058594,-0.36356353759765625,0
-0.293428897857666,0.025325775146484375,-0.3117218017578125,0
-0.3636510372161865,0.010297775268554688,-0.26278209686279297,0
-0.4173583984375,-0.017077922821044922,-0.22373342514038086,0
-0.4353647232055664,-0.03213071823120117,-0.20667505264282227,0
-0.4393479824066162,-0.04427337646484375,-0.19966363906860352,0
-0.41698765754699707,-0.05613517761230469,-0.2093205451965332,0
-0.38516902923583984,-0.06966161727905273,-0.23340082168579102,0
-0.3445432186126709,-0.06324911117553711,-0.25557518005371094,0
-0.2999091148376465,-0.05605602264404297,-0.2805933952331543,0
-0.2724795341491699,-0.03853034973144531,-0.2964935302734375,0
-0.25278401374816895,-0.001201629638671875,-0.31296253204345703,0
-0.22162175178527832,0.024682998657226562,-0.33454275131225586,0
-0.18112587928771973,0.04409646987915039,-0.3468461036682129,0
-0.15878605842590332,0.07529115676879883,-0.3418464660644531,0
-0.1650238037109375,0.22804737091064453,-0.3135857582092285,0
-0.07438254356384277,0.1653451919555664,-0.2380971908569336,0
0.1941688060760498,0.5831265449523926,-0.36820268630981445,0
0.27253127098083496,0.9489278793334961,-0.8447575569152832,0
0.6455962657928467,0.9650697708129883,-0.7021183967590332,0
0.7408597469329834,0.7985868453979492,-0.4666867256164551,0
0.7199218273162842,0.6840848922729492,-0.3765711784362793,0
0.6331384181976318,0.4334135055541992,-0.3536357879638672,0
0.5633864402770996,0.2604823112487793,-0.2581596374511719,0
0.35761308670043945,0.28937578201293945,-0.39776039123535156,0
0.2521390914916992,0.19269895553588867,-0.39767026901245117,0
0.17589092254638672,-0.020204544067382812,-0.321469783782959,0
0.07194018363952637,-0.2891876697540283,-0.13550662994384766,0
-0.061669111251831055,-0.5024538040161133,-0.07039070129394531,0
-0.19090485572814941,-0.6333339214324951,-0.10011672973632812,0
-0.2562403678894043,-0.6872406005859375,-0.15368175506591797,0
-0.23104619979858398,-0.6912891864776611,-0.19228744506835938,0
-0.1914205551147461,-0.6664445400238037,-0.1985025405883789,0
-0.18277978897094727,-0.5810410976409912,-0.1684436798095703,0
-0.18790507316589355,-0.456587553024292,-0.10481071472167969,0
-0.18281149864196777,-0.32678771018981934,-0.014894485473632812,0
-0.16021513938903809,-0.21060609817504883,0.07029247283935547,0
-0.13261699676513672,-0.09491157531738281,0.13341999053955078,0
-0.11266183853149414,0.04669308662414551,0.19084453582763672,0
