AccX,AccY,AccZ,stepCount
0.20473933219909668,4.20700740814209,0.26676058769226074,-2.105912685394287
-0.054881930351257324,5.005519866943359,-0.5705926418304443,1.8824422359466553
-0.17149078845977783,5.458287239074707,-1.8531031608581543,5.1544694900512695
-0.24756550788879395,5.709695816040039,-3.453397035598755,-1.720662236213684
-0.18220722675323486,6.146869659423828,-3.8359386920928955,0
0.1837226152420044,6.453797340393066,-4.744479656219482,0
0.22565829753875732,6.311285972595215,-5.690575122833252,0
0.237662672996521,5.984375,-5.76373291015625,0
-0.03046739101409912,5.310969352722168,-5.6096296310424805,0
0.1908738613128662,3.9544458389282227,-5.397036552429199,0
-0.0886915922164917,2.446639060974121,-4.858882904052734,0
-0.5098987817764282,1.1443719863891602,-4.468179702758789,0
0.08514750003814697,-0.7416181564331055,-4.326995849609375,0
0.034758567810058594,-2.1107211112976074,-4.327182769775391,0
0.13099491596221924,-3.1383848190307617,-4.430988788604736,0
0.4861278533935547,-3.7127623558044434,-4.49067497253418,0
0.8088110685348511,-4.28593111038208,-4.489013671875,0
0.655180811882019,-4.6042609214782715,-4.6502685546875,0
0.8791320323944092,-4.602860927581787,-4.324751853942871,0
1.0836851596832275,-4.683142185211182,-3.49930477142334,0
0.8837677240371704,-4.603137969970703,-2.7146432399749756,0
0.9697822332382202,-4.472412586212158,-1.6137070655822754,0
1.2261319160461426,-4.173033714294434,-0.2767157554626465,0
1.4514658451080322,-3.462951183319092,0.9103500843048096,0
1.6070717573165894,-2.3925724029541016,1.9609752893447876,0
1.5113061666488647,-0.9358510971069336,3.259035348892212,0
1.5249974727630615,1.0284757614135742,4.486058712005615,0
1.312960147857666,3.5087718963623047,5.628380298614502,0
0.7830665111541748,6.499276161193848,6.942785263061523,0
0.1743006706237793,10.233304023742676,7.97816276550293,0
-0.7411777973175049,14.757233619689941,8.599462509155273,0
-1.6822104454040527,21.135108947753906,8.821961402893066,0
-3.2097315788269043,27.537967681884766,8.085156440734863,0
-4.396390438079834,31.026687622070312,7.872859477996826,0
-4.407433986663818,29.782045364379883,7.780272483825684,0
-4.247142791748047,22.662094116210938,6.453600883483887,0
-3.383769989013672,12.855673789978027,5.862866401672363,0
-1.2968544960021973,4.176883697509766,4.689874172210693,0
0.2640646696090698,-2.5235700607299805,2.6826062202453613,0
0.8419650793075562,-7.1796464920043945,1.2077605724334717,0
0.8392638564109802,-9.984557151794434,1.0470162630081177,0
1.3013014793395996,-11.216785430908203,1.5403773784637451,0
1.7723050117492676,-11.625452995300293,2.5597333908081055,0
2.0453927516937256,-11.567717552185059,2.569504737854004,0
2.359161376953125,-11.804303169250488,2.8173558712005615,0
3.794717311859131,-11.944241523742676,4.198479652404785,0
4.0205512046813965,-12.253429412841797,4.894898414611816,0
3.9451751708984375,-11.901520729064941,3.880660057067871,0
3.1632239818573,-10.723871231079102,3.2942473888397217,0
2.1432979106903076,-9.401739120483398,3.2184224128723145,0
1.0429679155349731,-7.936068534851074,3.524437427520752,0
-0.5549421310424805,-6.023998737335205,3.942570686340332,0
-2.5832958221435547,-3.9029603004455566,4.3705620765686035,0
-4.481287956237793,-1.3578109741210938,4.564217567443848,0
-6.090412139892578,1.590073585510254,4.7666707038879395,0
-7.170361518859863,3.9491186141967773,5.3921098709106445,0
-7.656650543212891,6.359402656555176,4.741074085235596,0
-7.174427509307861,8.061306953430176,3.2260236740112305,0
-5.775590896606445,8.3395414352417,2.0384509563446045,0
-3.847442150115967,7.749688148498535,1.5823261737823486,0
-1.2231262922286987,6.284186363220215,0.8378976583480835,0
0.7772363424301147,4.6278228759765625,0.3529616594314575,0
2.0995101928710938,2.665358543395996,-0.36304914951324463,0
1.9646682739257812,1.1761980056762695,0.6604503393173218,0
1.9294503927230835,-0.3671760559082031,0.882137656211853,0
1.8244640827178955,-1.5227327346801758,1.2434766292572021,0
2.699381113052368,-2.2552428245544434,1.554970622062683,0
3.692166805267334,-2.948124885559082,1.3077272176742554,0
3.9764058589935303,-4.060728073120117,0.8050920367240906,0
3.6558151245117188,-5.24609899520874,0.8566880822181702,0
3.311159610748291,-6.169734954833984,1.8353182077407837,0
3.5070903301239014,-6.5600433349609375,2.5018258094787598,0
4.051332473754883,-6.4666290283203125,1.1405978202819824,0
3.178520917892456,-5.636743068695068,1.315442681312561,0
1.8227946758270264,-4.663577556610107,2.528383731842041,0
1.006738543510437,-3.6449532508850098,2.5869107246398926,0
0.3372138738632202,-2.640005588531494,2.7277121543884277,0
0.2296123504638672,-1.8101396560668945,2.362581729888916,0
0.45860958099365234,-1.0706453323364258,1.7380586862564087,0
0.3000521659851074,-0.2586841583251953,1.095034122467041,0
-0.231903076171875,0.44359588623046875,0.567326545715332,0
-0.9088082313537598,0.9975214004516602,0.16126441955566406,0
-1.3987147808074951,1.3024177551269531,0.17268818616867065,0
-1.4937982559204102,1.1215801239013672,0.16643452644348145,0
-1.3106093406677246,0.5847396850585938,0.03665173053741455,0
-0.830113410949707,0.11557197570800781,-0.050933271646499634,0
-0.42092037200927734,-0.5517692565917969,-0.3096409738063812,0
-0.11996746063232422,-1.3483848571777344,-1.3142576217651367,0
-0.4531867504119873,-2.0805721282958984,-0.9959161281585693,0
-0.007086277008056641,-2.6812047958374023,-0.8839175701141357,0
0.29532575607299805,-3.0643672943115234,-1.1504838466644287,0
0.21271800994873047,-3.168299674987793,-1.5302425622940063,0
-0.1019737720489502,-3.3136677742004395,-1.8080869913101196,0
-0.4689176082611084,-3.4212942123413086,-1.9792381525039673,0
-0.7941322326660156,-3.306919574737549,-1.990942358970642,0
-1.1799001693725586,-3.24092435836792,-2.07551908493042,0
-1.5614192485809326,-2.87644624710083,-1.8686249256134033,0
-1.8380608558654785,-2.814051628112793,-1.7557282447814941,0
-1.8739562034606934,-2.584479331970215,-1.4781899452209473,0
-1.7666642665863037,-2.608576774597168,-1.3326258659362793,0
-1.4415345191955566,-2.378908157348633,-0.9144989252090454,0
-1.2399702072143555,-2.3451271057128906,-0.6767499446868896,0
-0.8933486938476562,-2.057342529296875,-0.38980305194854736,0
-0.8748712539672852,-1.8003129959106445,-0.43457600474357605,0
-0.9734957218170166,-1.2200508117675781,-0.7199900150299072,0
-1.2343624830245972,-0.6777658462524414,0.023357629776000977,0
-0.7588251829147339,0.06578731536865234,0.047225356101989746,0
-0.5344225168228149,0.8475980758666992,-0.723935604095459,0
-0.5828647613525391,2.0834226608276367,-0.7812583446502686,0
-0.6076452732086182,3.1627683639526367,-0.7029433250427246,0
-0.3815951347351074,4.088052749633789,-0.698588490486145,0
-0.0866701602935791,4.732521057128906,-0.7601391077041626,0
0.15249264240264893,5.220733642578125,-0.9903803467750549,0
0.28075170516967773,5.536165237426758,-2.1870646476745605,0
-0.24267315864562988,5.702919006347656,-1.7096011638641357,0
0.08457911014556885,5.415133476257324,-1.26129150390625,0
0.2249128818511963,5.0535430908203125,-1.818547010421753,0
-0.5655171871185303,4.677953720092773,-2.2886343002319336,0
-1.6266720294952393,4.051702499389648,-2.646298885345459,0
-2.310525894165039,3.818164825439453,-2.568051338195801,0
-3.2609472274780273,3.5319395065307617,-2.7517566680908203,0
-4.0522871017456055,3.3818254470825195,-2.930673599243164,0
-4.649067401885986,3.226468086242676,-3.0825867652893066,0
-5.214255332946777,3.108976364135742,-3.152474880218506,0
-5.520307540893555,3.050997734069824,-3.148118734359741,0
-5.607526779174805,2.9164419174194336,-3.23098087310791,0
-5.374928951263428,2.8110084533691406,-3.462625741958618,0
-4.73812198638916,2.617826461791992,-3.772966146469116,0
-3.864175796508789,2.437379837036133,-3.4848577976226807,0
-3.150369644165039,2.0901031494140625,-3.122328281402588,0
-2.710031509399414,1.8343639373779297,-2.5655856132507324,0
-2.382937431335449,1.1798019409179688,-1.841221570968628,0
-2.353590965270996,0.3181285858154297,-1.1386791467666626,0
-2.5984597206115723,-0.25063037872314453,-0.49061068892478943,0
-2.511591672897339,-0.8713283538818359,0.12336528301239014,0
-2.7178750038146973,-1.2331924438476562,0.6881089806556702,0
-2.6096713542938232,-1.6715011596679688,1.3104063272476196,0
-2.537102222442627,-2.0905933380126953,1.6089116334915161,0
-2.1774516105651855,-2.306419849395752,1.5349633693695068,0
-1.7416884899139404,-2.288148880004883,1.3531620502471924,0
-1.218133568763733,-1.9760980606079102,1.2548713684082031,0
-0.676041841506958,-1.4420604705810547,1.2936668395996094,0
-0.38060033321380615,-0.8294696807861328,1.7324961423873901,0
-0.5561882257461548,-0.05676746368408203,2.4484291076660156,0
-0.8142416477203369,0.7422809600830078,3.2810769081115723,0
-1.2227996587753296,1.6084413528442383,4.229887962341309,0
-1.6373887062072754,2.49643611907959,4.958763122558594,0
-1.676228404045105,3.6789655685424805,5.213244438171387,0
-1.5471423864364624,4.895418167114258,5.437801837921143,0
-0.8133784532546997,5.746737480163574,5.2930989265441895,0
-0.14438772201538086,6.1833648681640625,4.744973182678223,0
0.6584372520446777,6.208162307739258,4.055785179138184,0
1.4383050203323364,5.900333404541016,3.732719659805298,0
1.8297604322433472,5.475207328796387,3.4966065883636475,0
1.909734845161438,5.159714698791504,3.20680832862854,0
1.730898380279541,4.9485063552856445,2.779280185699463,0
1.3651950359344482,4.898382186889648,2.464205741882324,0
0.9398901462554932,5.068685531616211,2.5144758224487305,0
0.9204155206680298,5.349163055419922,2.7717161178588867,0
0.9860925674438477,5.53884220123291,2.7742326259613037,0
0.8356876373291016,5.620939254760742,2.351452589035034,0
0.8256598711013794,5.349147796630859,1.2704297304153442,0
0.6883832216262817,5.006335258483887,1.044593334197998,0
1.6455496549606323,4.499602317810059,0.8787174820899963,0
2.0452799797058105,4.003783226013184,0.640708327293396,0
2.350832223892212,3.3730173110961914,0.36345911026000977,0
2.666121482849121,2.308574676513672,0.10701930522918701,0
2.9100613594055176,1.083573341369629,0.09618330001831055,0
3.2862863540649414,0.033043861389160156,0.4119577407836914,0
3.5394630432128906,-0.8050813674926758,0.5949454307556152,0
3.346747398376465,-1.4599814414978027,1.0614558458328247,0
3.2866978645324707,-2.0972518920898438,1.1199411153793335,0
2.8248841762542725,-2.439887046813965,1.0723780393600464,0
2.391019344329834,-2.564958095550537,1.427044153213501,0
1.7634451389312744,-2.719041347503662,1.9575140476226807,0
1.206717848777771,-2.8233590126037598,1.9944102764129639,0
0.7940137386322021,-2.7894372940063477,2.289715051651001,0
0.8046501874923706,-3.5534863471984863,1.661927580833435,0
-0.37982892990112305,-4.297396659851074,1.1906623840332031,0
-1.062211036682129,-4.849104404449463,1.1450930833816528,0
-1.2181122303009033,-4.952666282653809,1.2188787460327148,0
-1.1480748653411865,-4.670709133148193,1.4743820428848267,0
-0.6033859252929688,-4.968107223510742,0.9726190567016602,0
-1.0345256328582764,-5.306347370147705,0.5790402889251709,0
-0.866018533706665,-5.154563903808594,0.4847257137298584,0
-0.9231910705566406,-5.385690212249756,0.4763977527618408,0
-0.2160792350769043,-5.7810211181640625,0.4158957004547119,0
-0.013355493545532227,-5.223004341125488,1.1630713939666748,0
0.7364809513092041,-5.2531280517578125,0.22896528244018555,0
0.9473632574081421,-4.995018005371094,0.3236415386199951,0
1.1392818689346313,-5.538322448730469,0.9234282970428467,0
1.1344523429870605,-5.3388447761535645,2.407924175262451,0
1.4032745361328125,-6.201035022735596,1.6014716625213623,0
1.7441210746765137,-6.902609825134277,0.4885087013244629,0
1.8898189067840576,-7.3914642333984375,-0.1402902603149414,0
1.8410903215408325,-7.682063579559326,-0.21116089820861816,0
1.7036473751068115,-6.997228622436523,0.03361916542053223,0
1.9909238815307617,-5.919206142425537,0.0647282600402832,0
2.112715721130371,-5.180253982543945,0.19806814193725586,0
1.8560484647750854,-4.70353889465332,0.1820850372314453,0
1.702132225036621,-4.1994171142578125,0.0570523738861084,0
1.718737244606018,-4.131938934326172,-0.24390220642089844,0
1.4602749347686768,-4.25445032119751,-0.8905377388000488,0
1.4836466312408447,-4.105104446411133,-1.1130261421203613,0
1.6704001426696777,-3.4401798248291016,-1.0552959442138672,0
2.0567786693573,-3.905259609222412,-1.4333460330963135,0
1.5450446605682373,-3.5978102684020996,-1.468733787536621,0
1.826330304145813,-3.1594958305358887,-1.2448256015777588,0
1.9591598510742188,-2.4024434089660645,-0.6624581813812256,0
2.114931106567383,-1.750028133392334,-0.7532761096954346,0
1.821104645729065,-1.0513410568237305,-0.7238247394561768,0
1.8400808572769165,-0.32552242279052734,-0.4444248676300049,0
2.1325440406799316,0.10686492919921875,0.011074304580688477,0
1.914862871170044,0.6646833419799805,0.5447587966918945,0
1.9048506021499634,1.2765188217163086,1.032992959022522,0
1.8428871631622314,1.9374990463256836,1.1790298223495483,0
1.6552518606185913,2.716963768005371,0.9661041498184204,0
1.3382983207702637,3.6242799758911133,0.30988025665283203,0
0.9820780158042908,4.697207450866699,-0.9755656719207764,0
0.7704384922981262,5.635979652404785,-2.505014419555664,0
0.5682358741760254,6.650425910949707,-4.025384902954102,0
0.4795879125595093,7.311466217041016,-5.369509220123291,0
0.2119758129119873,7.63316535949707,-6.120732307434082,0
-0.12301528453826904,7.474271774291992,-6.493461608886719,0
-0.48868072032928467,7.189032554626465,-6.492853164672852,0
-1.0872091054916382,7.229601860046387,-6.36015510559082,0
-1.433829665184021,6.412027359008789,-6.474127292633057,0
-1.4931769371032715,4.782961845397949,-6.25856876373291,0
-1.6342462301254272,2.9559030532836914,-6.152472496032715,0
-0.9249083995819092,0.6059494018554688,-5.853245258331299,0
-0.8123284578323364,-1.3504180908203125,-5.422720909118652,0
-0.5626276731491089,-2.8728370666503906,-4.915858745574951,0
-0.16352009773254395,-3.578848361968994,-4.636425018310547,0
0.6139825582504272,-4.78187370300293,-4.4034342765808105,0
0.19502520561218262,-5.421145439147949,-3.2273411750793457,0
0.23926103115081787,-5.5470380783081055,-2.1923835277557373,0
0.39728212356567383,-5.965394496917725,-0.8442144393920898,0
0.9549211859703064,-6.328144550323486,1.2501407861709595,0
1.3910585641860962,-6.295865535736084,2.386963367462158,0
1.3480781316757202,-5.914020538330078,4.362055778503418,0
1.58071768283844,-4.5796661376953125,6.264151573181152,0
1.5832229852676392,-2.355802536010742,7.773124694824219,0
1.3694493770599365,0.39461231231689453,9.014715194702148,0
1.3148143291473389,4.246502876281738,10.397756576538086,0
0.9562739133834839,9.709702491760254,11.192147254943848,0
0.06793642044067383,17.431297302246094,11.37222671508789,0
-1.4284625053405762,28.862302780151367,10.372587203979492,0
-4.353727340698242,42.577293395996094,8.48936939239502,0
-6.80810546875,49.36032485961914,6.1830854415893555,0
-7.089319229125977,43.14302062988281,5.614666938781738,0
-7.252494812011719,25.144084930419922,7.310733795166016,0
-3.5944128036499023,9.30569839477539,6.0542073249816895,0
0.38672107458114624,-1.8875398635864258,2.2677829265594482,0
3.299959897994995,-9.281296730041504,0.12694454193115234,0
4.8148417472839355,-12.733695983886719,-0.6975967884063721,0
4.702781677246094,-13.785152435302734,0.10065913200378418,0
4.730840682983398,-13.318319320678711,1.6619428396224976,0
4.817051410675049,-12.669710159301758,3.134432077407837,0
5.026888847351074,-12.630512237548828,3.7933359146118164,0
5.468751907348633,-12.511428833007812,4.194458961486816,0
5.527553558349609,-12.431073188781738,3.3720874786376953,0
4.555160999298096,-12.32215690612793,3.235747814178467,0
3.450253486633301,-11.577163696289062,3.5333774089813232,0
2.1800687313079834,-10.173027038574219,3.5750606060028076,0
0.8718534708023071,-8.006032943725586,4.501604080200195,0
-0.15653538703918457,-6.868856430053711,4.831423282623291,0
-1.5094027519226074,-5.403870582580566,4.556364059448242,0
-3.322737693786621,-3.9387316703796387,5.153162002563477,0
-4.579945087432861,-2.227963447570801,5.801327705383301,0
-5.418754577636719,-0.06983470916748047,6.040765762329102,0
-6.371004104614258,2.820366859436035,5.948992729187012,0
-7.056150436401367,5.675166130065918,5.373563289642334,0
-6.643535614013672,7.328993797302246,5.102027416229248,0
-5.604106903076172,7.781954765319824,3.446686267852783,0
-3.5028505325317383,8.456578254699707,2.1352005004882812,0
-1.1339948177337646,7.9807233810424805,1.4718196392059326,0
0.9057173728942871,6.270275115966797,0.48794496059417725,0
2.526906728744507,4.0251312255859375,0.1195516586303711,0
3.7195420265197754,2.2091379165649414,0.19868552684783936,0
4.1003313064575195,0.6558361053466797,0.04980182647705078,0
3.6647214889526367,-0.8725290298461914,-0.10249817371368408,0
3.3750815391540527,-1.9818649291992188,-0.0029784440994262695,0
3.4431819915771484,-2.723358631134033,-0.055184364318847656,0
3.399233818054199,-3.3489322662353516,-0.002570033073425293,0
3.37448787689209,-3.9116568565368652,0.3245019316673279,0
3.2732529640197754,-4.438040256500244,0.933046281337738,0
3.067495822906494,-4.7560553550720215,1.2498688697814941,0
2.8173458576202393,-4.878100872039795,1.3149590492248535,0
2.3718297481536865,-4.802353382110596,1.1607153415679932,0
1.5964131355285645,-4.364273548126221,1.1089497804641724,0
0.80899977684021,-4.001948833465576,1.3217432498931885,0
0.09053874015808105,-3.607483386993408,1.5170507431030273,0
-0.5754241943359375,-3.1519675254821777,1.506913423538208,0
-1.1430869102478027,-2.434401035308838,1.3674769401550293,0
-1.7247607707977295,-1.6654086112976074,0.9313049912452698,0
-2.313361883163452,-0.7563591003417969,0.927689790725708,0
-2.401418924331665,-0.13026905059814453,-0.047175824642181396,0
-2.1792564392089844,-0.07583045959472656,-0.9789671301841736,0
-1.954397439956665,-0.3316841125488281,-1.284140706062317,0
-1.748204231262207,-0.7375431060791016,-1.4341940879821777,0
-1.6836743354797363,-1.6044707298278809,-1.7464430332183838,0
-1.7381010055541992,-2.3917431831359863,-1.767059564590454,0
-1.6635267734527588,-2.8966236114501953,-1.5980547666549683,0
-1.5668761730194092,-3.253598213195801,-1.5311763286590576,0
-1.3749032020568848,-3.494028091430664,-1.6196279525756836,0
-1.1383006572723389,-3.6825122833251953,-1.7011466026306152,0
-1.014646291732788,-3.735352039337158,-1.8194056749343872,0
-1.1304330825805664,-3.6525726318359375,-1.9726693630218506,0
-1.30336594581604,-3.482051372528076,-2.053527355194092,0
-1.5212841033935547,-3.324127674102783,-2.1820151805877686,0
-1.5613586902618408,-2.973031997680664,-2.0439743995666504,0
-1.6004688739776611,-2.517428398132324,-1.9665799140930176,0
-1.497490644454956,-2.1844286918640137,-1.849067211151123,0
-1.3118572235107422,-1.856410026550293,-1.8086020946502686,0
-0.9828031063079834,-1.633582592010498,-1.7805836200714111,0
-0.837378740310669,-1.7262182235717773,-1.7484960556030273,0
-0.9113974571228027,-1.3758087158203125,-1.51524019241333,0
-1.0793640613555908,-1.0395240783691406,-1.537245750427246,0
-1.2209703922271729,-0.5810918807983398,-1.684208869934082,0
-1.5391470193862915,0.23838329315185547,-1.7344691753387451,0
-1.6861717700958252,0.9209709167480469,-1.9218409061431885,0
-1.8318978548049927,1.4189033508300781,-2.277195453643799,0
-1.6990848779678345,2.3419179916381836,-2.1554996967315674,0
-1.710936188697815,3.3593883514404297,-2.120986223220825,0
-1.5345205068588257,4.153224945068359,-2.1477913856506348,0
-1.0859344005584717,4.974702835083008,-1.871802568435669,0
-0.6972713470458984,5.6706953048706055,-1.4380364418029785,0
-0.3050568103790283,5.8804473876953125,-1.3348997831344604,0
0.2927265167236328,5.367962837219238,-1.4676480293273926,0
0.7850635647773743,4.724762916564941,-1.521149754524231,0
0.6625653505325317,3.754863739013672,-1.7141666412353516,0
-0.1661137342453003,2.5495214462280273,-2.077303886413574,0
-1.3529162406921387,1.8621768951416016,-2.4918479919433594,0
-2.7361111640930176,1.6013727188110352,-3.3167834281921387,0
-3.7319908142089844,1.7234869003295898,-4.051191329956055,0
-4.558296203613281,2.0342798233032227,-4.529253959655762,0
-5.07616662979126,2.2991561889648438,-4.607091426849365,0
-5.330928802490234,2.446523666381836,-4.435549736022949,0
-5.166634559631348,2.493396759033203,-3.986196517944336,0
-4.60443639755249,2.4234142303466797,-3.752725601196289,0
-3.7729732990264893,2.1939172744750977,-3.422985076904297,0
-2.887463331222534,2.0801639556884766,-2.7825725078582764,0
-1.9672209024429321,1.962416648864746,-2.0090296268463135,0
-1.259137511253357,1.7209692001342773,-1.192897081375122,0
-0.7469571828842163,0.9037046432495117,-0.5371367931365967,0
-0.9826135635375977,0.5177822113037109,0.47243595123291016,0
-0.7286531925201416,0.15362930297851562,1.3492634296417236,0
-0.9898941516876221,-0.07649421691894531,2.2263574600219727,0
-1.227627158164978,-0.22298526763916016,2.7315492630004883,0
-1.3940130472183228,-0.2526054382324219,2.764026165008545,0
-1.4082351922988892,-0.13937854766845703,2.683454990386963,0
-1.1224548816680908,0.15474319458007812,2.6428263187408447,0
-0.6639983654022217,0.5222845077514648,2.670544385910034,0
-0.39639711380004883,0.867924690246582,3.158864736557007,0
-0.5495257377624512,0.9983100891113281,3.393232583999634,0
-1.2104634046554565,1.2441129684448242,4.537320613861084,0
-0.938965916633606,2.014500617980957,5.432918548583984,0
-0.5358301401138306,3.1441965103149414,5.847703456878662,0
0.10801315307617188,4.343653678894043,5.959765434265137,0
0.7207497358322144,5.672941207885742,5.626698017120361,0
1.3733837604522705,6.450430870056152,5.423556804656982,0
1.6826205253601074,6.7079057693481445,4.746844291687012,0
1.911248803138733,6.649257659912109,4.067313194274902,0
2.116224765777588,6.475821495056152,3.436863899230957,0
2.438746452331543,6.264281272888184,2.998685359954834,0
2.524600028991699,6.0837812423706055,2.614335775375366,0
2.272073984146118,6.139324188232422,2.37056827545166,0
1.912750244140625,6.430058479309082,2.5070481300354004,0
1.4821467399597168,6.77364444732666,2.5925910472869873,0
1.3807470798492432,7.1291656494140625,2.4422478675842285,0
1.3853609561920166,7.317323684692383,2.1528677940368652,0
1.8221676349639893,6.917389869689941,0.9026894569396973,0
1.966990351676941,6.451362609863281,0.26961231231689453,0
2.581879138946533,6.113030433654785,0.2903057336807251,0
2.990835428237915,5.344968795776367,0.06952047348022461,0
3.0891852378845215,4.255586624145508,-0.4496842622756958,0
3.058289051055908,3.099172592163086,-0.7485067844390869,0
2.958292245864868,2.1103267669677734,-0.6556565761566162,0
2.8818812370300293,0.7506752014160156,-0.4344048500061035,0
2.594374895095825,-0.38432884216308594,-0.3634779453277588,0
2.067607879638672,-1.1877031326293945,0.08547711372375488,0
1.662482500076294,-1.6577720642089844,1.089008092880249,0
1.1365764141082764,-2.2306790351867676,1.5979080200195312,0
0.6878910064697266,-2.5835390090942383,2.3530702590942383,0
0.6854133605957031,-3.384411334991455,2.7244222164154053,0
0.5004732608795166,-4.660384654998779,2.0516040325164795,0
-0.647752046585083,-5.322792053222656,2.1253135204315186,0
-0.7952084541320801,-5.747515678405762,2.4519381523132324,0
-1.173269510269165,-5.748578071594238,2.0946664810180664,0
-1.5533900260925293,-6.345730781555176,1.2766069173812866,0
-1.9321784973144531,-6.469351768493652,1.3516762256622314,0
-2.18951416015625,-6.473459720611572,1.8122200965881348,0
-2.1709258556365967,-6.489696502685547,1.633527398109436,0
-1.628934383392334,-6.66905403137207,0.8819053173065186,0
-1.61533784866333,-6.663755416870117,1.098663091659546,0
-0.47427797317504883,-7.270362854003906,0.588841438293457,0
-0.101898193359375,-7.340638160705566,0.14257025718688965,0
0.03513145446777344,-7.063756465911865,0.16485810279846191,0
0.6764744520187378,-6.418067932128906,0.37874650955200195,0
1.1938204765319824,-6.168939113616943,0.44539380073547363,0
1.3552064895629883,-6.193399429321289,0.7541248798370361,0
1.6962735652923584,-6.531260967254639,1.0075221061706543,0
1.8383816480636597,-5.947412490844727,1.3975145816802979,0
2.177942991256714,-5.019346237182617,2.302063465118408,0
2.0011844635009766,-5.613490104675293,1.127920389175415,0
2.0652878284454346,-6.310476303100586,0.4735679626464844,0
1.941175103187561,-6.529353618621826,-0.049630165100097656,0
2.1264920234680176,-5.837669372558594,0.08183169364929199,0
2.323317289352417,-5.135461807250977,0.36310410499572754,0
2.122622489929199,-4.735918045043945,0.42610621452331543,0
1.9932091236114502,-4.44020414352417,0.29015541076660156,0
2.035484790802002,-3.98048734664917,0.11045503616333008,0
2.2614784240722656,-4.325557231903076,-0.6075153350830078,0
1.73874831199646,-4.235477447509766,-0.6911296844482422,0
1.9782891273498535,-3.949662685394287,-0.7652261257171631,0
2.220093011856079,-3.6760315895080566,-0.7261929512023926,0
2.2183380126953125,-3.1943187713623047,-0.6498703956604004,0
2.229182243347168,-2.7890067100524902,-0.5613982677459717,0
2.0154929161071777,-2.1916632652282715,-0.22719073295593262,0
1.9770714044570923,-1.4905929565429688,-0.0045931339263916016,0
1.9291858673095703,-0.7621479034423828,0.27063488960266113,0
1.7395672798156738,-0.025236129760742188,0.5470046997070312,0
1.76678466796875,0.6653308868408203,1.040933609008789,0
1.7587238550186157,1.4221410751342773,1.7916028499603271,0
1.759756088256836,2.2049121856689453,2.5203137397766113,0
1.9233832359313965,3.079056739807129,2.6886675357818604,0
1.8592987060546875,4.213984489440918,1.55697500705719,0
1.870241403579712,5.403302192687988,-0.09359264373779297,0
1.8546394109725952,6.423429489135742,-2.3812615871429443,0
1.8102635145187378,7.376958847045898,-4.183990478515625,0
1.8036212921142578,8.021262168884277,-6.070113182067871,0
1.4771772623062134,8.84734058380127,-7.5468645095825195,0
0.9908882975578308,8.93054485321045,-8.278377532958984,0
0.4597780108451843,8.433964729309082,-8.397943496704102,0
-0.15959537029266357,7.264883041381836,-8.17189884185791,0
-0.6858682632446289,5.09190559387207,-7.493901252746582,0
-1.3652743101119995,2.4428834915161133,-6.698448181152344,0
-1.8322950601577759,-0.2530994415283203,-6.039317607879639,0
-1.6414299011230469,-2.5510854721069336,-5.680171489715576,0
-1.387795090675354,-3.8657617568969727,-5.445767879486084,0
-1.1008989810943604,-4.908510684967041,-5.103949546813965,0
-1.2426384687423706,-5.5814208984375,-4.841538429260254,0
-1.0270127058029175,-6.015803813934326,-4.370295524597168,0
-0.7306959629058838,-6.285141468048096,-3.28356671333313,0
-0.6122252941131592,-6.156912803649902,-2.338129997253418,0
-0.2834233045578003,-5.860352516174316,-1.1715238094329834,0
0.09047341346740723,-5.516536712646484,0.23914647102355957,0
0.520418107509613,-5.051067352294922,1.3414031267166138,0
1.154452919960022,-4.293620586395264,3.0077507495880127,0
1.623460054397583,-2.533487319946289,4.762451648712158,0
2.0425703525543213,0.20702362060546875,6.1939005851745605,0
2.5323386192321777,3.744675636291504,7.383075714111328,0
2.708934783935547,8.003303527832031,8.704143524169922,0
2.3007450103759766,13.248758316040039,9.895824432373047,0
0.9522500038146973,21.244932174682617,10.347209930419922,0
-1.6425056457519531,31.693696975708008,6.344880104064941,0
-2.914215564727783,40.22356033325195,5.459006309509277,0
-2.585867404937744,44.829063415527344,5.706347465515137,0
-1.579986810684204,38.603553771972656,5.215215682983398,0
-2.98476505279541,22.642513275146484,4.564370632171631,0
-3.2102885246276855,7.683957099914551,3.6928892135620117,0
-2.162842035293579,-3.5250144004821777,2.784635066986084,0
-1.553976058959961,-10.54515552520752,1.9101632833480835,0
-0.9211210012435913,-14.514917373657227,1.5821622610092163,0
0.20639485120773315,-15.93404769897461,2.6803579330444336,0
0.9551036953926086,-15.767837524414062,3.9445013999938965,0
2.104372978210449,-14.495136260986328,4.830608367919922,0
2.775423288345337,-13.228291511535645,5.0690765380859375,0
3.1493053436279297,-12.488245964050293,4.970073699951172,0
3.2209548950195312,-12.174068450927734,4.779726028442383,0
3.2878777980804443,-11.8770112991333,4.476594924926758,0
3.2424893379211426,-11.074644088745117,4.113806247711182,0
2.5844061374664307,-9.993987083435059,3.926896572113037,0
1.5415947437286377,-8.4072847366333,4.015758037567139,0
0.13965654373168945,-5.911100387573242,4.82757568359375,0
-1.425094723701477,-4.81222677230835,4.836540222167969,0
-2.579303741455078,-3.351090431213379,4.14788293838501,0
-4.0228190422058105,-1.3583259582519531,4.296926975250244,0
-4.961516857147217,1.3701400756835938,4.844912528991699,0
-5.570460319519043,4.265829086303711,5.649410724639893,0
-6.401740550994873,7.207719802856445,5.850010871887207,0
-6.179018020629883,9.761683464050293,5.112534523010254,0
-4.64962911605835,10.06181812286377,3.4225950241088867,0
-2.3547332286834717,10.046163558959961,2.6327948570251465,0
-0.19380474090576172,8.862297058105469,2.37397837638855,0
2.0907340049743652,6.382567405700684,1.304640531539917,0
3.241868257522583,3.3224449157714844,-0.0011817216873168945,0
1.9601472616195679,0.4612903594970703,-1.089154601097107,0
0.6262876391410828,-1.5484085083007812,-0.49610185623168945,0
1.288118839263916,-2.5234270095825195,0.42084288597106934,0
1.9432153701782227,-2.9436826705932617,0.5500442385673523,0
2.120424270629883,-3.467813014984131,0.38477158546447754,0
2.55483341217041,-3.7561964988708496,1.0276857614517212,0
3.580289363861084,-4.096552848815918,1.0493967533111572,0
3.8352041244506836,-4.530109405517578,0.616134524345398,0
3.3542394638061523,-4.925761699676514,0.4769344925880432,0
2.539641857147217,-5.374550819396973,0.9295644164085388,0
1.906738042831421,-5.471986293792725,2.0717613697052,0
1.8489874601364136,-5.220873832702637,2.481771469116211,0
1.7577272653579712,-4.770272731781006,2.02113938331604,0
1.3228790760040283,-4.101617813110352,1.1130017042160034,0
0.13432824611663818,-3.1886401176452637,1.134498953819275,0
-0.9954674243927002,-2.105410575866699,1.7213470935821533,0
-1.852198839187622,-1.186509132385254,1.9099969863891602,0
-2.504899740219116,-0.10588264465332031,1.8168981075286865,0
-2.3578908443450928,0.7708549499511719,0.9396263360977173,0
-2.349374294281006,1.3151473999023438,0.16793018579483032,0
-2.3601651191711426,1.4008474349975586,-0.5924423933029175,0
-2.193047523498535,1.081106185913086,-1.0787293910980225,0
-2.118462562561035,0.33452510833740234,-1.3292338848114014,0
-2.078313112258911,-0.547175407409668,-1.4227263927459717,0
-2.0247232913970947,-1.4495306015014648,-1.4902890920639038,0
-1.7756831645965576,-2.109851837158203,-1.5120527744293213,0
-1.4285213947296143,-2.8252906799316406,-1.7138264179229736,0
-1.1089966297149658,-3.959193706512451,-1.9017503261566162,0
-0.7808544635772705,-4.2339558601379395,-1.6356509923934937,0
-0.6655302047729492,-4.1742844581604,-1.5877118110656738,0
-0.6479949951171875,-4.079498767852783,-1.8640050888061523,0
-0.8502991199493408,-3.8442749977111816,-2.146904706954956,0
-1.123483657836914,-3.5379281044006348,-2.2639448642730713,0
-1.4428632259368896,-3.134099006652832,-2.3271801471710205,0
-1.7553000450134277,-2.7045512199401855,-2.4127328395843506,0
-2.1131370067596436,-2.3473310470581055,-2.321735143661499,0
-2.5163283348083496,-2.040741443634033,-2.1808454990386963,0
-2.636929512023926,-1.7822160720825195,-2.045280933380127,0
-2.709256172180176,-1.6313834190368652,-2.042224407196045,0
-2.59932804107666,-1.3703603744506836,-1.8845107555389404,0
-2.414318561553955,-1.5179920196533203,-1.9195220470428467,0
-2.0486226081848145,-1.385066032409668,-1.718231439590454,0
-1.8486753702163696,-1.0054197311401367,-1.5737287998199463,0
-1.641609787940979,-0.692601203918457,-1.7463817596435547,0
-1.4009475708007812,-0.5494556427001953,-1.9438871145248413,0
-1.3781956434249878,0.10311412811279297,-1.6598663330078125,0
-1.4198591709136963,0.824366569519043,-1.4626816511154175,0
-1.3341519832611084,1.4012956619262695,-1.4572086334228516,0
-1.267125129699707,1.7646455764770508,-1.5977246761322021,0
-1.1255384683609009,2.5744924545288086,-1.378403663635254,0
-0.9591761827468872,3.4308738708496094,-1.4111411571502686,0
-0.8081362247467041,4.128144264221191,-1.6533361673355103,0
-0.6697618961334229,4.398710250854492,-1.7917543649673462,0
-0.6010843515396118,4.556246757507324,-1.5268523693084717,0
-0.6707994937896729,4.555564880371094,-1.4265074729919434,0
-0.8925504684448242,4.107891082763672,-1.9665322303771973,0
-0.8856105804443359,3.7113122940063477,-2.2151148319244385,0
-1.3484470844268799,3.1147947311401367,-2.6880621910095215,0
-2.034712076187134,2.6580371856689453,-3.0028066635131836,0
-3.0932703018188477,2.300081253051758,-3.4678778648376465,0
-3.9506921768188477,2.131559371948242,-3.8794772624969482,0
-4.674596786499023,2.085209846496582,-4.009928226470947,0
-5.035455703735352,2.1513614654541016,-4.014711856842041,0
-4.808211326599121,2.2367019653320312,-3.987409830093384,0
-4.346922874450684,2.1953277587890625,-3.731811761856079,0
-3.6972789764404297,2.0799264907836914,-3.3818678855895996,0
-3.0869998931884766,1.8808813095092773,-3.109426498413086,0
-2.595703125,1.4977827072143555,-2.8259220123291016,0
-2.259871006011963,1.05523681640625,-2.3715553283691406,0
-1.835587739944458,0.9526157379150391,-1.4255305528640747,0
-1.367833137512207,0.7470588684082031,-0.5117637515068054,0
-1.3519654273986816,0.44565296173095703,0.4588693380355835,0
-1.5972940921783447,0.5100669860839844,1.0088398456573486,0
-1.3489937782287598,0.5381917953491211,1.4423590898513794,0
-1.5517946481704712,0.7284488677978516,1.9785021543502808,0
-1.4490039348602295,1.0160188674926758,2.6208229064941406,0
-1.3847604990005493,1.1424999237060547,3.0639350414276123,0
-1.3183729648590088,1.1798152923583984,3.0818960666656494,0
-0.9221123456954956,1.2164220809936523,2.784595012664795,0
-0.3832688331604004,1.405217170715332,2.643509864807129,0
0.2568541169166565,1.6338024139404297,2.6234302520751953,0
0.6107620596885681,1.687408447265625,2.8846826553344727,0
0.30788540840148926,1.33734130859375,2.9868927001953125,0
-0.2568356990814209,1.0891971588134766,4.155365943908691,0
0.15642619132995605,1.160792350769043,5.131150245666504,0
0.29472482204437256,1.5566825866699219,5.722180366516113,0
0.2979910373687744,2.0756092071533203,6.265069961547852,0
0.08310770988464355,2.7604637145996094,6.400979042053223,0
-0.09598088264465332,3.5825424194335938,6.134118556976318,0
0.21564066410064697,4.23586368560791,5.702523708343506,0
0.8002749085426331,4.936065673828125,5.034228324890137,0
1.3753845691680908,5.566034317016602,4.254773139953613,0
1.8111867904663086,6.142515182495117,3.408461093902588,0
1.998818278312683,6.739309310913086,2.621177911758423,0
1.8520723581314087,7.20030403137207,2.0403037071228027,0
1.6090391874313354,7.508394241333008,1.7830055952072144,0
1.4344542026519775,7.727945327758789,1.4685492515563965,0
1.4892184734344482,7.559883117675781,0.6613637804985046,0
1.250945806503296,7.499778747558594,0.8510253429412842,0
2.0294461250305176,6.947505950927734,0.8036407828330994,0
2.6994266510009766,6.099764823913574,0.44886159896850586,0
3.0448954105377197,5.059574127197266,-0.4271833896636963,0
3.1508216857910156,3.832052230834961,-1.1447985172271729,0
3.1264655590057373,2.47257137298584,-1.3856098651885986,0
2.7291626930236816,1.235006332397461,-1.132903814315796,0
2.4175379276275635,0.14110851287841797,-0.9515261650085449,0
2.3779592514038086,-0.6154689788818359,-0.42929232120513916,0
2.1753087043762207,-1.2243032455444336,-0.23016154766082764,0
1.6833730936050415,-1.994636058807373,-0.06129145622253418,0
1.147786021232605,-2.522688388824463,0.4540358781814575,0
0.3929612636566162,-2.6701745986938477,1.3508131504058838,0
-0.03314542770385742,-2.9302730560302734,2.3930084705352783,0
-0.5297627449035645,-3.1258044242858887,3.080930709838867,0
-0.6162450313568115,-3.1563477516174316,3.5653562545776367,0
-0.5701985359191895,-3.93406343460083,3.037824869155884,0
-1.2324013710021973,-4.775028228759766,2.272740602493286,0
-2.0824074745178223,-5.396990776062012,1.7627830505371094,0
-1.8824912309646606,-5.981977462768555,1.4063894748687744,0
-2.3061962127685547,-5.694997787475586,1.85216224193573,0
-1.9996305704116821,-5.2855939865112305,1.8577196598052979,0
-1.4241220951080322,-5.721078872680664,1.1926677227020264,0
-2.4982919692993164,-5.737567901611328,1.1611595153808594,0
-1.9471030235290527,-5.598092079162598,1.2651735544204712,0
-1.0104877948760986,-5.730688095092773,1.4409189224243164,0
-0.781806468963623,-5.7163543701171875,1.4209033250808716,0
-0.38641297817230225,-5.605510234832764,1.0283803939819336,0
0.29546570777893066,-5.718793869018555,0.6297833919525146,0
0.8780003786087036,-5.873895645141602,0.7881100177764893,0
1.1580300331115723,-5.898138046264648,1.0856379270553589,0
1.4565306901931763,-5.882194519042969,1.351241111755371,0
1.5820536613464355,-6.098564624786377,1.4565982818603516,0
1.5365701913833618,-6.728894233703613,1.064801812171936,0
1.1562548875808716,-6.703688621520996,0.9824211597442627,0
1.4608416557312012,-6.341687202453613,0.9434671401977539,0
1.81221342086792,-6.001935958862305,0.9909887313842773,0
1.799262523651123,-5.679498672485352,1.113297939300537,0
1.7047125101089478,-5.091980934143066,1.413178563117981,0
1.9559390544891357,-4.875872611999512,1.2876898050308228,0
1.6865196228027344,-4.8397603034973145,0.8014535903930664,0
1.5939056873321533,-4.7923455238342285,0.32986950874328613,0
1.397549033164978,-4.556582927703857,0.17653942108154297,0
1.569638729095459,-4.292751789093018,0.14258837699890137,0
1.7141077518463135,-4.043929576873779,-0.09282970428466797,0
1.9464119672775269,-3.7310051918029785,-0.22524094581604004,0
1.9651700258255005,-3.222334861755371,-0.23984074592590332,0
2.088787317276001,-2.993896484375,-0.7237992286682129,0
1.5472460985183716,-2.418539047241211,-0.7284870147705078,0
1.7041411399841309,-1.7618408203125,-0.724726676940918,0
1.769826889038086,-1.078770637512207,-0.7453474998474121,0
1.8037649393081665,-0.5892210006713867,-0.6913142204284668,0
1.694887638092041,-0.0440826416015625,-0.5353949069976807,0
1.813401222229004,0.559168815612793,-0.24320173263549805,0
1.9409701824188232,1.239394187927246,-0.01329183578491211,0
2.104802370071411,1.9587326049804688,0.6033949851989746,0
2.1256003379821777,2.9859743118286133,0.7604775428771973,0
1.9433882236480713,4.150940895080566,0.32451748847961426,0
1.721022129058838,5.322059631347656,-0.45760583877563477,0
1.3398866653442383,6.374493598937988,-1.8337774276733398,0
0.8696091175079346,7.6738128662109375,-3.2314441204071045,0
0.40182065963745117,8.479813575744629,-5.044242858886719,0
-0.13745951652526855,8.820180892944336,-6.806650638580322,0
-0.187735915184021,8.548364639282227,-7.762657165527344,0
-0.7033562660217285,7.853211402893066,-8.202341079711914,0
-1.2852648496627808,6.577070236206055,-8.358807563781738,0
-1.5520092248916626,4.768583297729492,-8.078264236450195,0
-1.8380022048950195,2.9452695846557617,-8.196558952331543,0
-1.3693023920059204,1.021592140197754,-7.595550537109375,0
-1.7213637828826904,-0.9995946884155273,-6.9190521240234375,0
-2.0475473403930664,-2.88375186920166,-6.629561424255371,0
-2.479346752166748,-4.3248724937438965,-6.211539268493652,0
-2.692667007446289,-5.41420841217041,-5.703028678894043,0
-2.8144431114196777,-5.97001838684082,-5.386075496673584,0
-2.304548978805542,-5.9872846603393555,-4.507563591003418,0
-1.9727214574813843,-5.953462600708008,-2.9097342491149902,0
-1.9856880903244019,-5.853548049926758,-1.63966703414917,0
-1.7378395795822144,-5.598649501800537,-0.1781001091003418,0
-1.3427834510803223,-5.341818809509277,1.2207914590835571,0
-0.9175258874893188,-4.7408270835876465,2.619386911392212,0
-0.21064239740371704,-3.4199681282043457,4.31201696395874,0
0.4576055109500885,-1.3436250686645508,6.832774639129639,0
0.11044788360595703,1.3905220031738281,6.35024356842041,0
1.4362845420837402,4.916498184204102,6.245690822601318,0
2.5825588703155518,9.2683744430542,7.16133451461792,0
2.5822057723999023,14.932339668273926,7.881494522094727,0
1.7706990242004395,23.27313995361328,8.343174934387207,0
0.5053656101226807,34.00694274902344,7.672467231750488,0
-0.9724106788635254,41.36845016479492,6.877355098724365,0
-1.9327764511108398,42.18504333496094,5.94704532623291,0
-2.9484078884124756,31.14246940612793,6.040315628051758,0
-2.3874428272247314,16.18638038635254,6.116292953491211,0
-0.26051509380340576,3.9427175521850586,3.8624191284179688,0
1.4329026937484741,-5.118542671203613,2.71138072013855,0
2.105088710784912,-11.19737720489502,1.383978009223938,0
2.046525478363037,-14.024120330810547,0.5122133493423462,0
2.5420889854431152,-14.38791561126709,1.4066438674926758,0
3.0413575172424316,-13.67958927154541,2.190730571746826,0
3.4988415241241455,-13.097024917602539,3.761279821395874,0
4.09341287612915,-12.508331298828125,4.196094512939453,0
3.7701175212860107,-12.205801010131836,4.025528907775879,0
3.6251220703125,-12.096763610839844,3.647754669189453,0
3.8821682929992676,-11.629426002502441,3.9579503536224365,0
3.4601292610168457,-10.59283447265625,3.758455991744995,0
2.3209128379821777,-9.15668773651123,3.8297550678253174,0
0.9977505803108215,-7.009189128875732,4.353745460510254,0
-0.38019973039627075,-5.598679542541504,4.616252899169922,0
-2.2168679237365723,-4.408902645111084,4.423103332519531,0
-3.374346971511841,-3.095695972442627,4.522458076477051,0
-4.201305389404297,-1.674941062927246,5.034090042114258,0
-4.889545917510986,0.3900413513183594,5.444004535675049,0
-5.860489845275879,3.1446914672851562,5.518381118774414,0
-6.799071311950684,6.215845108032227,5.1423726081848145,0
-6.538373947143555,8.482566833496094,4.323215484619141,0
-5.468519687652588,9.461585998535156,3.336125373840332,0
-3.3880982398986816,8.921134948730469,2.074146032333374,0
-0.8428430557250977,6.983149528503418,0.3069261312484741,0
1.3192909955978394,5.172740936279297,0.16964232921600342,0
2.9639086723327637,2.900999069213867,-0.19892430305480957,0
2.61765718460083,0.695948600769043,-0.7096002101898193,0
1.5687575340270996,-1.0747785568237305,-0.936415433883667,0
1.5880826711654663,-2.2421560287475586,-0.5530977249145508,0
2.039105176925659,-3.077320098876953,-0.25355780124664307,0
2.5231773853302,-3.6501970291137695,0.1872004270553589,0
2.742316722869873,-4.0976786613464355,0.333997905254364,0
2.486447334289551,-4.664135932922363,0.44948384165763855,0
2.2392220497131348,-4.8907647132873535,0.39987993240356445,0
1.7985783815383911,-4.694455146789551,1.5933837890625,0
1.6638681888580322,-4.590007305145264,1.9355018138885498,0
1.2243313789367676,-4.350341796875,1.8303937911987305,0
0.6279809474945068,-3.8657164573669434,1.887664556503296,0
0.1497114896774292,-3.315664768218994,1.9660608768463135,0
-0.32748448848724365,-2.707217216491699,2.0951125621795654,0
-0.8054407835006714,-1.8535947799682617,2.0483670234680176,0
-0.8812421560287476,-0.9413661956787109,1.656774878501892,0
-1.0088846683502197,-0.38643836975097656,1.206709861755371,0
-1.2762354612350464,-0.04475116729736328,0.5323964953422546,0
-1.4006160497665405,0.12482643127441406,0.22591353952884674,0
-1.142185091972351,0.09870719909667969,-0.18114764988422394,0
-0.9168933629989624,-0.07276058197021484,-0.7197392582893372,0
-0.8517848253250122,-0.5066604614257812,-1.062199354171753,0
-0.6337251663208008,-1.037841796875,-1.1897923946380615,0
-0.44045543670654297,-1.666511058807373,-1.4834107160568237,0
-0.5244336128234863,-2.2946691513061523,-1.1009215116500854,0
-0.25705838203430176,-2.872110366821289,-0.9418071508407593,0
-0.08580899238586426,-3.403902053833008,-1.2888885736465454,0
-0.1382758617401123,-3.706233501434326,-1.5395543575286865,0
-0.377077579498291,-3.987546443939209,-1.6351561546325684,0
-0.6138479709625244,-4.2882609367370605,-1.7065746784210205,0
-0.8381843566894531,-4.101201057434082,-1.593213677406311,0
-1.07784903049469,-3.6780662536621094,-1.6491148471832275,0
-1.3690470457077026,-3.2749876976013184,-1.7142367362976074,0
-1.6713939905166626,-2.9157919883728027,-1.7554469108581543,0
-1.8965773582458496,-2.4830832481384277,-1.8158743381500244,0
-1.9510090351104736,-2.170393943786621,-1.7546379566192627,0
-1.9083423614501953,-1.9056854248046875,-1.657567024230957,0
-1.8925684690475464,-1.6719975471496582,-1.4573456048965454,0
-1.8408939838409424,-1.6268730163574219,-1.4239697456359863,0
-1.7331959009170532,-1.2749710083007812,-1.2383971214294434,0
-1.7215715646743774,-1.0111637115478516,-1.3260554075241089,0
-1.6931664943695068,-0.4718923568725586,-1.197503685951233,0
-1.6591006517410278,5.054473876953125E-4,-1.2826513051986694,0
-1.6429203748703003,0.2600584030151367,-1.446351408958435,0
-1.5897493362426758,0.887782096862793,-1.4620305299758911,0
-1.571306586265564,1.443007469177246,-1.6518858671188354,0
-1.468210220336914,1.985367774963379,-1.9509356021881104,0
-1.300438404083252,2.3879852294921875,-2.2396187782287598,0
-1.1118124723434448,3.009556770324707,-2.2111332416534424,0
-1.0335551500320435,3.4432735443115234,-2.226788282394409,0
-0.9025511741638184,3.5412473678588867,-2.3902852535247803,0
-0.6085296869277954,3.5167465209960938,-2.4505414962768555,0
-0.3376798629760742,3.5205001831054688,-2.041245222091675,0
-0.48616623878479004,3.141341209411621,-2.026930332183838,0
-0.5483152866363525,2.7481374740600586,-1.98251211643219,0
-0.8825643062591553,2.3889713287353516,-2.2037439346313477,0
-1.4788379669189453,2.0472774505615234,-2.6080758571624756,0
-2.2386984825134277,1.8092632293701172,-3.0814967155456543,0
-3.073306083679199,1.6796340942382812,-3.540729522705078,0
-4.042381763458252,1.7275104522705078,-3.930494785308838,0
-4.91400671005249,1.8640871047973633,-4.24331521987915,0
-5.492555141448975,2.072321891784668,-4.325347900390625,0
-5.692619800567627,2.280242919921875,-4.231095314025879,0
-5.459824562072754,2.3921279907226562,-3.9770987033843994,0
-4.935807704925537,2.41046142578125,-3.4797284603118896,0
-4.211788654327393,2.3688268661499023,-2.7990150451660156,0
-3.5271143913269043,2.4202919006347656,-2.143040180206299,0
-2.936859607696533,2.366302490234375,-1.6457830667495728,0
-2.488693952560425,2.2499589920043945,-1.024366855621338,0
-2.0914807319641113,2.2386722564697266,-0.0869588851928711,0
-1.6106098890304565,1.8252925872802734,0.8743578195571899,0
-1.721718192100525,1.4982023239135742,1.660765528678894,0
-1.534301996231079,1.3867664337158203,1.9440404176712036,0
-1.1328198909759521,1.0412988662719727,2.324406147003174,0
-1.801619291305542,1.1005210876464844,2.9462714195251465,0
-1.6849381923675537,1.052072525024414,3.397458553314209,0
-1.9070528745651245,1.1230640411376953,3.8093113899230957,0
-1.9460203647613525,1.1101570129394531,3.6828644275665283,0
-1.7802717685699463,0.860438346862793,3.467329502105713,0
-1.6608620882034302,0.7423553466796875,3.2415335178375244,0
-1.4778693914413452,1.2074995040893555,3.248992919921875,0
-1.1685371398925781,1.9227628707885742,3.28121280670166,0
-0.47545433044433594,2.3716506958007812,3.316185235977173,0
0.3352919816970825,2.554983139038086,3.4980061054229736,0
1.3029968738555908,2.6456403732299805,4.3522233963012695,0
2.100037097930908,2.8328628540039062,4.867433071136475,0
2.294254779815674,3.2912988662719727,5.268632411956787,0
2.3920719623565674,3.906015396118164,5.261995315551758,0
2.4184727668762207,4.564571380615234,4.895810604095459,0
2.4385392665863037,5.178586006164551,4.440778732299805,0
2.6081347465515137,5.733771324157715,4.078683376312256,0
2.8118844032287598,6.175274848937988,3.6320271492004395,0
3.1286020278930664,6.397856712341309,3.160064935684204,0
3.0213847160339355,6.738624572753906,2.7316038608551025,0
2.8597471714019775,7.132640838623047,2.4681684970855713,0
3.0445175170898438,7.3285980224609375,2.3559436798095703,0
3.2230358123779297,7.364920616149902,2.3283069133758545,0
3.4906411170959473,7.258495330810547,2.0933244228363037,0
3.7729744911193848,6.485780715942383,1.169728398323059,0
3.723395347595215,5.673906326293945,0.7711964845657349,0
3.8230438232421875,4.707828521728516,0.16549479961395264,0
3.636604070663452,3.5349531173706055,-0.368297815322876,0
3.0405147075653076,2.1533050537109375,-0.7895554304122925,0
2.3930435180664062,1.465165138244629,-0.46611690521240234,0
1.981413722038269,1.0371856689453125,-0.021789073944091797,0
1.244537115097046,0.40537071228027344,1.0472042560577393,0
0.7949424982070923,-0.47036075592041016,2.187157154083252,0
0.21162128448486328,-1.5632519721984863,3.505460739135742,0
-0.11734867095947266,-3.10128116607666,2.410822868347168,0
-0.8873982429504395,-4.181253910064697,0.9049015045166016,0
-1.4476492404937744,-4.730725288391113,-0.5962005853652954,0
-1.7251911163330078,-4.205989360809326,-1.2022041082382202,0
-0.5991106033325195,-3.036600112915039,0.23595893383026123,0
-0.4279754161834717,-2.623849868774414,2.157167434692383,0
-0.21569347381591797,-2.652474880218506,3.4031777381896973,0
0.2920501232147217,-2.7461438179016113,3.8072562217712402,0
0.5474090576171875,-3.1326632499694824,2.7597410678863525,0
0.11761641502380371,-3.5540871620178223,2.130481719970703,0
-0.4376809597015381,-4.644582271575928,1.3946336507797241,0
-1.1981117725372314,-5.293569087982178,1.2742350101470947,0
-1.3267886638641357,-5.917387008666992,0.8668994903564453,0
-1.1522462368011475,-6.439040660858154,0.6516945362091064,0
-0.641165018081665,-6.111996650695801,1.0911716222763062,0
0.4975064992904663,-5.93480110168457,0.6686155796051025,0
0.8224296569824219,-5.7878828048706055,0.5666241645812988,0
1.0561113357543945,-5.376914978027344,0.40546751022338867,0
1.1486196517944336,-5.588685035705566,0.7723641395568848,0
2.218557357788086,-5.565813064575195,1.4171983003616333,0
2.5321381092071533,-5.648136138916016,1.4822269678115845,0
2.368678331375122,-4.913330554962158,0.8555045127868652,0
1.6174418926239014,-3.9485011100769043,0.8240017890930176,0
1.3781251907348633,-3.95628023147583,1.1815330982208252,0
1.6066936254501343,-4.717738151550293,1.014108419418335,0
1.5792123079299927,-5.072424411773682,0.6782867908477783,0
1.5444691181182861,-5.0258917808532715,0.2812621593475342,0
1.8010549545288086,-5.037720680236816,0.12923741340637207,0
1.911030888557434,-5.186577796936035,0.2390141487121582,0
2.0542922019958496,-5.307263374328613,0.13460469245910645,0
1.977290391921997,-6.266373157501221,0.5905885696411133,0
3.618346929550171,-8.124707221984863,1.1357622146606445,0
3.9496917724609375,-7.655271530151367,-1.0214908123016357,0
2.5512657165527344,-6.214860916137695,-1.870889663696289,0
1.9520827531814575,-5.193234920501709,-1.570725679397583,0
2.3662376403808594,-4.266594886779785,-1.3553199768066406,0
1.9477801322937012,-3.6184964179992676,-1.2234783172607422,0
1.4970641136169434,-2.8371548652648926,-1.20302152633667,0
1.0565717220306396,-1.8601694107055664,-0.6923561096191406,0
0.8942503929138184,-1.411695957183838,-0.37381553649902344,0
1.0527912378311157,-0.9813928604125977,-0.24249863624572754,0
0.5593057870864868,-0.37517738342285156,0.2799050807952881,0
0.5953931212425232,0.3927173614501953,0.8288519382476807,0
0.9349957704544067,1.2149085998535156,1.3395134210586548,0
1.0892521142959595,1.8765592575073242,1.7660315036773682,0
1.1251354217529297,2.512213706970215,1.6597641706466675,0
1.5109317302703857,3.303755760192871,0.7601315975189209,0
1.714843988418579,4.877110481262207,-0.6966540813446045,0
1.9231789112091064,7.7423505783081055,-3.2769529819488525,0
1.1386045217514038,8.35586166381836,-6.244895935058594,0
1.3541450500488281,8.722437858581543,-7.918241500854492,0
1.291433572769165,8.546520233154297,-8.945350646972656,0
1.5460517406463623,8.863975524902344,-8.653604507446289,0
1.0190284252166748,8.967806816101074,-9.050639152526855,0
0.5056756734848022,7.695956230163574,-8.628913879394531,0
-0.227882981300354,5.538175582885742,-7.716957092285156,0
-0.9166877269744873,2.9002304077148438,-6.905076026916504,0
-1.3817142248153687,0.11287879943847656,-6.499713897705078,0
-1.568081021308899,-2.625380039215088,-6.195668697357178,0
-1.9832139015197754,-4.748137950897217,-5.4417524337768555,0
-2.6969704627990723,-6.10585355758667,-5.341030120849609,0
-2.969322681427002,-6.8978047370910645,-5.567683219909668,0
-2.3097100257873535,-7.429592132568359,-4.356646537780762,0
-1.417604923248291,-7.745872974395752,-3.235283374786377,0
-0.5304508209228516,-7.7003045082092285,-2.249976396560669,0
0.17421209812164307,-6.91203498840332,-1.1040313243865967,0
0.17764067649841309,-5.926575660705566,0.5859014987945557,0
0.22616636753082275,-4.862825870513916,2.811311960220337,0
0.5352962017059326,-3.8085741996765137,4.442138671875,0
1.073670744895935,-1.763343334197998,6.074738502502441,0
1.773356556892395,1.1500358581542969,7.246344566345215,0
1.964343547821045,4.520136833190918,7.357566833496094,0
1.8606297969818115,9.058639526367188,7.849872589111328,0
1.7488863468170166,15.217996597290039,7.858447074890137,0
1.1517640352249146,24.42402458190918,7.13663387298584,0
-0.06384092569351196,35.46555709838867,5.833861351013184,0
-0.15021520853042603,41.450836181640625,5.383905410766602,0
0.4639107286930084,40.68415069580078,4.963106632232666,0
-1.4879992008209229,31.56109619140625,3.981968402862549,0
-2.3304262161254883,17.211091995239258,2.900622844696045,0
-0.294050395488739,4.709420204162598,0.6506578922271729,0
0.047238171100616455,-4.288054466247559,-0.28976964950561523,0
0.6297469139099121,-10.309467315673828,-0.2370603084564209,0
0.788221538066864,-14.127592086791992,0.5826385021209717,0
0.16135495901107788,-15.124197006225586,2.273037910461426,0
-0.08320468664169312,-14.52728271484375,4.5725812911987305,0
0.42312198877334595,-13.286381721496582,6.132840633392334,0
1.1634550094604492,-12.441865921020508,6.561820030212402,0
1.9271856546401978,-11.654098510742188,6.208354949951172,0
2.2076282501220703,-10.954998016357422,5.2705183029174805,0
2.7316930294036865,-9.90074634552002,4.275378227233887,0
3.2544326782226562,-8.710554122924805,3.619520902633667,0
3.2563724517822266,-7.464787006378174,3.2687113285064697,0
2.6873714923858643,-5.949230670928955,3.4204540252685547,0
1.4014968872070312,-4.864030361175537,2.9023003578186035,0
0.21961981058120728,-3.6213631629943848,2.9851760864257812,0
-1.3253157138824463,-2.151660919189453,3.6812615394592285,0
-2.8692004680633545,-0.19853496551513672,4.203307151794434,0
-4.228105068206787,2.4628477096557617,4.1931047439575195,0
-5.4871296882629395,5.253613471984863,3.8267018795013428,0
-6.310376167297363,7.339929580688477,3.337493896484375,0
-6.287983417510986,8.601823806762695,2.964433431625366,0
-5.546750068664551,8.805027961730957,2.9572043418884277,0
-3.8099279403686523,7.681563377380371,2.3525214195251465,0
-1.4194657802581787,5.713632583618164,1.2352960109710693,0
0.1560598611831665,3.5404977798461914,0.70151287317276,0
1.280517816543579,1.6020517349243164,0.3942241668701172,0
1.6831189393997192,1.0000371932983398,0.8536677360534668,0
2.5665810108184814,-0.32668113708496094,0.8531019687652588,0
2.2854156494140625,-1.8830509185791016,0.08660769462585449,0
1.791015625,-3.1909961700439453,0.1483297348022461,0
1.7000137567520142,-4.071810245513916,0.6489285230636597,0
1.6765942573547363,-4.676974296569824,1.274340271949768,0
1.7005609273910522,-5.134068965911865,1.5670161247253418,0
1.521468162536621,-5.548983097076416,1.3161234855651855,0
1.1308588981628418,-5.823732376098633,1.8730692863464355,0
1.411849021911621,-5.8650970458984375,2.2629637718200684,0
1.721695899963379,-5.93861198425293,2.2103052139282227,0
1.829677700996399,-5.917252063751221,2.152358055114746,0
1.890673279762268,-5.666924476623535,1.9782719612121582,0
1.870582938194275,-5.022605895996094,1.8673099279403687,0
1.6178488731384277,-4.149539470672607,1.676175832748413,0
1.2004104852676392,-2.729764461517334,1.4657440185546875,0
0.7336723804473877,-1.1247081756591797,1.29019296169281,0
0.30929791927337646,0.18267345428466797,0.8329301476478577,0
-0.01218867301940918,1.217036247253418,1.0331571102142334,0
0.10044360160827637,1.8377342224121094,0.697583019733429,0
0.034883975982666016,2.033125877380371,0.13988593220710754,0
-0.25006937980651855,1.6885271072387695,-0.5805290937423706,0
-0.8085455894470215,1.0984296798706055,-0.7989329099655151,0
-1.0890617370605469,0.5499086380004883,-0.6614731550216675,0
-1.0328521728515625,-0.06971359252929688,-0.8428014516830444,0
-1.0143215656280518,-0.7962093353271484,-0.42667901515960693,0
-0.6506483554840088,-1.5267953872680664,-0.8301994800567627,0
-0.5525684356689453,-2.22348690032959,-1.2332687377929688,0
-0.5845162868499756,-2.716808319091797,-1.5027276277542114,0
-0.658898115158081,-3.1173806190490723,-1.6770977973937988,0
-0.9470751285552979,-3.480663776397705,-1.8076595067977905,0
-1.42885160446167,-3.825366973876953,-1.7210553884506226,0
-1.3848481178283691,-3.696793556213379,-1.430991291999817,0
-1.5171256065368652,-3.339383602142334,-1.4994769096374512,0
-1.7346253395080566,-3.0234742164611816,-1.5629674196243286,0
-1.812147617340088,-2.787041664123535,-1.5185012817382812,0
-1.8160550594329834,-2.5031075477600098,-1.4756321907043457,0
-1.7530877590179443,-2.2815818786621094,-1.551833152770996,0
-1.6803889274597168,-2.2370195388793945,-1.4913142919540405,0
-1.585679531097412,-2.0272293090820312,-1.3201980590820312,0
-1.5406948328018188,-1.8101344108581543,-1.1309409141540527,0
-1.3894340991973877,-1.6286931037902832,-1.3059866428375244,0
-1.1555912494659424,-1.5258393287658691,-1.2011747360229492,0
-0.8986343145370483,-1.2743263244628906,-0.9621284604072571,0
-0.6901395320892334,-1.1206903457641602,-0.9355659484863281,0
-0.5087831020355225,-1.1294317245483398,-1.0229320526123047,0
-0.39773571491241455,-0.7767143249511719,-0.9170466661453247,0
-0.21527206897735596,-0.4934215545654297,-0.9741296768188477,0
-0.18127143383026123,-0.5353279113769531,-1.205932378768921,0
-0.1255871057510376,-0.12743186950683594,-1.3371343612670898,0
-0.3451191186904907,0.5836353302001953,-1.3408375978469849,0
-0.6917164325714111,1.3822650909423828,-1.2498013973236084,0
-0.8224213123321533,1.960000991821289,-1.4566333293914795,0
-0.8156000375747681,2.4463844299316406,-1.8275202512741089,0
-0.7398226261138916,2.6550092697143555,-1.943950891494751,0
-0.7408121824264526,3.00919246673584,-1.8555947542190552,0
-0.8905891180038452,3.302666664123535,-1.1486334800720215,0
-1.0713043212890625,3.5042543411254883,-0.7725169658660889,0
-1.218274474143982,3.2673797607421875,-0.4408118724822998,0
-1.300894856452942,2.958484649658203,-0.4394245147705078,0
-1.4445915222167969,2.950693130493164,-0.009923577308654785,0
-1.4838930368423462,1.9765129089355469,-0.7343963980674744,0
-1.3996422290802002,3.57584285736084,-0.8204310536384583,0
-1.9772920608520508,2.4160852432250977,-2.366818428039551,0
-1.6096678972244263,2.28824520111084,-3.0768790245056152,0
-1.7832436561584473,2.791712760925293,-3.557129383087158,0
-2.105912685394287,3.041532516479492,-3.59348201751709,0
-3.4822332859039307,-6.0108466148376465,-11.697715759277344,0
-7.97470235824585,-3.4128623008728027,-4.212784290313721,0
-6.081733703613281,-0.18073177337646484,-2.0823192596435547,0
-3.9111976623535156,3.092945098876953,-3.744117259979248,0
-3.1805238723754883,5.4712371826171875,-2.975954294204712,0
-0.4726276397705078,6.64198112487793,-1.1776024103164673,0
2.2980940341949463,6.530054092407227,-1.4644206762313843,0
1.7554113864898682,6.037531852722168,-0.1707545518875122,0
0.46068716049194336,4.980220794677734,1.119802713394165,0
-0.43394458293914795,4.055167198181152,0.3101801872253418,0
-0.3926635980606079,3.6020164489746094,0.7785675525665283,0
-0.9196949005126953,2.810147285461426,0.3776036500930786,0
-1.4668885469436646,2.1178016662597656,0.3649623394012451,0
-1.194602608680725,1.0627717971801758,1.1059198379516602,0
-2.1843066215515137,-0.2830924987792969,1.0265573263168335,0
-3.16030216217041,-1.3384056091308594,0.9468327760696411,0
-2.6798341274261475,-1.5609779357910156,2.482295513153076,0
-1.6969566345214844,-1.2268915176391602,3.509406089782715,0
-1.5870062112808228,-0.6497831344604492,4.061948776245117,0
-1.7912578582763672,-0.04922008514404297,4.22224235534668,0
-1.4439841508865356,0.7858104705810547,4.496110439300537,0
-1.007930040359497,1.8530263900756836,4.84397029876709,0
-0.5950039625167847,3.051966667175293,5.0902180671691895,0
0.01696193218231201,3.9689531326293945,5.208713531494141,0
0.6385603547096252,4.79573917388916,5.1159186363220215,0
1.3265602588653564,5.264721870422363,4.665441989898682,0
1.819246768951416,5.440869331359863,4.3424906730651855,0
2.1536920070648193,5.221503257751465,4.139636993408203,0
1.85696542263031,4.5543718338012695,4.399117946624756,0
1.4856557846069336,3.7101240158081055,4.550976276397705,0
1.0627384185791016,3.1623964309692383,4.577746868133545,0
0.7002242803573608,3.164308547973633,5.034208297729492,0
0.7017271518707275,3.602717399597168,5.22808837890625,0
0.7245258092880249,3.625624656677246,4.414070129394531,0
0.8397307395935059,4.072362899780273,3.4139556884765625,0
1.0722424983978271,4.471033096313477,2.339132308959961,0
1.5745875835418701,4.714064598083496,1.8621500730514526,0
2.074388265609741,4.952410697937012,1.5051069259643555,0
2.577260732650757,4.851432800292969,1.7226909399032593,0
2.8448615074157715,4.270359039306641,0.08326363563537598,0
3.155470371246338,3.300612449645996,-0.9648479223251343,0
3.5213613510131836,2.6842994689941406,0.30594587326049805,0
3.5704002380371094,0.9653377532958984,-0.3815270662307739,0
4.328301429748535,-1.1592216491699219,-0.46902334690093994,0
3.9597926139831543,-2.7476024627685547,-1.029990553855896,0
3.2506818771362305,-2.7174606323242188,-0.1090008020401001,0
2.7070658206939697,-1.6494226455688477,0.8569741249084473,0
2.29667067527771,-0.047110557556152344,1.2087633609771729,0
1.692821979522705,1.0177745819091797,1.3317887783050537,0
1.597251057624817,1.3142242431640625,1.158552646636963,0
1.7933392524719238,1.4048585891723633,0.9107702970504761,0
1.3146042823791504,1.2468595504760742,1.092644214630127,0
0.5471746921539307,0.7594699859619141,1.198123812675476,0
0.39002084732055664,0.7823371887207031,0.9033232927322388,0
0.2745072841644287,0.8288726806640625,0.6815909147262573,0
-0.39836835861206055,0.7386083602905273,1.1569745540618896,0
-0.5166018009185791,0.1382894515991211,1.400556206703186,0
-0.7201268672943115,-0.6611356735229492,1.2467669248580933,0
-0.9688112735748291,-1.3633852005004883,0.8796098232269287,0
-1.0145106315612793,-1.6578960418701172,0.6030910015106201,0
-0.7309620380401611,-2.2170305252075195,0.8648543357849121,0
-0.5538973808288574,-3.0358638763427734,1.1576448678970337,0
-0.5676326751708984,-3.578573226928711,1.2710245847702026,0
-0.47800636291503906,-4.369072914123535,1.537293791770935,0
-0.02602672576904297,-4.752102375030518,1.4945393800735474,0
0.22324728965759277,-5.04401969909668,1.537758469581604,0
0.28357982635498047,-5.122794151306152,1.9616800546646118,0
0.1980876922607422,-5.036369323730469,1.9027131795883179,0
0.22324085235595703,-5.6641340255737305,2.2437360286712646,0
0.9525245428085327,-5.979187488555908,2.054438352584839,0
0.9508599042892456,-5.833706855773926,1.9883638620376587,0
0.7736393213272095,-5.890275478363037,1.8732415437698364,0
1.041729211807251,-5.1923418045043945,1.294980764389038,0
1.3123981952667236,-5.137274742126465,1.004915475845337,0
1.5378670692443848,-5.092967987060547,0.9240641593933105,0
1.4812488555908203,-4.870985984802246,0.5613887310028076,0
1.0292713642120361,-4.890151023864746,0.25908732414245605,0
0.922930121421814,-4.755156993865967,0.3998439311981201,0
1.6250572204589844,-4.482680320739746,0.5313544273376465,0
2.0236127376556396,-4.297685146331787,0.627300500869751,0
1.8772481679916382,-4.33896017074585,-0.02313995361328125,0
1.8226580619812012,-4.357347011566162,-0.13970565795898438,0
1.9058566093444824,-4.232771873474121,-0.025990009307861328,0
2.2189900875091553,-4.074960708618164,0.019177675247192383,0
2.8137660026550293,-3.8885741233825684,-0.40578722953796387,0
3.1120266914367676,-3.7498679161071777,-0.6086008548736572,0
3.282010078430176,-3.7829623222351074,-0.9069757461547852,0
3.1922054290771484,-3.760110378265381,-0.7111001014709473,0
2.8759708404541016,-3.5782723426818848,-0.6036412715911865,0
2.65572452545166,-3.091470241546631,-0.36784863471984863,0
2.540435314178467,-2.3667078018188477,0.06226348876953125,0
2.582059860229492,-1.4688048362731934,-0.041634559631347656,0
2.3771872520446777,-0.7520914077758789,-0.06135702133178711,0
2.0436620712280273,0.5241889953613281,-0.3639528751373291,0
1.6343295574188232,0.9317760467529297,6.770734786987305,0
0.12980592250823975,-1.049783706665039,3.838167667388916,0
0.8917703628540039,0.4118537902832031,-3.2571301460266113,0
1.768592357635498,0.8840913772583008,-0.46932148933410645,0
1.640416145324707,1.052351951599121,0.30076098442077637,0
0.2093956470489502,2.3911571502685547,-0.5358788967132568,0
-0.8480703830718994,3.0191917419433594,-1.9078783988952637,0
-1.8265142440795898,3.3210268020629883,-2.952502965927124,0
-2.3250608444213867,3.6360292434692383,-3.7269721031188965,0
-2.041562080383301,3.870389938354492,-4.328656196594238,0
-1.7221980094909668,3.8798465728759766,-4.7390899658203125,0
-1.5093653202056885,4.149090766906738,-4.913686275482178,0
-1.4545845985412598,4.349423408508301,-5.064846992492676,0
-1.4117767810821533,4.306034088134766,-4.9222331047058105,0
-1.1253018379211426,3.9667282104492188,-4.465175628662109,0
-0.6721473932266235,3.30338191986084,-4.096062183380127,0
-0.3009558916091919,2.5006418228149414,-4.10679817199707,0
-0.5042256116867065,1.3201446533203125,-3.1657140254974365,0
0.1591048240661621,0.42964744567871094,-3.196018934249878,0
0.46418607234954834,-0.42452239990234375,-3.1177587509155273,0
-0.03288924694061279,-1.2680482864379883,-2.856895923614502,0
0.6526397466659546,-1.486616611480713,-3.3157958984375,0
0.29073500633239746,-2.207286834716797,-3.288552761077881,0
-0.17780089378356934,-2.492095470428467,-2.4972586631774902,0
-0.8094631433486938,-2.8580660820007324,-1.5251758098602295,0
-1.2064474821090698,-3.1281352043151855,-0.5608899593353271,0
-1.219185709953308,-2.7260894775390625,0.5613545179367065,0
-0.9088019132614136,-2.662062168121338,1.4372886419296265,0
-1.0714737176895142,-2.156088352203369,1.3110277652740479,0
-0.3238757848739624,-1.9307126998901367,0.9522901773452759,0
0.9384678602218628,-1.0746841430664062,1.4269144535064697,0
1.4405412673950195,0.3241901397705078,1.702425479888916,0
1.860654354095459,1.8460044860839844,1.8081722259521484,0
2.0518221855163574,4.537478446960449,1.3954837322235107,0
1.8824422359466553,7.7919816970825195,0.4038279056549072,0
1.269597053527832,11.470083236694336,-0.029964447021484375,0
1.0300178527832031,14.669756889343262,-0.9958992004394531,0
0.9153106212615967,17.475574493408203,-0.14603877067565918,0
-0.8623458743095398,18.676753997802734,1.4061291217803955,0
-1.5970137119293213,17.994720458984375,3.5355327129364014,0
-1.5125293731689453,14.978943824768066,4.0457963943481445,0
-0.7871208190917969,11.223217010498047,6.689401149749756,0
-0.1470794677734375,7.2265167236328125,9.406257629394531,0
1.5393731594085693,3.49442195892334,8.923379898071289,0
2.0751359462738037,-0.46173858642578125,9.104408264160156,0
2.44669771194458,-2.6740598678588867,9.411727905273438,0
2.7511463165283203,-2.709723472595215,8.843317985534668,0
2.6215312480926514,-2.163877487182617,7.877615451812744,0
2.8481218814849854,-1.7283411026000977,7.163019180297852,0
3.6586711406707764,-1.2979545593261719,6.179298400878906,0
3.9509196281433105,0.32283878326416016,5.160074234008789,0
