AccX,AccY,AccZ,SampleRate
1.465662956237793,-4.418829441070557,1.4800829887390137,0
1.2114627361297607,-4.332854270935059,2.4882144927978516,0.01
0.7745164036750793,-3.873806953430176,3.122359275817871,0.02
0.4018002152442932,-3.0182862281799316,3.2944183349609375,0.03
-0.07948752492666245,-1.9939370155334473,3.0662925243377686,0.04
-0.5797920823097229,-1.102203369140625,2.458008050918579,0.05
-1.137062907218933,-0.5150251388549805,1.6724698543548584,0.060000000000000005
-1.437528371810913,-0.13872718811035156,0.8039980530738831,0.07
-1.4057035446166992,-0.049546241760253906,0.021010644733905792,0.08
-1.18048095703125,-0.15865707397460938,-0.5799866914749146,0.09
-1.1495814323425293,0.02910137176513672,-0.9459607601165771,0.09999999999999999
-0.9707121253013611,0.30765342712402344,-1.0665730237960815,0.10999999999999999
-0.8206957578659058,0.3372812271118164,-0.9858019351959229,0.11999999999999998
-0.6731572151184082,0.3908214569091797,-0.7637405395507812,0.12999999999999998
-0.5664888620376587,0.37495994567871094,-0.41194263100624084,0.13999999999999999
-0.4124171733856201,0.057845115661621094,-0.041820913553237915,0.15
-0.34032678604125977,-0.22297382354736328,0.26667848229408264,0.16
-0.003267720341682434,-0.4340076446533203,0.5988346934318542,0.17
0.2948862314224243,-0.7809123992919922,0.9033735990524292,0.18000000000000002
0.530517041683197,-0.9502134323120117,1.0402178764343262,0.19000000000000003
0.8119373917579651,-1.0855188369750977,1.1561118364334106,0.20000000000000004
1.0990077257156372,-1.0026941299438477,1.2035424709320068,0.21000000000000005
1.2845615148544312,-1.1658439636230469,1.1464850902557373,0.22000000000000006
1.5461242198944092,-1.4096660614013672,1.1206097602844238,0.23000000000000007
1.7932236194610596,-1.63604736328125,1.141539216041565,0.24000000000000007
2.0289113521575928,-1.7278766632080078,1.1794500350952148,0.25000000000000006
2.2846314907073975,-1.7786426544189453,1.357460618019104,0.26000000000000006
2.400266647338867,-1.5971927642822266,1.604886531829834,0.2700000000000001
2.4191465377807617,-1.0332307815551758,1.9473185539245605,0.2800000000000001
2.195155382156372,-0.22835159301757812,2.370018720626831,0.2900000000000001
1.6269463300704956,0.40819263458251953,2.753203868865967,0.3000000000000001
0.9909921884536743,0.7211208343505859,3.068251609802246,0.3100000000000001
0.5043238401412964,0.7299337387084961,3.200653076171875,0.3200000000000001
0.2382812201976776,0.5975856781005859,3.1339993476867676,0.3300000000000001
0.1566561460494995,0.3122701644897461,3.0047831535339355,0.34000000000000014
0.13231974840164185,0.3666677474975586,2.831754684448242,0.35000000000000014
0.14051014184951782,0.26525402069091797,2.786536931991577,0.36000000000000015
0.2663500905036926,0.31180572509765625,2.9287924766540527,0.37000000000000016
0.3916643261909485,1.278416633605957,3.2611589431762695,0.38000000000000017
0.714020848274231,1.7243986129760742,3.314868688583374,0.3900000000000002
1.3280768394470215,1.9779129028320312,3.303293228149414,0.4000000000000002
1.8736510276794434,2.4527387619018555,2.9061951637268066,0.4100000000000002
2.5027875900268555,2.871100425720215,2.181318759918213,0.4200000000000002
3.013298988342285,3.0679550170898438,1.4016166925430298,0.4300000000000002
3.510241746902466,2.9527406692504883,0.7014834880828857,0.4400000000000002
3.9008383750915527,2.6335439682006836,0.12176871299743652,0.45000000000000023
4.265157699584961,2.1179418563842773,-0.31117260456085205,0.46000000000000024
4.638143539428711,1.6239185333251953,-0.5929276943206787,0.47000000000000025
4.997292995452881,1.2998018264770508,-0.7505131959915161,0.48000000000000026
5.264654159545898,1.2386760711669922,-0.7489829659461975,0.49000000000000027
5.441084861755371,1.4044036865234375,-0.48146891593933105,0.5000000000000002
5.616072177886963,1.921102523803711,0.03201550245285034,0.5100000000000002
5.826623439788818,2.7477407455444336,0.6181662082672119,0.5200000000000002
5.858531951904297,3.5539979934692383,1.0486787557601929,0.5300000000000002
5.830365180969238,4.146267890930176,1.2221407890319824,0.5400000000000003
5.793466091156006,4.455565452575684,1.1905882358551025,0.5500000000000003
5.454294204711914,4.413052558898926,1.0306618213653564,0.5600000000000003
5.054619789123535,4.136503219604492,0.9483630657196045,0.5700000000000003
4.258538246154785,3.7626638412475586,0.9466183185577393,0.5800000000000003
2.596468210220337,3.5523624420166016,1.018511414527893,0.5900000000000003
0.9460353255271912,3.2974796295166016,1.177907943725586,0.6000000000000003
-0.447457492351532,2.9385366439819336,1.3568412065505981,0.6100000000000003
-1.5687350034713745,2.6768970489501953,1.6597744226455688,0.6200000000000003
-2.365034580230713,2.598994255065918,1.9978293180465698,0.6300000000000003
-2.851930618286133,2.6740036010742188,2.3017821311950684,0.6400000000000003
-3.2728843688964844,2.8328065872192383,2.4722976684570312,0.6500000000000004
-3.484388589859009,3.075620651245117,2.5014257431030273,0.6600000000000004
-3.657456159591675,3.1466989517211914,2.3743526935577393,0.6700000000000004
-3.638820171356201,2.9864912033081055,2.1753859519958496,0.6800000000000004
-3.509103298187256,2.7695207595825195,1.9302682876586914,0.6900000000000004
-3.387014865875244,2.5261850357055664,1.7423535585403442,0.7000000000000004
-3.452272891998291,2.4251956939697266,1.4491322040557861,0.7100000000000004
-3.558596611022949,2.5035104751586914,1.0492020845413208,0.7200000000000004
-3.577683925628662,2.659581184387207,0.5080626010894775,0.7300000000000004
-3.566744565963745,2.883270263671875,-0.36389434337615967,0.7400000000000004
-3.605670690536499,3.0908117294311523,-1.446890115737915,0.7500000000000004
-3.492696523666382,3.1486568450927734,-2.5452969074249268,0.7600000000000005
-3.295011043548584,3.069546699523926,-3.6171884536743164,0.7700000000000005
-2.746065139770508,2.8447656631469727,-4.5918097496032715,0.7800000000000005
-1.8747339248657227,2.6831483840942383,-5.524738311767578,0.7900000000000005
-1.0331991910934448,2.374776840209961,-6.186767578125,0.8000000000000005
-0.3840827941894531,2.240896224975586,-6.7557220458984375,0.8100000000000005
0.2597488760948181,2.0141944885253906,-6.775393486022949,0.8200000000000005
0.7221782803535461,1.7695903778076172,-6.432614803314209,0.8300000000000005
1.1996577978134155,1.5174283981323242,-5.947137832641602,0.8400000000000005
1.4774401187896729,1.1961994171142578,-5.281647682189941,0.8500000000000005
1.714348554611206,1.0768194198608398,-4.467710494995117,0.8600000000000005
1.9398430585861206,0.9681777954101562,-3.4138846397399902,0.8700000000000006
2.098526954650879,0.9513988494873047,-2.2421202659606934,0.8800000000000006
2.0859572887420654,0.9823780059814453,-1.0244801044464111,0.8900000000000006
1.93267822265625,0.9876384735107422,0.10836482048034668,0.9000000000000006
1.688585638999939,1.058314323425293,1.0642106533050537,0.9100000000000006
1.420021653175354,1.1084260940551758,1.613675832748413,0.9200000000000006
1.1329243183135986,1.1074132919311523,1.8154218196868896,0.9300000000000006
0.8235177397727966,0.9819278717041016,1.7127983570098877,0.9400000000000006
0.5835475921630859,0.8338737487792969,1.3786625862121582,0.9500000000000006
0.4125150442123413,0.5028419494628906,0.8554520606994629,0.9600000000000006
0.22057443857192993,0.09942245483398438,0.2061614990234375,0.9700000000000006
0.0535428524017334,-0.35405731201171875,-0.5234253406524658,0.9800000000000006
-0.03794960677623749,-0.7634782791137695,-1.2731585502624512,0.9900000000000007
-0.103526771068573,-1.2118077278137207,-1.9731817245483398,1.0000000000000007
-0.22336246073246002,-1.6122651100158691,-2.605982780456543,1.0100000000000007
-0.3458258807659149,-2.0049314498901367,-3.206549644470215,1.0200000000000007
-0.5335853099822998,-2.3223390579223633,-3.8287250995635986,1.0300000000000007
-0.7432804107666016,-2.607222080230713,-4.380141258239746,1.0400000000000007
-1.0056008100509644,-2.875962734222412,-4.876122951507568,1.0500000000000007
-1.3148610591888428,-3.0946545600891113,-5.406196594238281,1.0600000000000007
-1.6178081035614014,-3.1910948753356934,-5.856667995452881,1.0700000000000007
-1.9400460720062256,-3.2175660133361816,-6.341006278991699,1.0800000000000007
-2.2954509258270264,-3.1617956161499023,-6.745223045349121,1.0900000000000007
-2.593019485473633,-3.0880966186523438,-7.079665660858154,1.1000000000000008
-3.002984046936035,-2.998474597930908,-7.349971294403076,1.1100000000000008
-3.272449254989624,-2.9070239067077637,-7.563859462738037,1.1200000000000008
-3.4525022506713867,-2.8543014526367188,-7.499114990234375,1.1300000000000008
-3.5458028316497803,-2.831031322479248,-7.107517242431641,1.1400000000000008
-3.3577046394348145,-2.852088451385498,-6.493537902832031,1.1500000000000008
-3.167401075363159,-2.8918862342834473,-5.746811389923096,1.1600000000000008
-2.9148614406585693,-2.9560422897338867,-4.930421829223633,1.1700000000000008
-2.6124184131622314,-3.162510395050049,-3.9974846839904785,1.1800000000000008
-2.411907434463501,-3.4832253456115723,-3.1331636905670166,1.1900000000000008
-2.235570192337036,-3.81119966506958,-2.364689826965332,1.2000000000000008
-2.0387353897094727,-4.206771373748779,-1.7220275402069092,1.2100000000000009
-1.8550180196762085,-4.672743797302246,-1.1922030448913574,1.2200000000000009
-1.6932812929153442,-5.1639933586120605,-0.7720060348510742,1.2300000000000009
-1.4829736948013306,-5.623289585113525,-0.5398898124694824,1.2400000000000009
-1.3542128801345825,-6.041205406188965,-0.36632871627807617,1.2500000000000009
-1.2459323406219482,-6.377283573150635,-0.15051555633544922,1.260000000000001
-1.1212730407714844,-6.669913291931152,0.11961889266967773,1.270000000000001
-1.0629076957702637,-6.943079948425293,0.4466090202331543,1.280000000000001
-1.1440374851226807,-7.158539772033691,0.8019251823425293,1.290000000000001
-1.346976399421692,-7.242323875427246,1.1788687705993652,1.300000000000001
-1.6519253253936768,-7.280616283416748,1.5658268928527832,1.310000000000001
-2.0633628368377686,-7.247089862823486,1.922623634338379,1.320000000000001
-2.4910953044891357,-7.079351902008057,2.2901558876037598,1.330000000000001
-2.780550241470337,-6.73158073425293,2.6180033683776855,1.340000000000001
-3.0610547065734863,-6.3420491218566895,2.941725492477417,1.350000000000001
-3.4207003116607666,-5.695056438446045,3.1535756587982178,1.360000000000001
-3.515213966369629,-4.843010425567627,3.3876395225524902,1.370000000000001
-3.4315593242645264,-3.9626646041870117,3.541402578353882,1.380000000000001
-3.1921231746673584,-2.7903342247009277,3.614734411239624,1.390000000000001
-2.7402446269989014,-1.0263900756835938,3.723503351211548,1.400000000000001
-2.0753989219665527,1.2773990631103516,3.759308338165283,1.410000000000001
-1.0962347984313965,4.275341033935547,3.5399742126464844,1.420000000000001
0.044675491750240326,7.887356758117676,3.1803417205810547,1.430000000000001
1.146700382232666,12.43769359588623,2.6060101985931396,1.440000000000001
2.1869869232177734,16.765701293945312,1.4542884826660156,1.450000000000001
3.1520633697509766,19.908191680908203,-0.08654356002807617,1.460000000000001
3.5959887504577637,21.83804702758789,-0.6348412036895752,1.470000000000001
3.4850544929504395,21.762531280517578,0.900242805480957,1.480000000000001
2.7477664947509766,18.99948501586914,3.082714557647705,1.490000000000001
2.2014853954315186,14.295652389526367,4.836183547973633,1.500000000000001
1.993762493133545,9.423093795776367,6.058999061584473,1.5100000000000011
1.9350025653839111,5.934545516967773,6.945669174194336,1.5200000000000011
2.0247387886047363,3.7911853790283203,7.510795593261719,1.5300000000000011
2.182668685913086,2.811084747314453,7.614090919494629,1.5400000000000011
2.312518835067749,2.4967660903930664,7.184931755065918,1.5500000000000012
2.168077230453491,2.4630699157714844,6.1118550300598145,1.5600000000000012
1.8012367486953735,2.264950752258301,4.4815568923950195,1.5700000000000012
1.1360334157943726,2.1733217239379883,2.092496395111084,1.5800000000000012
0.1283072829246521,1.9197626113891602,-1.0140416622161865,1.5900000000000012
-1.063918948173523,0.7640762329101562,-4.240542411804199,1.6000000000000012
-2.1733672618865967,-0.9914541244506836,-7.274097919464111,1.6100000000000012
-2.892106056213379,-2.9630675315856934,-9.780475616455078,1.6200000000000012
-3.5640509128570557,-4.4401936531066895,-11.449708938598633,1.6300000000000012
-4.273180961608887,-5.409595012664795,-12.277322769165039,1.6400000000000012
-5.0936784744262695,-5.963992118835449,-12.235795021057129,1.6500000000000012
-6.059308052062988,-6.232076168060303,-11.319674491882324,1.6600000000000013
-7.25896692276001,-6.537270545959473,-9.189319610595703,1.6700000000000013
-7.894710540771484,-6.507797718048096,-6.960899829864502,1.6800000000000013
-7.142778396606445,-5.927924156188965,-4.8907976150512695,1.6900000000000013
-4.6589508056640625,-5.192503452301025,-3.1054039001464844,1.7000000000000013
-1.592384934425354,-4.429804801940918,-1.8265025615692139,1.7100000000000013
0.7787792682647705,-3.8032302856445312,-1.156211256980896,1.7200000000000013
2.21256685256958,-3.298680305480957,-0.8874115347862244,1.7300000000000013
2.9854073524475098,-2.7249059677124023,-1.0177016258239746,1.7400000000000013
3.446380138397217,-1.9935951232910156,-1.3685452938079834,1.7500000000000013
3.493190288543701,-1.1957569122314453,-2.006701707839966,1.7600000000000013
3.229016065597534,-0.49413585662841797,-2.6757853031158447,1.7700000000000014
2.749870777130127,0.1660919189453125,-3.2477681636810303,1.7800000000000014
2.0579617023468018,0.9733972549438477,-3.6468453407287598,1.7900000000000014
0.9703760743141174,2.0107593536376953,-4.0608696937561035,1.8000000000000014
-0.10698074102401733,3.040806770324707,-4.532930850982666,1.8100000000000014
-0.8897620439529419,3.958099365234375,-4.5686187744140625,1.8200000000000014
-1.4806616306304932,4.750575065612793,-3.9248344898223877,1.8300000000000014
-1.9652438163757324,5.0882463455200195,-2.973419189453125,1.8400000000000014
-2.236525535583496,4.689547538757324,-1.7438933849334717,1.8500000000000014
-2.006200075149536,3.670513153076172,-0.4048425555229187,1.8600000000000014
-1.382153034210205,2.38631534576416,0.7507400512695312,1.8700000000000014
-0.7590742707252502,1.2729930877685547,1.2508139610290527,1.8800000000000014
-0.13881301879882812,0.45033836364746094,1.112234354019165,1.8900000000000015
0.5128442049026489,-3.70025634765625E-4,0.5510480999946594,1.9000000000000015
0.8330299258232117,-0.088897705078125,-0.178436279296875,1.9100000000000015
1.1044766902923584,0.10075187683105469,-0.9581289291381836,1.9200000000000015
1.2501946687698364,0.32441043853759766,-1.7896978855133057,1.9300000000000015
1.2261207103729248,0.41949939727783203,-2.455456256866455,1.9400000000000015
1.1552766561508179,0.4149169921875,-2.96055269241333,1.9500000000000015
1.1745458841323853,0.3323545455932617,-3.411167621612549,1.9600000000000015
1.0850517749786377,0.1791057586669922,-3.7705702781677246,1.9700000000000015
0.8503506779670715,-0.2217121124267578,-3.848968029022217,1.9800000000000015
0.543433666229248,-0.7694559097290039,-3.6477959156036377,1.9900000000000015
0.17490896582603455,-1.495142936706543,-3.201875925064087,2.0000000000000013
-0.1439773440361023,-2.2336864471435547,-2.4957351684570312,2.010000000000001
-0.438015878200531,-3.0664901733398438,-1.7315040826797485,2.020000000000001
-0.5448592901229858,-3.8572473526000977,-0.9194389581680298,2.0300000000000007
-0.6201832294464111,-4.333523273468018,-0.059474505484104156,2.0400000000000005
-0.5584680438041687,-4.713369846343994,0.7151987552642822,2.0500000000000003
-0.38545408844947815,-4.736303806304932,1.3416098356246948,2.06
-0.2632957398891449,-4.400383949279785,1.7501860857009888,2.07
-0.07613533735275269,-3.746671676635742,1.959862470626831,2.0799999999999996
0.15035849809646606,-2.8305130004882812,1.9436041116714478,2.0899999999999994
0.24402697384357452,-1.8267526626586914,1.7839246988296509,2.099999999999999
0.3355681002140045,-1.036773681640625,1.4409151077270508,2.109999999999999
0.3947232961654663,-0.553593635559082,0.9717921614646912,2.1199999999999988
0.37900710105895996,-0.020646095275878906,0.4680551290512085,2.1299999999999986
0.46216079592704773,0.36345767974853516,0.0905778557062149,2.1399999999999983
0.6872438192367554,0.5080127716064453,-0.12306404113769531,2.149999999999998
0.8102428913116455,0.6715326309204102,-0.14942491054534912,2.159999999999998
0.8408716917037964,0.6626930236816406,-0.021965622901916504,2.1699999999999977
0.8489246964454651,0.4912986755371094,0.19998514652252197,2.1799999999999975
0.827641487121582,0.27475833892822266,0.4142035245895386,2.1899999999999973
0.7822332382202148,0.04187202453613281,0.5448907613754272,2.199999999999997
0.6892455816268921,-0.16423320770263672,0.6646623611450195,2.209999999999997
0.652202308177948,-0.3793754577636719,0.7287738919258118,2.2199999999999966
0.729244589805603,-0.5986909866333008,0.7471025586128235,2.2299999999999964
0.6985088586807251,-0.759953498840332,0.7220939993858337,2.239999999999996
0.6874942779541016,-0.9636154174804688,0.7037941813468933,2.249999999999996
0.7540230751037598,-1.1020307540893555,0.6938811540603638,2.259999999999996
0.8652265667915344,-1.337860107421875,0.7898052334785461,2.2699999999999956
0.9544718265533447,-1.5920934677124023,0.9093981981277466,2.2799999999999954
0.9667035341262817,-1.60174560546875,1.0756462812423706,2.289999999999995
0.9540843963623047,-1.6469697952270508,1.3856992721557617,2.299999999999995
0.8227018117904663,-1.2543888092041016,1.7453651428222656,2.3099999999999947
0.6128113865852356,-0.5991802215576172,2.2186715602874756,2.3199999999999945
0.34283748269081116,0.0504302978515625,2.6951370239257812,2.3299999999999943
0.043128252029418945,0.4767608642578125,3.1553711891174316,2.339999999999994
-0.25790703296661377,0.7063407897949219,3.4869203567504883,2.349999999999994
-0.38577520847320557,0.7585353851318359,3.647001028060913,2.3599999999999937
-0.510836660861969,0.6622419357299805,3.557142972946167,2.3699999999999934
-0.4804116487503052,0.4439525604248047,3.285022735595703,2.3799999999999932
-0.45317602157592773,0.28788280487060547,2.972113847732544,2.389999999999993
-0.35357457399368286,0.18667030334472656,2.7259864807128906,2.399999999999993
-0.11590683460235596,0.28353118896484375,2.5294907093048096,2.4099999999999926
0.28977280855178833,0.35570430755615234,2.5474488735198975,2.4199999999999924
0.9028034806251526,0.5704336166381836,2.700593948364258,2.429999999999992
1.484879493713379,0.9489116668701172,2.7737467288970947,2.439999999999992
2.2025578022003174,1.447824478149414,2.7842094898223877,2.4499999999999917
2.8422436714172363,1.8303375244140625,2.6900317668914795,2.4599999999999915
3.3945095539093018,1.979574203491211,2.5164761543273926,2.4699999999999913
3.7904489040374756,1.781214714050293,2.1355228424072266,2.479999999999991
4.16727352142334,1.3339099884033203,1.7609440088272095,2.489999999999991
4.4400458335876465,0.8533163070678711,1.254016637802124,2.4999999999999907
4.6911468505859375,0.521245002746582,0.6857922673225403,2.5099999999999905
4.907121658325195,0.3590278625488281,0.22733426094055176,2.5199999999999902
5.079257488250732,0.5504589080810547,-0.10926640033721924,2.52999999999999
5.318550109863281,1.0161008834838867,-0.1301436424255371,2.53999999999999
5.623963356018066,1.772322654724121,0.26285409927368164,2.5499999999999896
6.131577968597412,2.6754074096679688,0.9628480076789856,2.5599999999999894
6.480606555938721,3.6512489318847656,1.7249157428741455,2.569999999999989
6.422850131988525,4.317374229431152,2.151496410369873,2.579999999999989
6.154056072235107,4.5977935791015625,2.1540234088897705,2.5899999999999888
5.552684783935547,4.5696001052856445,1.7419787645339966,2.5999999999999885
4.576295375823975,4.261922836303711,1.183486819267273,2.6099999999999883
3.048835039138794,3.8281517028808594,0.6416158676147461,2.619999999999988
1.6887741088867188,3.3402442932128906,0.28710469603538513,2.629999999999988
0.5834407210350037,2.7625293731689453,0.10399819910526276,2.6399999999999877
-0.3077295422554016,2.4420042037963867,0.0496077686548233,2.6499999999999875
-1.0741400718688965,2.402524948120117,0.12658314406871796,2.6599999999999873
-1.803945541381836,2.8712425231933594,0.36833834648132324,2.669999999999987
-2.316286087036133,3.6757993698120117,0.6377480030059814,2.679999999999987
-2.7380926609039307,4.505492210388184,0.8233497142791748,2.6899999999999866
-2.9855687618255615,5.162463188171387,0.9311572313308716,2.6999999999999864
-3.1020302772521973,5.532736778259277,0.9691026210784912,2.709999999999986
-3.0666918754577637,5.346766471862793,1.0218987464904785,2.719999999999986
-2.979334831237793,4.904022216796875,1.086978793144226,2.7299999999999858
-2.9436442852020264,4.460105895996094,1.0595043897628784,2.7399999999999856
-3.0982794761657715,4.248343467712402,1.1075485944747925,2.7499999999999853
-3.29819917678833,4.18607234954834,1.1005635261535645,2.759999999999985
-3.3964908123016357,4.2101335525512695,0.8290525674819946,2.769999999999985
-3.302234649658203,4.162135124206543,0.39565742015838623,2.7799999999999847
-3.4710168838500977,4.062784194946289,0.18820500373840332,2.7899999999999845
-3.7740724086761475,4.045254707336426,-0.2532780170440674,2.7999999999999843
-3.794616937637329,3.7602033615112305,-1.116267204284668,2.809999999999984
-3.637643575668335,3.349245071411133,-2.036919116973877,2.819999999999984
-3.3507561683654785,2.879817008972168,-2.9724698066711426,2.8299999999999836
-2.8502161502838135,2.632138252258301,-3.832357406616211,2.8399999999999834
-2.2168684005737305,2.460709571838379,-4.357180595397949,2.849999999999983
-1.617321491241455,2.445347785949707,-4.745656967163086,2.859999999999983
-1.1217529773712158,2.4483890533447266,-5.124797821044922,2.869999999999983
-0.559621274471283,2.36588191986084,-5.3604254722595215,2.8799999999999826
-0.03440938889980316,2.1965932846069336,-5.486752033233643,2.8899999999999824
0.4766971170902252,1.9700727462768555,-5.447797775268555,2.899999999999982
1.182242512702942,1.7561864852905273,-5.136043548583984,2.909999999999982
1.780439019203186,1.4567947387695312,-4.528263092041016,2.9199999999999817
2.252852439880371,1.1217689514160156,-3.8132526874542236,2.9299999999999815
2.6316065788269043,0.71923828125,-3.0164012908935547,2.9399999999999813
2.8674936294555664,0.42749500274658203,-2.174877166748047,2.949999999999981
2.831756591796875,0.2331094741821289,-1.4095715284347534,2.959999999999981
2.7276101112365723,0.053272247314453125,-0.8536033630371094,2.9699999999999807
2.345931053161621,-0.0893707275390625,-0.5019834041595459,2.9799999999999804
1.8424632549285889,-0.24843311309814453,-0.3218107223510742,2.9899999999999802
1.3888328075408936,-0.4844398498535156,-0.31892919540405273,2.99999999999998
0.9981760382652283,-0.7237949371337891,-0.5305190086364746,3.00999999999998
0.6709262728691101,-1.0600500106811523,-0.8938829898834229,3.0199999999999796
0.3521835207939148,-1.2971696853637695,-1.4303123950958252,3.0299999999999794
0.1521863043308258,-1.5236129760742188,-2.008635997772217,3.039999999999979
0.004205673933029175,-1.875380516052246,-2.557952880859375,3.049999999999979
-0.10538291931152344,-2.193958282470703,-3.170531988143921,3.0599999999999787
-0.23542916774749756,-2.548032283782959,-3.819247007369995,3.0699999999999785
-0.3676043152809143,-3.015629291534424,-4.443811893463135,3.0799999999999783
-0.5623784065246582,-3.4308419227600098,-5.065134525299072,3.089999999999978
-0.8461242914199829,-3.757274627685547,-5.622409820556641,3.099999999999978
-1.12772536277771,-4.1092848777771,-6.097764015197754,3.1099999999999777
-1.4209637641906738,-4.352443695068359,-6.530658721923828,3.1199999999999775
-1.6033908128738403,-4.553490161895752,-6.8477582931518555,3.1299999999999772
-1.8036565780639648,-4.638041019439697,-7.052234649658203,3.139999999999977
-1.949640154838562,-4.646792411804199,-7.115691184997559,3.149999999999977
-2.088799238204956,-4.577548980712891,-6.985445022583008,3.1599999999999766
-2.1609246730804443,-4.464130878448486,-6.711400985717773,3.1699999999999764
-2.2685253620147705,-4.34059476852417,-6.2281107902526855,3.179999999999976
-2.3232100009918213,-4.190869331359863,-5.599090099334717,3.189999999999976
-2.430781126022339,-4.125807285308838,-4.801425457000732,3.1999999999999758
-2.5441298484802246,-4.009958744049072,-3.9388041496276855,3.2099999999999755
-2.6949825286865234,-3.9065446853637695,-2.995227336883545,3.2199999999999753
-2.8313705921173096,-3.919288158416748,-2.131833076477051,3.229999999999975
-2.987769365310669,-3.9963417053222656,-1.3159308433532715,3.239999999999975
-3.3447279930114746,-4.143075942993164,-0.6109261512756348,3.2499999999999747
-3.6612460613250732,-4.374072551727295,-0.1452775001525879,3.2599999999999745
-3.779405117034912,-4.64625358581543,0.1412339210510254,3.2699999999999743
-3.9899065494537354,-4.992964744567871,0.3300905227661133,3.279999999999974
-3.9418466091156006,-5.198881149291992,0.5267596244812012,3.289999999999974
-3.908693552017212,-5.448171138763428,0.640416145324707,3.2999999999999736
-3.774296522140503,-5.57078742980957,0.7308778762817383,3.3099999999999734
-3.6191654205322266,-5.690999507904053,0.8196983337402344,3.319999999999973
-3.4712376594543457,-5.7392473220825195,0.9093680381774902,3.329999999999973
-3.4042134284973145,-5.732094764709473,1.0119576454162598,3.3399999999999728
-3.4299118518829346,-5.700326919555664,1.117879867553711,3.3499999999999726
-3.526862382888794,-5.6984148025512695,1.190943717956543,3.3599999999999723
-3.6998467445373535,-5.730214595794678,1.1775665283203125,3.369999999999972
-3.657050848007202,-5.718172550201416,1.083667278289795,3.379999999999972
-3.1883633136749268,-5.376772880554199,0.9986073970794678,3.3899999999999717
-2.929433584213257,-5.0283050537109375,0.7844994068145752,3.3999999999999715
-2.6022117137908936,-4.542980194091797,0.6316108703613281,3.4099999999999713
-2.0870814323425293,-3.860691547393799,0.5772297382354736,3.419999999999971
-1.5490905046463013,-2.8257980346679688,0.538964033126831,3.429999999999971
-0.9551293253898621,-1.2540230751037598,0.6993422508239746,3.4399999999999706
-0.10243020951747894,0.8332080841064453,1.0101423263549805,3.4499999999999704
0.8821635246276855,3.397782325744629,1.4582171440124512,3.45999999999997
2.0277178287506104,6.532971382141113,2.171266794204712,3.46999999999997
3.2841060161590576,10.111849784851074,2.8438010215759277,3.47999999999997
4.5537848472595215,13.76136589050293,3.1344034671783447,3.4899999999999696
5.799206733703613,16.441913604736328,2.921564817428589,3.4999999999999694
7.142147064208984,17.33990478515625,2.227950096130371,3.509999999999969
7.979030132293701,17.272981643676758,1.8824834823608398,3.519999999999969
8.355571746826172,16.08126449584961,2.2490344047546387,3.5299999999999687
7.383486270904541,13.606781959533691,3.2403852939605713,3.5399999999999685
5.975449562072754,9.789560317993164,4.278008460998535,3.5499999999999683
5.07915735244751,6.236265182495117,5.245051383972168,3.559999999999968
4.263747692108154,3.7484989166259766,6.034594535827637,3.569999999999968
3.5498738288879395,2.1852216720581055,6.726413249969482,3.5799999999999677
2.7747747898101807,1.3700075149536133,7.246036529541016,3.5899999999999674
1.9720935821533203,1.1148223876953125,7.473541736602783,3.5999999999999672
1.094935655593872,1.1793575286865234,7.284477710723877,3.609999999999967
0.108016237616539,1.527139663696289,6.556232929229736,3.619999999999967
-0.8801252841949463,2.0979909896850586,5.273595809936523,3.6299999999999666
-2.035874843597412,2.4565792083740234,3.4521350860595703,3.6399999999999664
-3.467210531234741,2.0777034759521484,0.8501360416412354,3.649999999999966
-6.8274617195129395,1.6183853149414062,-2.167975425720215,3.659999999999966
-10.463245391845703,1.0699291229248047,-5.078147888183594,3.6699999999999657
-13.3031005859375,0.5357589721679688,-7.4498772621154785,3.6799999999999655
-15.19753646850586,0.30113697052001953,-9.198694229125977,3.6899999999999653
-15.962701797485352,0.18739700317382812,-10.411251068115234,3.699999999999965
-15.418401718139648,-0.07679271697998047,-10.807880401611328,3.709999999999965
-12.808762550354004,-0.6668128967285156,-10.098633766174316,3.7199999999999647
-9.737496376037598,-1.2546796798706055,-8.95162582397461,3.7299999999999645
-6.729331970214844,-2.21286678314209,-6.677292346954346,3.7399999999999642
-3.6870968341827393,-3.0833983421325684,-4.619574069976807,3.749999999999964
-0.9781478643417358,-3.663990020751953,-3.079136371612549,3.759999999999964
1.0562623739242554,-4.175289154052734,-2.0935404300689697,3.7699999999999636
2.4291718006134033,-4.641029357910156,-1.7058234214782715,3.7799999999999634
3.219876766204834,-4.876575946807861,-1.8773226737976074,3.789999999999963
3.770294189453125,-4.77637243270874,-2.4410204887390137,3.799999999999963
4.094481945037842,-4.488529205322266,-3.2204394340515137,3.8099999999999627
4.20604133605957,-4.000959873199463,-3.9285545349121094,3.8199999999999625
4.216388702392578,-3.371159553527832,-4.435285568237305,3.8299999999999623
4.115017414093018,-2.7451324462890625,-4.815659999847412,3.839999999999962
3.7923927307128906,-2.0154852867126465,-4.9496541023254395,3.849999999999962
3.14931583404541,-0.9676971435546875,-4.8162713050842285,3.8599999999999617
2.2752268314361572,0.12690162658691406,-4.680793762207031,3.8699999999999615
1.5848724842071533,1.2555112838745117,-4.52847146987915,3.8799999999999613
0.9402045607566833,2.4507312774658203,-3.9833781719207764,3.889999999999961
0.5416348576545715,3.5803356170654297,-3.0103516578674316,3.899999999999961
0.38274216651916504,4.459991455078125,-1.7403039932250977,3.9099999999999606
0.6289595365524292,4.870128631591797,-0.2451595664024353,3.9199999999999604
1.2443573474884033,4.426763534545898,1.14236581325531,3.92999999999996
2.0434489250183105,3.2797985076904297,2.0583529472351074,3.93999999999996
2.770083427429199,1.8898372650146484,2.2778656482696533,3.9499999999999598
3.3452401161193848,0.7622509002685547,1.8487906455993652,3.9599999999999596
3.691840648651123,0.1003732681274414,0.9932976961135864,3.9699999999999593
3.892709732055664,-0.3447723388671875,0.15581798553466797,3.979999999999959
3.548048973083496,-0.4513826370239258,-0.7221930623054504,3.989999999999959
2.56901478767395,-0.3370380401611328,-1.5156502723693848,3.9999999999999587
1.3246593475341797,-0.17903995513916016,-2.194767713546753,4.009999999999959
0.20538464188575745,-0.09470367431640625,-2.7746591567993164,4.019999999999959
-0.576979398727417,-0.0815744400024414,-3.2445647716522217,4.0299999999999585
-1.0034321546554565,-0.20890331268310547,-3.534148931503296,4.039999999999958
-1.1160666942596436,-0.4358987808227539,-3.56758189201355,4.049999999999958
-0.9854798316955566,-0.7194585800170898,-3.3975541591644287,4.059999999999958
-0.9483292102813721,-1.0428638458251953,-3.0165929794311523,4.069999999999958
-0.9921516180038452,-1.3152837753295898,-2.4291090965270996,4.079999999999957
-1.0281423330307007,-1.6325016021728516,-1.7564598321914673,4.089999999999957
-1.0256167650222778,-1.958651065826416,-0.9978827238082886,4.099999999999957
-1.0640851259231567,-2.2363767623901367,-0.2389424741268158,4.109999999999957
-1.0702378749847412,-2.4681577682495117,0.3844730854034424,4.119999999999957
-0.9682361483573914,-2.622987747192383,0.9207746386528015,4.129999999999956
-0.8638773560523987,-2.569456100463867,1.277394413948059,4.139999999999956
-0.7003964185714722,-2.439344882965088,1.5244405269622803,4.149999999999956
-0.5284057855606079,-2.1466622352600098,1.6340806484222412,4.159999999999956
-0.3650338053703308,-1.7872438430786133,1.5806043148040771,4.1699999999999555
-0.19148734211921692,-1.4041996002197266,1.3835947513580322,4.179999999999955
0.027850180864334106,-0.9855804443359375,1.0528475046157837,4.189999999999955
0.2545696496963501,-0.6437921524047852,0.6479217410087585,4.199999999999955
0.4238375425338745,-0.43611812591552734,0.22093769907951355,4.209999999999955
0.47545742988586426,-0.12091064453125,-0.20066359639167786,4.2199999999999545
0.47104790806770325,0.2609891891479492,-0.5056226253509521,4.229999999999954
0.49870678782463074,0.44164180755615234,-0.6660391092300415,4.239999999999954
0.543696939945221,0.4356069564819336,-0.6414710283279419,4.249999999999954
0.5723433494567871,0.4295969009399414,-0.5036605596542358,4.259999999999954
0.6662087440490723,0.3136320114135742,-0.2926673889160156,4.269999999999953
0.8089308738708496,0.03769493103027344,0.018843024969100952,4.279999999999953
0.9601833820343018,-0.15167236328125,0.35754474997520447,4.289999999999953
1.1612555980682373,-0.37166690826416016,0.6762325167655945,4.299999999999953
1.2787296772003174,-0.6269512176513672,0.9875820279121399,4.3099999999999525
1.4976754188537598,-0.9795570373535156,1.2441389560699463,4.319999999999952
1.6463673114776611,-1.2953948974609375,1.4435241222381592,4.329999999999952
1.727460265159607,-1.5792617797851562,1.5902435779571533,4.339999999999952
1.8683222532272339,-1.8598723411560059,1.6620944738388062,4.349999999999952
2.1148762702941895,-2.029625415802002,1.7157341241836548,4.3599999999999515
2.2374796867370605,-2.186738967895508,1.7120029926300049,4.369999999999951
2.2069249153137207,-2.2309012413024902,1.669145941734314,4.379999999999951
2.1780927181243896,-2.2651681900024414,1.7109545469284058,4.389999999999951
2.164546251296997,-2.0553231239318848,1.84406578540802,4.399999999999951
1.864272952079773,-1.3937406539916992,2.0657026767730713,4.40999999999995
1.5594844818115234,-0.4579744338989258,2.3566153049468994,4.41999999999995
1.2336260080337524,0.24469661712646484,2.673643112182617,4.42999999999995
1.0186445713043213,0.6236896514892578,2.966421604156494,4.43999999999995
0.8382103443145752,0.7009029388427734,3.1701464653015137,4.4499999999999496
0.6421788930892944,0.5435771942138672,3.265167713165283,4.459999999999949
0.4996825158596039,0.27381229400634766,3.2699551582336426,4.469999999999949
0.3955777883529663,-0.024743080139160156,3.2508344650268555,4.479999999999949
0.36477428674697876,-0.22552490234375,3.286026954650879,4.489999999999949
0.6146180629730225,-0.2451305389404297,3.4298810958862305,4.4999999999999485
1.0389461517333984,-0.12215709686279297,3.586442470550537,4.509999999999948
1.4595708847045898,0.2746696472167969,3.6988189220428467,4.519999999999948
1.8872261047363281,1.4853935241699219,3.7609963417053223,4.529999999999948
2.665086507797241,2.2225799560546875,3.5157618522644043,4.539999999999948
3.2512550354003906,3.046381950378418,3.062849521636963,4.549999999999947
3.647606611251831,3.5478734970092773,2.3940272331237793,4.559999999999947
3.9952847957611084,3.665386199951172,1.6754090785980225,4.569999999999947
4.21588134765625,3.4855947494506836,1.0173864364624023,4.579999999999947
4.3748979568481445,3.2863149642944336,0.43150436878204346,4.589999999999947
4.64523458480835,3.1967248916625977,-0.07108092308044434,4.599999999999946
4.807295322418213,3.415109634399414,-0.5586845874786377,4.609999999999946
4.87579345703125,3.783217430114746,-0.982447624206543,4.619999999999946
5.133768558502197,4.238687515258789,-1.2912216186523438,4.629999999999946
5.388365745544434,4.6451520919799805,-1.338271975517273,4.6399999999999455
5.719913959503174,4.990805625915527,-1.2948335409164429,4.649999999999945
6.077324867248535,5.2065324783325195,-0.9871342182159424,4.659999999999945
6.290194988250732,5.3453168869018555,-0.48251867294311523,4.669999999999945
6.626584529876709,5.299932479858398,0.09248524904251099,4.679999999999945
6.68244743347168,5.221517562866211,0.66436767578125,4.689999999999944
6.19406270980835,5.024230003356934,1.255556344985962,4.699999999999944
3.7045812606811523,5.107414245605469,1.501693606376648,4.709999999999944
0.8490409851074219,5.140606880187988,1.4036153554916382,4.719999999999944
-1.013242483139038,4.8777360916137695,1.2065362930297852,4.729999999999944
-2.0851945877075195,4.396076202392578,1.0225516557693481,4.739999999999943
-2.7068049907684326,3.9235353469848633,0.8855777978897095,4.749999999999943
-3.040386915206909,3.398406982421875,0.8636558651924133,4.759999999999943
-3.085691452026367,3.026805877685547,0.924839973449707,4.769999999999943
-3.008308172225952,2.7466840744018555,0.984925389289856,4.7799999999999425
-3.082868814468384,2.493541717529297,0.9459865689277649,4.789999999999942
-3.0110580921173096,2.1716766357421875,0.720463216304779,4.799999999999942
-3.0010323524475098,1.7377738952636719,0.5906203985214233,4.809999999999942
-3.104325294494629,1.236663818359375,0.48500150442123413,4.819999999999942
-2.960977077484131,0.844334602355957,0.5042129755020142,4.8299999999999415
-2.992810010910034,0.7365789413452148,0.3783559799194336,4.839999999999941
-2.916934013366699,0.6708269119262695,0.09103810787200928,4.849999999999941
-2.9134633541107178,0.5367288589477539,-0.4072725176811218,4.859999999999941
-2.8696107864379883,0.49709224700927734,-1.07217538356781,4.869999999999941
-2.9520864486694336,0.5068607330322266,-1.8438640832901,4.87999999999994
-3.080775260925293,0.5141630172729492,-2.7161455154418945,4.88999999999994
-3.087127447128296,0.42435741424560547,-3.6474056243896484,4.89999999999994
-3.095386266708374,0.40820980072021484,-4.510940074920654,4.90999999999994
-3.010761260986328,0.44470977783203125,-5.254562854766846,4.9199999999999395
-2.878145217895508,0.42887401580810547,-5.802393913269043,4.929999999999939
-2.536160469055176,0.3537416458129883,-6.082113265991211,4.939999999999939
-1.8958747386932373,0.13343334197998047,-6.0207014083862305,4.949999999999939
-1.1254267692565918,0.01934528350830078,-5.72684383392334,4.959999999999939
-0.4615798890590668,-0.09368324279785156,-5.321332931518555,4.9699999999999385
0.06934848427772522,-0.004515647888183594,-4.8681793212890625,4.979999999999938
0.4956014156341553,0.18402099609375,-4.216158866882324,4.989999999999938
0.9194811582565308,0.5222291946411133,-3.5322160720825195,4.999999999999938
1.1221938133239746,0.9477710723876953,-2.762608528137207,5.009999999999938
1.252894401550293,1.438704490661621,-2.0130372047424316,5.019999999999937
1.2829155921936035,1.8436203002929688,-1.2473032474517822,5.029999999999937
1.172616958618164,2.0492334365844727,-0.4409918785095215,5.039999999999937
0.8817470073699951,1.977931022644043,0.2320718765258789,5.049999999999937
0.5443700551986694,1.6787614822387695,0.8060874938964844,5.0599999999999365
0.15104171633720398,1.1696805953979492,1.1591286659240723,5.069999999999936
-0.24525922536849976,0.5812320709228516,1.2952802181243896,5.079999999999936
-0.6315840482711792,-0.11122989654541016,1.27024507522583,5.089999999999936
-0.8699552416801453,-0.7334423065185547,1.031261920928955,5.099999999999936
-1.048972725868225,-1.3144011497497559,0.6617436408996582,5.1099999999999355
-1.1826837062835693,-1.7634000778198242,0.13739585876464844,5.119999999999935
-1.3232609033584595,-2.1641969680786133,-0.46108388900756836,5.129999999999935
-1.4274539947509766,-2.499927043914795,-1.0196888446807861,5.139999999999935
-1.5503318309783936,-2.720113754272461,-1.5945403575897217,5.149999999999935
-1.62496018409729,-2.946258544921875,-2.153595447540283,5.159999999999934
-1.7232959270477295,-3.1537885665893555,-2.693586826324463,5.169999999999934
-1.7566752433776855,-3.2869925498962402,-3.266294002532959,5.179999999999934
-1.7439813613891602,-3.560192584991455,-3.864067792892456,5.189999999999934
-1.6681060791015625,-3.776085376739502,-4.46028470993042,5.199999999999934
-1.5308271646499634,-3.8383660316467285,-4.931985855102539,5.209999999999933
-1.242352843284607,-3.959524154663086,-5.284985542297363,5.219999999999933
-0.9418672323226929,-3.940840721130371,-5.562651634216309,5.229999999999933
-0.7083978056907654,-3.7826147079467773,-5.74796199798584,5.239999999999933
-0.5164867043495178,-3.609569549560547,-5.828627586364746,5.2499999999999325
-0.3967103362083435,-3.472187042236328,-5.744564056396484,5.259999999999932
-0.39952194690704346,-3.365837574005127,-5.636749744415283,5.269999999999932
-0.4441514015197754,-3.202317237854004,-5.411426067352295,5.279999999999932
-0.5743200182914734,-3.1183972358703613,-5.020168304443359,5.289999999999932
-0.7549203038215637,-3.1981406211853027,-4.502924919128418,5.299999999999931
-0.9555355906486511,-3.3653764724731445,-3.8683435916900635,5.309999999999931
-1.1404273509979248,-3.625324249267578,-3.2446060180664062,5.319999999999931
-1.249684453010559,-3.9760279655456543,-2.575594902038574,5.329999999999931
-1.4122234582901,-4.448967456817627,-1.9631307125091553,5.339999999999931
-1.434123158454895,-4.94879150390625,-1.3344600200653076,5.34999999999993
-1.4062153100967407,-5.432706356048584,-0.7271907329559326,5.35999999999993
-1.3135346174240112,-6.15665864944458,-0.12424373626708984,5.36999999999993
-1.2487739324569702,-6.766470909118652,0.4124417304992676,5.37999999999993
-1.1878327131271362,-7.188161849975586,0.8999719619750977,5.3899999999999295
-1.2842755317687988,-7.297507286071777,1.458073616027832,5.399999999999929
-1.496780276298523,-7.960064888000488,1.8183894157409668,5.409999999999929
-1.7510721683502197,-8.290238380432129,2.2633800506591797,5.419999999999929
-1.873854160308838,-8.331713676452637,2.8107874393463135,5.429999999999929
-1.700062870979309,-7.728974342346191,3.419126033782959,5.4399999999999284
-1.7652653455734253,-7.568607330322266,4.0085649490356445,5.449999999999928
-1.5860222578048706,-6.939056873321533,4.594817161560059,5.459999999999928
-0.9099799990653992,-5.967278480529785,5.085330963134766,5.469999999999928
-0.022550426423549652,-4.791415214538574,5.25238037109375,5.479999999999928
1.0017353296279907,-3.3551716804504395,5.079598426818848,5.489999999999927
1.7391331195831299,-1.3891630172729492,4.716444969177246,5.499999999999927
2.271480083465576,1.3208532333374023,4.183815956115723,5.509999999999927
2.603882312774658,4.685214996337891,3.4840970039367676,5.519999999999927
2.872251272201538,8.642715454101562,2.788569688796997,5.5299999999999265
3.21339750289917,13.186924934387207,1.8202335834503174,5.539999999999926
3.47575044631958,16.830978393554688,0.4289970397949219,5.549999999999926
3.4602646827697754,18.914203643798828,-0.5598623752593994,5.559999999999926
2.6726126670837402,19.727191925048828,-0.1387784481048584,5.569999999999926
0.9577131867408752,18.662559509277344,1.5595743656158447,5.5799999999999255
-0.647528350353241,15.328596115112305,3.502377510070801,5.589999999999925
-1.5174825191497803,10.3073148727417,4.9864301681518555,5.599999999999925
-2.125162363052368,6.399109840393066,5.985103607177734,5.609999999999925
-2.3807501792907715,4.203800201416016,6.357144355773926,5.619999999999925
-2.4426448345184326,3.5843868255615234,6.0022077560424805,5.629999999999924
-2.344775676727295,4.177060127258301,5.191888332366943,5.639999999999924
-2.296322822570801,5.412567138671875,4.057021141052246,5.649999999999924
-2.234470844268799,6.34190559387207,2.642997980117798,5.659999999999924
-2.0304880142211914,6.189454078674316,0.8586723804473877,5.6699999999999235
-1.8930885791778564,5.486427307128906,-1.1296595335006714,5.679999999999923
-2.0990777015686035,4.931402206420898,-3.2916197776794434,5.689999999999923
-2.521690607070923,4.060759544372559,-5.6349029541015625,5.699999999999923
-3.2630646228790283,2.957195281982422,-7.767169952392578,5.709999999999923
-4.148869514465332,1.6415138244628906,-9.477287292480469,5.7199999999999225
-5.028067588806152,0.29949092864990234,-10.270309448242188,5.729999999999922
-5.898017883300781,-1.0937795639038086,-10.243036270141602,5.739999999999922
-5.977369785308838,-2.608595848083496,-9.533616065979004,5.749999999999922
-4.9620537757873535,-4.095144748687744,-8.326781272888184,5.759999999999922
-3.292107105255127,-5.382740020751953,-6.806227684020996,5.769999999999921
-1.6690641641616821,-6.256267070770264,-5.341251373291016,5.779999999999921
-0.06335009634494781,-6.6187639236450195,-4.229780197143555,5.789999999999921
1.3362360000610352,-6.744254112243652,-3.5067286491394043,5.799999999999921
2.424255847930908,-6.908682346343994,-3.223757743835449,5.809999999999921
3.113797664642334,-7.157814025878906,-3.3571724891662598,5.81999999999992
3.4318349361419678,-7.417544364929199,-3.6716384887695312,5.82999999999992
3.4690771102905273,-7.446310997009277,-4.045239448547363,5.83999999999992
3.4457433223724365,-7.146279335021973,-4.296370506286621,5.84999999999992
3.3497681617736816,-6.568111419677734,-4.412229537963867,5.8599999999999195
3.073047637939453,-5.7935895919799805,-4.199736595153809,5.869999999999919
2.655142307281494,-4.624661922454834,-3.874635696411133,5.879999999999919
2.008119821548462,-2.844402313232422,-3.5162410736083984,5.889999999999919
1.0499268770217896,-0.36288928985595703,-3.1565465927124023,5.899999999999919
-0.2980232238769531,2.572528839111328,-2.821371555328369,5.909999999999918
-2.0454864501953125,5.207927703857422,-2.6814699172973633,5.919999999999918
-3.978065013885498,7.373270034790039,-1.9393959045410156,5.929999999999918
-5.756500720977783,8.847933769226074,-0.2853802442550659,5.939999999999918
-6.582859039306641,9.418689727783203,1.771299958229065,5.949999999999918
-5.589587211608887,8.423815727233887,3.2699360847473145,5.959999999999917
-2.818927764892578,5.751030921936035,3.8379716873168945,5.969999999999917
-0.042885541915893555,3.039072036743164,3.416180372238159,5.979999999999917
1.4592437744140625,1.135554313659668,2.252636194229126,5.989999999999917
2.004894256591797,-0.12462806701660156,0.6569918394088745,5.9999999999999165
2.019768714904785,-0.7680177688598633,-0.9553829431533813,6.009999999999916
1.7176856994628906,-0.9935827255249023,-2.481635332107544,6.019999999999916
1.3644577264785767,-0.9859275817871094,-3.7554008960723877,6.029999999999916
1.0150542259216309,-0.8817176818847656,-4.630942344665527,6.039999999999916
0.6718355417251587,-0.7935657501220703,-5.206211566925049,6.0499999999999154
0.5619724988937378,-0.9103860855102539,-5.5319719314575195,6.059999999999915
0.5493195056915283,-0.973689079284668,-5.63053560256958,6.069999999999915
0.5477482080459595,-1.031412124633789,-5.495354175567627,6.079999999999915
0.4877053201198578,-1.2629423141479492,-5.165669918060303,6.089999999999915
0.4715707302093506,-1.593998908996582,-4.53758430480957,6.099999999999914
0.4295665919780731,-2.1632156372070312,-3.586219072341919,6.109999999999914
0.4186827540397644,-2.757577896118164,-2.3056344985961914,6.119999999999914
0.4411715865135193,-3.1954240798950195,-0.8469541072845459,6.129999999999914
0.5475931167602539,-3.5128955841064453,0.6467092037200928,6.1399999999999135
0.6266471147537231,-3.533247947692871,2.033494710922241,6.149999999999913
0.7472346425056458,-3.091895580291748,3.170682907104492,6.159999999999913
0.7630901336669922,-2.297025203704834,3.911376953125,6.169999999999913
0.5822025537490845,-1.4886150360107422,4.1683454513549805,6.179999999999913
0.007450491189956665,-0.7743043899536133,3.936816453933716,6.1899999999999125
-0.738852322101593,-0.31419849395751953,3.191246747970581,6.199999999999912
-1.2502362728118896,-0.08884716033935547,2.182028293609619,6.209999999999912
-1.2961112260818481,0.004893302917480469,1.093784213066101,6.219999999999912
-0.9412946701049805,-0.07341384887695312,0.08673121780157089,6.229999999999912
-0.505868136882782,-0.22788143157958984,-0.6306122541427612,6.239999999999911
-0.36765071749687195,-0.15239429473876953,-1.0125926733016968,6.249999999999911
-0.15068280696868896,-0.0051097869873046875,-1.072824239730835,6.259999999999911
0.02813631296157837,0.03927898406982422,-0.8959363698959351,6.269999999999911
0.02055951952934265,0.0669260025024414,-0.5944467186927795,6.2799999999999105
0.044376641511917114,0.10653018951416016,-0.15798455476760864,6.28999999999991
0.17844080924987793,0.048107147216796875,0.21628932654857635,6.29999999999991
0.19314485788345337,-0.10578250885009766,0.5491668581962585,6.30999999999991
0.38784074783325195,-0.1301736831665039,0.7920655608177185,6.31999999999991
0.5521997809410095,-0.15665435791015625,0.9391834139823914,6.3299999999999095
0.6361525654792786,-0.1421070098876953,1.0368961095809937,6.339999999999909
0.7330688238143921,-0.311279296875,1.1287791728973389,6.349999999999909
0.8073136210441589,-0.5204029083251953,1.1455588340759277,6.359999999999909
0.9476777911186218,-0.6976375579833984,1.2090792655944824,6.369999999999909
1.1280152797698975,-0.9984273910522461,1.2131931781768799,6.379999999999908
1.248117446899414,-1.283949851989746,1.2309249639511108,6.389999999999908
1.4830291271209717,-1.4490413665771484,1.273038387298584,6.399999999999908
1.7303918600082397,-1.4747447967529297,1.4700393676757812,6.409999999999908
1.8730512857437134,-1.6076068878173828,1.6722694635391235,6.419999999999908
1.9659180641174316,-1.5893630981445312,1.9911086559295654,6.429999999999907
1.9487781524658203,-1.3318519592285156,2.358694076538086,6.439999999999907
1.8497490882873535,-0.8689966201782227,2.7145345211029053,6.449999999999907
1.4909045696258545,-0.4355430603027344,3.0343008041381836,6.459999999999907
1.1083855628967285,-0.09377479553222656,3.2603402137756348,6.4699999999999065
0.7830817699432373,0.053546905517578125,3.340383529663086,6.479999999999906
0.6871652007102966,0.05927467346191406,3.289320230484009,6.489999999999906
0.5786988139152527,0.10051345825195312,3.0597548484802246,6.499999999999906
0.5197063088417053,0.11266231536865234,2.8699183464050293,6.509999999999906
0.5550413727760315,0.18420696258544922,2.808696985244751,6.519999999999905
0.6574612855911255,0.2982616424560547,2.8212223052978516,6.529999999999905
0.878559410572052,0.5311651229858398,2.8572540283203125,6.539999999999905
1.2484115362167358,0.7535219192504883,2.947843551635742,6.549999999999905
1.8042452335357666,1.060887336730957,3.0142087936401367,6.559999999999905
2.451815605163574,1.3597602844238281,2.7381386756896973,6.569999999999904
2.9945425987243652,1.7314262390136719,2.378647804260254,6.579999999999904
3.499558448791504,1.8100404739379883,2.044182777404785,6.589999999999904
4.027233123779297,1.7993345260620117,1.5056331157684326,6.599999999999904
4.336411476135254,1.5608510971069336,0.9550786018371582,6.6099999999999035
4.530460357666016,1.3866758346557617,0.4262826442718506,6.619999999999903
4.703379154205322,1.3318262100219727,-0.051984310150146484,6.629999999999903
4.81260871887207,1.3770647048950195,-0.4442325830459595,6.639999999999903
4.908960342407227,1.577254295349121,-0.58881676197052,6.649999999999903
5.062190055847168,1.8628015518188477,-0.5111602544784546,6.659999999999902
5.222650527954102,2.1690149307250977,-0.014265298843383789,6.669999999999902
5.551627159118652,2.742192268371582,0.7544788718223572,6.679999999999902
5.8591790199279785,3.316682815551758,1.542771577835083,6.689999999999902
5.907678127288818,3.914113998413086,2.0175600051879883,6.699999999999902
5.705272674560547,4.2619218826293945,2.090130567550659,6.709999999999901
5.2018351554870605,4.410665512084961,1.6651079654693604,6.719999999999901
4.681597709655762,4.379798889160156,1.0663470029830933,6.729999999999901
4.0098114013671875,4.207888603210449,0.4907355308532715,6.739999999999901
2.8690013885498047,4.095973014831543,0.15636056661605835,6.7499999999999005
0.9689562320709229,4.086874008178711,-0.05936795473098755,6.7599999999999
-0.764331579208374,4.020230293273926,-0.11196854710578918,6.7699999999999
-1.9532525539398193,3.843690872192383,-0.077362060546875,6.7799999999999
-2.6296114921569824,3.4932336807250977,0.14794498682022095,6.7899999999999
-3.1847822666168213,3.2350082397460938,0.425521582365036,6.7999999999998995
-3.4449915885925293,2.985809326171875,0.7346740961074829,6.809999999999899
-3.755385637283325,2.8371400833129883,1.0155491828918457,6.819999999999899
-3.877920627593994,2.8014144897460938,1.2798552513122559,6.829999999999899
-3.850768804550171,2.84063720703125,1.44258713722229,6.839999999999899
-3.6441872119903564,2.80661678314209,1.5319794416427612,6.849999999999898
-3.5607409477233887,2.5916452407836914,1.6128523349761963,6.859999999999898
-3.67319917678833,2.2384538650512695,1.5773556232452393,6.869999999999898
-3.7253384590148926,2.033397674560547,1.5032148361206055,6.879999999999898
-3.8337295055389404,1.870163917541504,1.2763917446136475,6.8899999999998975
-3.9520671367645264,1.9486379623413086,0.9370124340057373,6.899999999999897
-4.133748531341553,2.0622739791870117,0.3721010684967041,6.909999999999897
-4.354705810546875,2.1102495193481445,-0.4221799373626709,6.919999999999897
-4.4437255859375,2.18338680267334,-1.2371007204055786,6.929999999999897
-4.453522205352783,2.2052812576293945,-2.070294141769409,6.9399999999998965
-4.340783596038818,2.0783767700195312,-2.9751362800598145,6.949999999999896
-4.283931255340576,1.9492816925048828,-3.7489657402038574,6.959999999999896
-3.876605987548828,1.823324203491211,-4.494518756866455,6.969999999999896
-2.813735008239746,1.767868995666504,-4.9877824783325195,6.979999999999896
-1.8045791387557983,1.8070125579833984,-5.34401273727417,6.989999999999895
-0.9046781063079834,1.8645086288452148,-5.411630153656006,6.999999999999895
-0.23438405990600586,1.8928718566894531,-5.1637678146362305,7.009999999999895
0.2597450613975525,1.799407958984375,-4.791705131530762,7.019999999999895
0.6552774906158447,1.7594490051269531,-4.330986976623535,7.0299999999998946
0.9802273511886597,1.8021411895751953,-3.663060426712036,7.039999999999894
1.3875075578689575,1.7939777374267578,-2.8412210941314697,7.049999999999894
1.719247579574585,1.7878484725952148,-1.8504855632781982,7.059999999999894
1.9072188138961792,1.685307502746582,-0.9128373861312866,7.069999999999894
1.9604716300964355,1.5357465744018555,-0.15793204307556152,7.0799999999998935
1.8883880376815796,1.3521919250488281,0.4669613838195801,7.089999999999893
1.6686078310012817,1.1308250427246094,0.8727350234985352,7.099999999999893
1.3114418983459473,0.8033151626586914,1.0221495628356934,7.109999999999893
0.9648983478546143,0.42354488372802734,0.9678912162780762,7.119999999999893
0.6565681099891663,0.07194805145263672,0.7926449775695801,7.129999999999892
0.4399946928024292,-0.3955354690551758,0.4584691524505615,7.139999999999892
0.25386685132980347,-0.8282413482666016,0.043686866760253906,7.149999999999892
0.13012756407260895,-1.261918544769287,-0.4552614688873291,7.159999999999892
0.0029970407485961914,-1.6125540733337402,-1.006230354309082,7.169999999999892
-0.1091158539056778,-1.9874839782714844,-1.5196475982666016,7.179999999999891
-0.3044591546058655,-2.3958964347839355,-2.0325655937194824,7.189999999999891
-0.45375868678092957,-2.7536864280700684,-2.538893938064575,7.199999999999891
-0.7004809975624084,-3.1132192611694336,-2.986886978149414,7.209999999999891
-0.9748700261116028,-3.3977112770080566,-3.45383358001709,7.2199999999998905
-1.1478205919265747,-3.6929373741149902,-3.974154472351074,7.22999999999989
-1.386818766593933,-3.9576950073242188,-4.477289199829102,7.23999999999989
-1.6081042289733887,-4.122148036956787,-4.993146896362305,7.24999999999989
-1.7783737182617188,-4.2862772941589355,-5.439282417297363,7.25999999999989
-1.9526748657226562,-4.361093997955322,-5.8336334228515625,7.269999999999889
-2.0661933422088623,-4.343954563140869,-6.141140937805176,7.279999999999889
-1.9578903913497925,-4.194235324859619,-6.280735969543457,7.289999999999889
-1.695718765258789,-4.0366530418396,-6.149250507354736,7.299999999999889
-1.4366198778152466,-3.871682643890381,-5.800968170166016,7.309999999999889
-1.2089831829071045,-3.668705940246582,-5.32126522064209,7.319999999999888
-1.1662306785583496,-3.4593372344970703,-4.795403957366943,7.329999999999888
-1.141636848449707,-3.2919936180114746,-4.152923583984375,7.339999999999888
-1.1719582080841064,-3.219851493835449,-3.466866970062256,7.349999999999888
-1.2529470920562744,-3.202777862548828,-2.7384285926818848,7.3599999999998875
-1.382499098777771,-3.2771286964416504,-2.0908944606781006,7.369999999999887
-1.431349754333496,-3.4287381172180176,-1.5594449043273926,7.379999999999887
-1.514084815979004,-3.7461190223693848,-1.1221156120300293,7.389999999999887
-1.5727769136428833,-4.1311211585998535,-0.7498478889465332,7.399999999999887
-1.5806225538253784,-4.557394027709961,-0.39934778213500977,7.4099999999998865
-1.5442278385162354,-4.960318565368652,-0.08720016479492188,7.419999999999886
-1.5924158096313477,-5.3279924392700195,0.25861263275146484,7.429999999999886
-1.5500872135162354,-5.665287971496582,0.6503500938415527,7.439999999999886
-1.581952691078186,-5.93886137008667,1.0573863983154297,7.449999999999886
-1.6733026504516602,-6.141758918762207,1.554541826248169,7.459999999999885
-1.8765685558319092,-6.276665210723877,2.0565989017486572,7.469999999999885
-2.150810480117798,-6.403522968292236,2.5859415531158447,7.479999999999885
-2.4505724906921387,-6.45534610748291,3.0021989345550537,7.489999999999885
-2.751878499984741,-6.341220855712891,3.411426305770874,7.4999999999998845
-3.0616493225097656,-6.187660217285156,3.7134408950805664,7.509999999999884
-3.2872939109802246,-5.786139965057373,3.8103702068328857,7.519999999999884
-3.175974130630493,-5.157713413238525,3.833513021469116,7.529999999999884
-2.972071647644043,-4.411474704742432,3.5685296058654785,7.539999999999884
-2.5447099208831787,-3.292750358581543,3.1926162242889404,7.5499999999998835
-1.9160339832305908,-1.8961381912231445,2.7047061920166016,7.559999999999883
-1.27492094039917,-0.07468318939208984,2.284489870071411,7.569999999999883
-0.5169966220855713,2.5073232650756836,1.9733779430389404,7.579999999999883
0.4579969346523285,5.589734077453613,1.7058515548706055,7.589999999999883
1.3981131315231323,9.471931457519531,1.4662578105926514,7.599999999999882
2.2670533657073975,13.543783187866211,1.1730012893676758,7.609999999999882
3.0621795654296875,16.872806549072266,0.6406832933425903,7.619999999999882
3.7532901763916016,18.465221405029297,-0.011797904968261719,7.629999999999882
3.9475560188293457,18.726512908935547,0.375643253326416,7.6399999999998816
3.5894155502319336,17.235862731933594,2.09269380569458,7.649999999999881
2.6590182781219482,13.632525444030762,3.885831832885742,7.659999999999881
1.7185574769973755,9.218299865722656,4.9725236892700195,7.669999999999881
0.8129975199699402,5.55899715423584,5.446724891662598,7.679999999999881
0.19795525074005127,2.8079748153686523,5.514959335327148,7.6899999999998805
-0.3351312577724457,0.78875732421875,5.326457500457764,7.69999999999988
-0.8781009316444397,-0.5503129959106445,4.9260358810424805,7.70999999999988
-1.3153785467147827,-1.5045528411865234,4.285967826843262,7.71999999999988
-1.7642505168914795,-2.051032543182373,3.50346302986145,7.72999999999988
-2.19873309135437,-2.1767048835754395,2.614626169204712,7.739999999999879
-2.607654571533203,-1.9786524772644043,1.5341334342956543,7.749999999999879
-2.974839925765991,-1.4508724212646484,0.11672830581665039,7.759999999999879
-3.350938320159912,-0.6467695236206055,-1.6257915496826172,7.769999999999879
-3.626746654510498,-0.15505027770996094,-3.3232614994049072,7.779999999999879
-3.7360143661499023,-0.10163497924804688,-5.009163856506348,7.789999999999878
-4.132117748260498,-0.1521930694580078,-6.84487247467041,7.799999999999878
-4.817821502685547,-0.07999515533447266,-8.407919883728027,7.809999999999878
-5.767753601074219,0.2694091796875,-9.2046537399292,7.819999999999878
-6.66360330581665,0.8686313629150391,-9.076208114624023,7.8299999999998775
-7.119266510009766,1.6740798950195312,-7.997323989868164,7.839999999999877
-5.946541786193848,2.6506471633911133,-5.9316606521606445,7.849999999999877
-3.7409911155700684,3.0222883224487305,-3.776529312133789,7.859999999999877
-0.9466760158538818,2.484452247619629,-2.3279824256896973,7.869999999999877
1.6843491792678833,1.6015329360961914,-1.6511578559875488,7.879999999999876
3.779587507247925,0.7083740234375,-1.5467281341552734,7.889999999999876
4.9162702560424805,-0.20679950714111328,-2.0052762031555176,7.899999999999876
5.582734107971191,-1.1173267364501953,-2.801114320755005,7.909999999999876
5.97701358795166,-1.946387767791748,-3.79970645904541,7.919999999999876
5.954305171966553,-2.572000503540039,-4.6910929679870605,7.929999999999875
5.575164318084717,-2.984900951385498,-5.403423309326172,7.939999999999875
5.016716480255127,-3.242873191833496,-5.8881306648254395,7.949999999999875
4.321288108825684,-3.4634575843811035,-6.0795464515686035,7.959999999999875
3.52559757232666,-3.524986743927002,-5.914273262023926,7.9699999999998745
2.6222193241119385,-3.3681015968322754,-5.473016738891602,7.979999999999874
1.569651484489441,-3.0219597816467285,-4.755765438079834,7.989999999999874
