AccX,AccY,AccZ,SampleRate
1.5132665634155273,0.2354450225830078,1.1746087074279785,0
1.64097261428833,0.16587543487548828,1.4559156894683838,0.01
1.7568612098693848,0.39720821380615234,1.626150369644165,0.02
2.103001117706299,0.6781063079833984,1.5184080600738525,0.03
2.2224762439727783,0.86029052734375,1.4395517110824585,0.04
2.6629958152770996,1.060978889465332,1.0808807611465454,0.05
3.009965419769287,1.476165771484375,1.0246832370758057,0.060000000000000005
3.362915515899658,1.9691247940063477,0.9271523952484131,0.07
3.6583681106567383,2.3385801315307617,0.561092734336853,0.08
3.866422653198242,2.4791336059570312,0.1753072738647461,0.09
4.031833648681641,2.4434633255004883,-0.10108208656311035,0.09999999999999999
4.348519802093506,2.102677345275879,-0.14634060859680176,0.10999999999999999
4.52781343460083,1.581686019897461,0.13986897468566895,0.11999999999999998
4.854926109313965,1.4473628997802734,-0.10315877199172974,0.12999999999999998
5.036046981811523,1.3716793060302734,-0.23253190517425537,0.13999999999999999
5.208021640777588,1.543574333190918,-0.21250313520431519,0.15
5.356768608093262,1.9341611862182617,-0.129084050655365,0.16
5.20714807510376,2.6364192962646484,-0.020706534385681152,0.17
4.89536190032959,3.4705142974853516,-0.10595178604125977,0.18000000000000002
4.639281272888184,4.225831031799316,-0.43191683292388916,0.19000000000000003
4.194887161254883,4.754206657409668,-0.7849981188774109,0.20000000000000004
3.8208518028259277,4.984376907348633,-0.8259211778640747,0.21000000000000005
3.517399311065674,4.99117374420166,-0.46515971422195435,0.22000000000000006
3.2180356979370117,4.856565475463867,0.22245530784130096,0.23000000000000007
2.9421045780181885,4.736433982849121,1.0761022567749023,0.24000000000000007
1.3741254806518555,4.5850019454956055,2.0302176475524902,0.25000000000000006
-0.8525710105895996,4.411250114440918,2.795046806335449,0.26000000000000006
-2.516957998275757,4.078826904296875,3.2797582149505615,0.2700000000000001
-3.396108627319336,3.6315040588378906,3.42334246635437,0.2800000000000001
-4.0390238761901855,3.2112808227539062,3.3180623054504395,0.2900000000000001
-4.484719276428223,3.0270423889160156,3.0576202869415283,0.3000000000000001
-4.882370471954346,3.0052528381347656,2.800342559814453,0.3100000000000001
-5.170711994171143,3.0508127212524414,2.5583574771881104,0.3200000000000001
-5.2975921630859375,3.200070381164551,2.3712615966796875,0.3300000000000001
-5.320483684539795,3.2954177856445312,2.1351640224456787,0.34000000000000014
-5.193816184997559,3.246114730834961,1.8391194343566895,0.35000000000000014
-4.908435821533203,3.0616884231567383,1.4476741552352905,0.36000000000000015
-4.6088972091674805,2.761033058166504,0.9940091371536255,0.37000000000000016
-4.210777759552002,2.4609508514404297,0.45795702934265137,0.38000000000000017
-3.8653934001922607,2.1369056701660156,-0.1376786231994629,0.3900000000000002
-3.5979130268096924,1.785822868347168,-0.6551335453987122,0.4000000000000002
-3.483917236328125,1.4621524810791016,-1.2613526582717896,0.4100000000000002
-3.321465015411377,1.218052864074707,-1.8033305406570435,0.4200000000000002
-3.336906909942627,1.0316143035888672,-2.3437438011169434,0.4300000000000002
-3.3715522289276123,0.9432239532470703,-2.773183822631836,0.4400000000000002
-3.40543532371521,0.9050722122192383,-3.1628730297088623,0.45000000000000023
-3.147056818008423,0.8026800155639648,-3.5748300552368164,0.46000000000000024
-2.379988670349121,0.7036705017089844,-3.9281744956970215,0.47000000000000025
-1.3110111951828003,0.666132926940918,-4.034769535064697,0.48000000000000026
-0.4515480697154999,0.5541830062866211,-3.770047187805176,0.49000000000000027
0.23898150026798248,0.4876985549926758,-3.1517581939697266,0.5000000000000002
0.7238587141036987,0.5073318481445312,-2.2350127696990967,0.5100000000000002
1.1000491380691528,0.5579214096069336,-1.2225446701049805,0.5200000000000002
1.3551225662231445,0.42156410217285156,-0.26832056045532227,0.5300000000000002
1.6190755367279053,0.5669355392456055,0.35138893127441406,0.5400000000000003
1.7204926013946533,0.6728477478027344,0.8417403697967529,0.5500000000000003
1.6648322343826294,0.8153152465820312,1.1997599601745605,0.5600000000000003
1.4810562133789062,0.9507522583007812,1.3671202659606934,0.5700000000000003
1.3360066413879395,0.9880084991455078,1.3016750812530518,0.5800000000000003
1.0712823867797852,0.9029684066772461,1.0618009567260742,0.5900000000000003
0.8181755542755127,0.7552242279052734,0.7153024673461914,0.6000000000000003
0.5285319685935974,0.5040149688720703,0.2720823287963867,0.6100000000000003
0.1158444881439209,0.04885673522949219,-0.11443924903869629,0.6200000000000003
-0.1150968074798584,-0.13912105560302734,-0.523350715637207,0.6300000000000003
-0.1771939992904663,-0.3809823989868164,-0.8756701946258545,0.6400000000000003
-0.1980069875717163,-0.6673221588134766,-1.2267603874206543,0.6500000000000004
-0.1875838041305542,-0.964756965637207,-1.5557239055633545,0.6600000000000004
-0.2760559320449829,-1.2397894859313965,-1.8873720169067383,0.6700000000000004
-0.5566092133522034,-1.8700079917907715,-2.198735237121582,0.6800000000000004
-0.6597448587417603,-1.9556832313537598,-2.641662836074829,0.6900000000000004
-0.956025242805481,-2.193380832672119,-3.048794746398926,0.7000000000000004
-1.3575515747070312,-2.4633069038391113,-3.477626323699951,0.7100000000000004
-1.9375364780426025,-2.875166893005371,-3.8685567378997803,0.7200000000000004
-2.2806475162506104,-3.1439261436462402,-4.387128829956055,0.7300000000000004
-2.85750150680542,-3.479818820953369,-4.928329944610596,0.7400000000000004
-3.4712307453155518,-3.817546844482422,-5.473901271820068,0.7500000000000004
-4.068602085113525,-4.06078577041626,-5.926743030548096,0.7600000000000005
-4.564924240112305,-4.242683410644531,-6.191847324371338,0.7700000000000005
-4.915590286254883,-4.45387601852417,-6.226794242858887,0.7800000000000005
-5.187819004058838,-4.584401607513428,-6.043565273284912,0.7900000000000005
-5.187285423278809,-4.539120674133301,-5.58670711517334,0.8000000000000005
-4.598476886749268,-4.333302974700928,-4.99928617477417,0.8100000000000005
-3.9740397930145264,-4.12345027923584,-4.347439289093018,0.8200000000000005
-3.374516010284424,-3.934462070465088,-3.5484671592712402,0.8300000000000005
-2.9427709579467773,-3.7697596549987793,-2.6412858963012695,0.8400000000000005
-2.4752464294433594,-3.592287540435791,-1.6332223415374756,0.8500000000000005
-2.022822380065918,-3.4557900428771973,-0.6272695064544678,0.8600000000000005
-1.5913102626800537,-3.3993072509765625,0.14415884017944336,0.8700000000000006
-1.3229775428771973,-3.480506420135498,0.6944112777709961,0.8800000000000006
-1.1423680782318115,-3.6322617530822754,1.045720100402832,0.8900000000000006
-1.083566665649414,-3.827831268310547,1.131056785583496,0.9000000000000006
-0.9763669967651367,-4.016399383544922,1.0574231147766113,0.9100000000000006
-0.8460118174552917,-4.273778438568115,0.7829079627990723,0.9200000000000006
-0.7270331382751465,-4.568036079406738,0.4663572311401367,0.9300000000000006
-0.6969662308692932,-4.841035842895508,0.21392345428466797,0.9400000000000006
-0.7736364006996155,-5.073159217834473,0.12250971794128418,0.9500000000000006
-0.8796394467353821,-5.240246772766113,0.2464609146118164,0.9600000000000006
-1.0334750413894653,-5.423584461212158,0.5497739315032959,0.9700000000000006
-1.222672462463379,-5.584858417510986,0.9608738422393799,0.9800000000000006
-1.3160130977630615,-5.6738481521606445,1.451669454574585,0.9900000000000007
-1.4575728178024292,-5.879294395446777,1.9482884407043457,1.0000000000000007
-1.5022614002227783,-6.023630142211914,2.2736756801605225,1.0100000000000007
-1.5589159727096558,-6.0729289054870605,2.468489646911621,1.0200000000000007
-1.5007240772247314,-6.079348564147949,2.4365835189819336,1.0300000000000007
-1.3019256591796875,-5.75071382522583,2.340374231338501,1.0400000000000007
-0.9061607122421265,-5.1083526611328125,2.071551561355591,1.0500000000000007
-0.20986460149288177,-3.939114570617676,1.6839935779571533,1.0600000000000007
0.6404497027397156,-2.524869441986084,1.2063205242156982,1.0700000000000007
1.4187067747116089,-0.542149543762207,0.6904008388519287,1.0800000000000007
1.9545706510543823,1.973341941833496,0.23552942276000977,1.0900000000000007
2.2263705730438232,4.935427665710449,-0.015909910202026367,1.1000000000000008
2.5923502445220947,8.274471282958984,-0.07949590682983398,1.1100000000000008
2.707261323928833,12.164338111877441,0.15235137939453125,1.1200000000000008
2.9062752723693848,15.757457733154297,0.7879800796508789,1.1300000000000008
3.4694862365722656,18.15438461303711,2.0311214923858643,1.1400000000000008
4.2695631980896,19.167259216308594,3.3942453861236572,1.1500000000000008
4.748758316040039,18.976730346679688,5.0226335525512695,1.1600000000000008
5.380675792694092,16.97638511657715,6.584413051605225,1.1700000000000008
4.480266094207764,13.718103408813477,7.447994232177734,1.1800000000000008
3.361424446105957,11.025382041931152,7.162871360778809,1.1900000000000008
2.4758198261260986,9.268059730529785,5.675467014312744,1.2000000000000008
1.5667927265167236,8.179269790649414,3.879711627960205,1.2100000000000009
0.5209367275238037,7.087873458862305,2.5699820518493652,1.2200000000000009
-0.2555265426635742,5.925543785095215,1.8651790618896484,1.2300000000000009
-1.0338281393051147,5.1307878494262695,1.5882165431976318,1.2400000000000009
-2.1801748275756836,4.340826034545898,1.3990042209625244,1.2500000000000009
-3.8217883110046387,3.4210195541381836,1.1839485168457031,1.260000000000001
-5.685938358306885,1.9794368743896484,0.7483768463134766,1.270000000000001
-7.400964736938477,0.15391254425048828,-0.17449867725372314,1.280000000000001
-8.6448974609375,-1.8958373069763184,-1.3106930255889893,1.290000000000001
-9.482553482055664,-4.077049732208252,-2.5438218116760254,1.300000000000001
-9.938726425170898,-5.9624762535095215,-3.4712932109832764,1.310000000000001
-10.14704704284668,-7.501530647277832,-3.657428741455078,1.320000000000001
-10.114097595214844,-8.577472686767578,-3.467414379119873,1.330000000000001
-9.943015098571777,-9.181941032409668,-3.1697678565979004,1.340000000000001
-9.609996795654297,-9.2971773147583,-3.074964761734009,1.350000000000001
-8.763861656188965,-9.170646667480469,-3.4723000526428223,1.360000000000001
-6.776885986328125,-8.783575057983398,-4.532742977142334,1.370000000000001
-4.324250221252441,-7.96604585647583,-5.965263366699219,1.380000000000001
-2.040952682495117,-6.842367649078369,-7.266834259033203,1.390000000000001
-0.30319327116012573,-5.379061698913574,-8.247771263122559,1.400000000000001
0.615067720413208,-4.15008020401001,-9.089210510253906,1.410000000000001
0.9199906587600708,-3.0926570892333984,-9.81909465789795,1.420000000000001
0.8879263997077942,-1.9100685119628906,-9.993130683898926,1.430000000000001
0.7338474988937378,-0.6721220016479492,-9.704453468322754,1.440000000000001
0.5524141788482666,0.5965776443481445,-9.00186538696289,1.450000000000001
0.3298865556716919,1.8137226104736328,-7.775185585021973,1.460000000000001
0.11874794960021973,2.7749404907226562,-5.916640281677246,1.470000000000001
0.2467283010482788,3.6204967498779297,-3.211740493774414,1.480000000000001
1.1179101467132568,4.533208847045898,1.371127724647522,1.490000000000001
2.7758989334106445,5.3583784103393555,6.992143630981445,1.500000000000001
4.359776496887207,5.562129974365234,10.873233795166016,1.5100000000000011
5.073431015014648,4.9717302322387695,10.840813636779785,1.5200000000000011
5.281923294067383,3.4853334426879883,7.934264183044434,1.5300000000000011
5.069346904754639,1.7640228271484375,4.2387003898620605,1.5400000000000011
4.678553581237793,0.4266777038574219,0.8884354829788208,1.5500000000000012
4.339143753051758,-0.35648155212402344,-1.8689817190170288,1.5600000000000012
3.675954580307007,-0.7437200546264648,-3.966289520263672,1.5700000000000012
2.438584327697754,-0.7885208129882812,-5.161571979522705,1.5800000000000012
1.2019670009613037,-0.7429866790771484,-5.518407821655273,1.5900000000000012
0.39625000953674316,-0.7463712692260742,-5.3588385581970215,1.6000000000000012
0.034210026264190674,-0.8634738922119141,-4.713362216949463,1.6100000000000012
-0.39726734161376953,-0.9677228927612305,-3.457502603530884,1.6200000000000012
-1.0022703409194946,-1.0618886947631836,-1.8171923160552979,1.6300000000000012
-1.4591363668441772,-1.2419118881225586,-0.3941628932952881,1.6400000000000012
-1.5658812522888184,-1.2327337265014648,0.07329660654067993,1.6500000000000012
-1.4875229597091675,-1.065566062927246,-0.058137446641922,1.6600000000000013
-1.4712855815887451,-0.8241615295410156,-0.49157005548477173,1.6700000000000013
-1.4272046089172363,-0.7237253189086914,-1.0023305416107178,1.6800000000000013
-1.277188777923584,-0.666015625,-1.3793898820877075,1.6900000000000013
-0.9645169377326965,-0.670130729675293,-1.396315097808838,1.7000000000000013
-0.6306359767913818,-0.8507871627807617,-1.0917320251464844,1.7100000000000013
-0.21348977088928223,-1.076279640197754,-0.6688687801361084,1.7200000000000013
0.15059924125671387,-1.509150505065918,-0.17756745219230652,1.7300000000000013
0.336855411529541,-1.8694438934326172,0.31596803665161133,1.7400000000000013
0.28254032135009766,-2.0832033157348633,0.7310163378715515,1.7500000000000013
0.1928277611732483,-2.265444278717041,0.8428362011909485,1.7600000000000013
0.13408809900283813,-2.2560510635375977,0.6779077053070068,1.7700000000000014
0.11772215366363525,-1.9740138053894043,0.3106173276901245,1.7800000000000014
0.19604647159576416,-1.5296859741210938,-0.12724095582962036,1.7900000000000014
0.4289906620979309,-1.0404043197631836,-0.5924715995788574,1.8000000000000014
0.5387426018714905,-0.5899343490600586,-0.9583278298377991,1.8100000000000014
0.3384672999382019,-0.17349815368652344,-1.1910536289215088,1.8200000000000014
0.6998825073242188,0.017785072326660156,-1.1943459510803223,1.8300000000000014
0.749931812286377,0.10143375396728516,-0.9774079918861389,1.8400000000000014
0.7161774635314941,0.2784719467163086,-0.6433048248291016,1.8500000000000014
0.5939051508903503,0.31447315216064453,-0.3074038028717041,1.8600000000000014
0.45957493782043457,0.31481456756591797,0.0438510924577713,1.8700000000000014
0.4905073046684265,0.25087738037109375,0.3591815233230591,1.8800000000000014
0.536527693271637,0.07258796691894531,0.5730836391448975,1.8900000000000015
0.37083327770233154,-0.17447376251220703,0.8282654285430908,1.9000000000000015
0.32377707958221436,-0.42568206787109375,0.9807589054107666,1.9100000000000015
0.3285583257675171,-0.5327472686767578,1.1791751384735107,1.9200000000000015
0.45747900009155273,-0.7492456436157227,1.133876919746399,1.9300000000000015
0.5364333987236023,-0.8645591735839844,1.0482510328292847,1.9400000000000015
0.5393123030662537,-0.9600620269775391,0.9108738899230957,1.9500000000000015
0.5882059931755066,-0.9280996322631836,0.854341447353363,1.9600000000000015
0.6397861242294312,-0.7950544357299805,0.8918631076812744,1.9700000000000015
0.682123064994812,-0.907649040222168,0.8999428153038025,1.9800000000000015
0.8879250288009644,-0.8924293518066406,0.8140259385108948,1.9900000000000015
1.0944836139678955,-0.8570728302001953,0.8686068058013916,2.0000000000000013
1.2826766967773438,-0.9091320037841797,1.0204730033874512,2.010000000000001
1.4427940845489502,-0.8930702209472656,1.2642545700073242,2.020000000000001
1.5910557508468628,-0.6130170822143555,1.5247552394866943,2.0300000000000007
1.7699958086013794,-0.4497194290161133,1.668542504310608,2.0400000000000005
1.8205654621124268,-0.16910457611083984,1.8253445625305176,2.0500000000000003
1.8035231828689575,0.065582275390625,1.9337509870529175,2.06
1.8707275390625,0.18699169158935547,1.9279675483703613,2.07
1.7910618782043457,0.3741445541381836,1.9486795663833618,2.0799999999999996
1.7646492719650269,0.660161018371582,1.9099135398864746,2.0899999999999994
1.8292843103408813,0.7579669952392578,2.0666799545288086,2.099999999999999
1.8608167171478271,1.062394142150879,2.1133294105529785,2.109999999999999
2.3001742362976074,1.1453666687011719,1.9404000043869019,2.1199999999999988
2.585357427597046,1.3898696899414062,1.6109681129455566,2.1299999999999986
2.8741629123687744,1.6163415908813477,1.2309000492095947,2.1399999999999983
3.1654469966888428,2.073287010192871,0.9469616413116455,2.149999999999998
3.3859643936157227,2.5018510818481445,0.6351819634437561,2.159999999999998
3.541684150695801,2.7797317504882812,0.094169020652771,2.1699999999999977
3.5671305656433105,2.9449710845947266,-0.6773610711097717,2.1799999999999975
3.3324270248413086,3.1312122344970703,-1.6548576354980469,2.1899999999999973
3.0114500522613525,3.486386299133301,-2.4974722862243652,2.199999999999997
2.6844122409820557,3.986238479614258,-3.0690360069274902,2.209999999999997
2.5948193073272705,4.267430305480957,-3.078486680984497,2.2199999999999966
2.761936902999878,4.371561050415039,-2.486510753631592,2.2299999999999964
3.1625373363494873,4.392989158630371,-1.2881336212158203,2.239999999999996
3.7527084350585938,4.636415481567383,0.32028135657310486,2.249999999999996
4.420099258422852,5.116670608520508,1.7040575742721558,2.259999999999996
4.924090385437012,5.893704414367676,2.604551076889038,2.2699999999999956
5.0246429443359375,6.816596031188965,2.729787588119507,2.2799999999999954
4.141618728637695,7.559720993041992,2.2550859451293945,2.289999999999995
1.6945050954818726,7.587008476257324,1.9191162586212158,2.299999999999995
-0.9238559007644653,6.932290077209473,1.9889839887619019,2.3099999999999947
-2.7042016983032227,5.811713218688965,2.129058361053467,2.3199999999999945
-3.459885358810425,4.544349670410156,2.207374095916748,2.3299999999999943
-3.9414122104644775,3.377155303955078,2.4655215740203857,2.339999999999994
-4.230551719665527,2.408463478088379,2.983795404434204,2.349999999999994
-4.11892557144165,1.855961799621582,3.4388203620910645,2.3599999999999937
-3.7541966438293457,1.7002992630004883,3.6158106327056885,2.3699999999999934
-3.178380250930786,1.6806392669677734,3.5121095180511475,2.3799999999999932
-2.6157572269439697,1.7133359909057617,3.1062729358673096,2.389999999999993
-2.1496613025665283,1.6884870529174805,2.566098690032959,2.399999999999993
-1.7415248155593872,1.5631866455078125,2.0510261058807373,2.4099999999999926
-1.2969305515289307,1.323197364807129,1.5321917533874512,2.4199999999999924
-0.9092212319374084,0.9517898559570312,1.0506945848464966,2.429999999999992
-0.5610352158546448,0.5946588516235352,0.5639511346817017,2.439999999999992
-0.19906744360923767,0.20593547821044922,-0.04099142551422119,2.4499999999999917
0.06416627764701843,-0.1358814239501953,-0.7513384222984314,2.4599999999999915
0.26817843317985535,-0.46472740173339844,-1.4308429956436157,2.4699999999999913
0.3003499209880829,-0.7402544021606445,-2.104423999786377,2.479999999999991
0.29043707251548767,-1.0893840789794922,-2.7068185806274414,2.489999999999991
0.12796629965305328,-1.344630241394043,-3.2855753898620605,2.4999999999999907
-0.16218002140522003,-1.5943794250488281,-3.7143332958221436,2.5099999999999905
-0.5046667456626892,-1.7354679107666016,-4.07043981552124,2.5199999999999902
-0.787895143032074,-1.7459726333618164,-4.386198997497559,2.52999999999999
-1.12721586227417,-1.666029930114746,-4.591058731079102,2.53999999999999
-1.237519383430481,-1.344381332397461,-4.618613243103027,2.5499999999999896
-1.241581916809082,-0.9623861312866211,-4.415465831756592,2.5599999999999894
-0.9878793954849243,-0.5172824859619141,-3.99092698097229,2.569999999999989
-0.6941876411437988,-0.09735298156738281,-3.4728331565856934,2.579999999999989
-0.2645420730113983,0.6658716201782227,-2.92195463180542,2.5899999999999888
0.10715627670288086,1.499405860900879,-2.2288620471954346,2.5999999999999885
0.4956015944480896,2.390536308288574,-1.1865061521530151,2.6099999999999883
0.6121147274971008,3.3999767303466797,0.25795555114746094,2.619999999999988
0.30603206157684326,4.295893669128418,2.187268018722534,2.629999999999988
-0.3168903589248657,4.516766548156738,3.80529522895813,2.6399999999999877
-0.9613884687423706,4.159873008728027,4.520133018493652,2.6499999999999875
-1.552483320236206,3.029332160949707,4.050641059875488,2.6599999999999873
-2.0705173015594482,1.482579231262207,3.0157196521759033,2.669999999999987
-2.4541683197021484,0.20673751831054688,1.820662498474121,2.679999999999987
-2.900089740753174,-0.8864603042602539,0.6358051300048828,2.6899999999999866
-3.5241589546203613,-1.7128257751464844,-0.5793993473052979,2.6999999999999864
-3.9956424236297607,-2.4369635581970215,-1.6835734844207764,2.709999999999986
-4.29142951965332,-3.065548896789551,-2.587864398956299,2.719999999999986
-4.483962535858154,-3.6507763862609863,-3.219965696334839,2.7299999999999858
-4.626837730407715,-4.247217655181885,-3.725071907043457,2.7399999999999856
-4.7666335105896,-4.79699182510376,-4.1262407302856445,2.7499999999999853
-4.413324356079102,-5.290016174316406,-4.590439796447754,2.759999999999985
-3.794334888458252,-5.587115287780762,-4.923515319824219,2.769999999999985
-3.2528834342956543,-5.633324146270752,-4.956757545471191,2.7799999999999847
-2.8607325553894043,-5.467453956604004,-4.606266021728516,2.7899999999999845
-2.5034685134887695,-5.090306282043457,-4.105423450469971,2.7999999999999843
-2.184149742126465,-4.643856048583984,-3.5412142276763916,2.809999999999984
-1.9103528261184692,-4.105191230773926,-2.8158633708953857,2.819999999999984
-1.6100718975067139,-3.5636653900146484,-2.2053513526916504,2.8299999999999836
-1.4339417219161987,-2.974424362182617,-1.8160231113433838,2.8399999999999834
-1.333885908126831,-2.395260810852051,-1.5753395557403564,2.849999999999983
-1.108672857284546,-1.8981618881225586,-1.4230420589447021,2.859999999999983
-1.0071146488189697,-1.4593744277954102,-1.2558341026306152,2.869999999999983
-0.9189071655273438,-1.2321786880493164,-1.0660746097564697,2.8799999999999826
-0.8819968700408936,-1.1496362686157227,-0.9466648101806641,2.8899999999999824
-0.9198816418647766,-1.3097848892211914,-0.8471238613128662,2.899999999999982
-0.8649669885635376,-1.600031852722168,-0.7529852390289307,2.909999999999982
-0.7675496339797974,-1.936577320098877,-0.6976339817047119,2.9199999999999817
-0.7281065583229065,-2.3503408432006836,-0.6214358806610107,2.9299999999999815
-0.5373915433883667,-3.113682270050049,-0.6063005924224854,2.9399999999999813
-0.3883289098739624,-3.7599406242370605,-0.45137763023376465,2.949999999999981
-0.1679530143737793,-4.320495128631592,-0.14689922332763672,2.959999999999981
-0.07747900485992432,-4.74516487121582,0.1397714614868164,2.9699999999999807
-0.036452651023864746,-4.842524528503418,0.3823239803314209,2.9799999999999804
-0.15734660625457764,-4.985404968261719,0.5607292652130127,2.9899999999999802
-0.22385865449905396,-5.400177001953125,0.704505443572998,2.99999999999998
-0.295637309551239,-5.665102005004883,0.9585011005401611,3.00999999999998
-0.28179895877838135,-5.873295783996582,1.298243761062622,3.0199999999999796
-0.17554491758346558,-6.000767707824707,1.702233076095581,3.0299999999999794
-0.01854950189590454,-5.91615104675293,2.171229600906372,3.039999999999979
0.17588883638381958,-5.751336574554443,2.6345934867858887,3.049999999999979
0.45165085792541504,-5.336723804473877,2.926086664199829,3.0599999999999787
0.8837044835090637,-4.540956974029541,3.051185369491577,3.0699999999999785
1.3489155769348145,-3.42386531829834,3.0311646461486816,3.0799999999999783
1.9564166069030762,-2.0688657760620117,2.9269816875457764,3.089999999999978
2.372694492340088,-0.6113376617431641,2.8310370445251465,3.099999999999978
2.8199715614318848,1.3283920288085938,2.5166666507720947,3.1099999999999777
3.1290128231048584,3.1611108779907227,2.316286563873291,3.1199999999999775
3.220165967941284,4.978846549987793,2.3684804439544678,3.1299999999999772
3.269547700881958,6.843539237976074,2.741763114929199,3.139999999999977
3.322927951812744,8.196736335754395,3.300339698791504,3.149999999999977
3.322385787963867,9.001398086547852,4.269623279571533,3.1599999999999766
3.268526315689087,9.28737735748291,5.385369300842285,3.1699999999999764
2.849172830581665,9.331178665161133,6.014289855957031,3.179999999999976
2.1045327186584473,9.80172348022461,5.72984504699707,3.189999999999976
1.5911893844604492,10.344622611999512,4.322545051574707,3.1999999999999758
1.596551537513733,10.630858421325684,2.5881145000457764,3.2099999999999755
1.5929980278015137,12.183037757873535,1.8234870433807373,3.2199999999999753
1.5824791193008423,14.555804252624512,1.8261165618896484,3.229999999999975
0.9088885188102722,17.33919906616211,2.533844470977783,3.239999999999975
-0.94887775182724,19.241252899169922,3.944427490234375,3.2499999999999747
-5.01004695892334,18.04021453857422,5.128238201141357,3.2599999999999745
-9.936312675476074,12.990033149719238,5.754444122314453,3.2699999999999743
-12.987635612487793,6.4712324142456055,4.202578544616699,3.279999999999974
-12.851417541503906,1.2709054946899414,-0.26899170875549316,3.289999999999974
-11.44665813446045,-2.4728307723999023,-4.296026229858398,3.2999999999999736
-9.768579483032227,-5.19788932800293,-7.027522087097168,3.3099999999999734
-8.379120826721191,-7.027688026428223,-9.244547843933105,3.319999999999973
-7.160378456115723,-8.08031940460205,-11.016986846923828,3.329999999999973
-5.416634559631348,-8.715415000915527,-12.245723724365234,3.3399999999999728
-2.9470081329345703,-9.350326538085938,-12.674825668334961,3.3499999999999726
-0.9896657466888428,-9.850573539733887,-12.191520690917969,3.3599999999999723
0.5449280142784119,-10.199798583984375,-10.964427947998047,3.369999999999972
1.7361844778060913,-10.245683670043945,-9.465780258178711,3.379999999999972
2.780916929244995,-10.101509094238281,-8.013094902038574,3.3899999999999717
3.352823257446289,-9.519355773925781,-6.8288140296936035,3.3999999999999715
3.344862222671509,-8.808680534362793,-5.9312238693237305,3.4099999999999713
3.0304408073425293,-8.099117279052734,-5.293083667755127,3.419999999999971
2.593921422958374,-7.0992279052734375,-4.820622444152832,3.429999999999971
2.1733760833740234,-5.725924491882324,-4.432852745056152,3.4399999999999706
1.6624817848205566,-3.750479221343994,-3.9674463272094727,3.4499999999999704
1.144288182258606,-1.2984256744384766,-3.264604091644287,3.45999999999997
0.6736443638801575,1.3731164932250977,-2.1204755306243896,3.46999999999997
0.35220232605934143,3.8468494415283203,-0.4154568314552307,3.47999999999997
-0.049102962017059326,5.967949867248535,3.3837194442749023,3.4899999999999696
-0.7044086456298828,7.803808212280273,7.953591346740723,3.4999999999999694
-1.6464219093322754,8.500711441040039,8.753096580505371,3.509999999999969
-1.6016459465026855,7.249041557312012,6.1700921058654785,3.519999999999969
-0.49838370084762573,4.49149227142334,2.686415672302246,3.5299999999999687
0.31279975175857544,1.6545829772949219,0.04947257041931152,3.5399999999999685
0.4595787227153778,-0.4047985076904297,-1.7406718730926514,3.5499999999999683
0.354373574256897,-1.7879419326782227,-3.1699163913726807,3.559999999999968
0.2951468825340271,-2.620171070098877,-4.378344535827637,3.569999999999968
0.5015190839767456,-3.108086585998535,-4.993236064910889,3.5799999999999677
0.6429890394210815,-3.171126365661621,-5.092440605163574,3.5899999999999674
0.46289634704589844,-2.8484725952148438,-4.604127407073975,3.5999999999999672
0.12471133470535278,-2.384957790374756,-3.838780403137207,3.609999999999967
-0.4694986343383789,-1.9796361923217773,-2.8965957164764404,3.619999999999967
-0.8984106779098511,-1.7473602294921875,-2.3320629596710205,3.6299999999999666
-0.8671637773513794,-1.5179996490478516,-2.1275696754455566,3.6399999999999664
-0.7751007676124573,-1.3367490768432617,-2.099621295928955,3.649999999999966
-0.751677393913269,-1.0861740112304688,-2.049046516418457,3.659999999999966
-0.7783896923065186,-0.8618669509887695,-1.812785267829895,3.6699999999999657
-0.7866045832633972,-0.6206722259521484,-1.388037919998169,3.6799999999999655
-0.750486433506012,-0.4318971633911133,-0.7525197267532349,3.6899999999999653
-0.5431680679321289,-0.21409225463867188,-0.13274282217025757,3.699999999999965
-0.22682690620422363,-0.09396171569824219,0.48144230246543884,3.709999999999965
0.11745405197143555,-0.08330249786376953,0.8108051419258118,3.7199999999999647
0.42043787240982056,-0.07200813293457031,1.0554282665252686,3.7299999999999645
0.593531608581543,-0.1151580810546875,1.1771411895751953,3.7399999999999642
0.6175124645233154,-0.12430763244628906,1.22757089138031,3.749999999999964
0.6189662218093872,-0.1258831024169922,1.1178854703903198,3.759999999999964
0.4993528723716736,-0.08649635314941406,0.828708827495575,3.7699999999999636
0.48796790838241577,0.08462333679199219,0.36410558223724365,3.7799999999999634
0.5484840869903564,0.24143695831298828,-0.10514131933450699,3.789999999999963
0.6183177828788757,0.4461193084716797,-0.5573778748512268,3.799999999999963
0.7881886959075928,0.4905881881713867,-0.8994378447532654,3.8099999999999627
0.8808073997497559,0.3248329162597656,-1.0309287309646606,3.8199999999999625
0.960526168346405,0.056697845458984375,-0.8660171627998352,3.8299999999999623
0.9123792052268982,-0.15351486206054688,-0.5923537611961365,3.839999999999962
0.9925446510314941,-0.3058786392211914,-0.3140050768852234,3.849999999999962
1.0984227657318115,-0.48651123046875,0.17664018273353577,3.8599999999999617
1.2381303310394287,-0.8124246597290039,0.6589158177375793,3.8699999999999615
1.3841619491577148,-1.063309669494629,0.9265046119689941,3.8799999999999613
1.4174823760986328,-1.3013763427734375,1.017496109008789,3.889999999999961
1.259230613708496,-1.282780647277832,1.0250520706176758,3.899999999999961
1.1895486116409302,-1.321075439453125,0.8486024141311646,3.9099999999999606
1.0620527267456055,-1.191488265991211,0.7204079031944275,3.9199999999999604
0.9912043213844299,-1.1405420303344727,0.7007459402084351,3.92999999999996
0.9459089040756226,-0.9529237747192383,0.5814967155456543,3.93999999999996
1.184816598892212,-0.7673788070678711,0.45880231261253357,3.9499999999999598
1.301081895828247,-0.5622978210449219,0.548737108707428,3.9599999999999596
1.4381110668182373,-0.19420909881591797,0.7009804248809814,3.9699999999999593
1.6337807178497314,0.19797992706298828,0.9372074007987976,3.979999999999959
1.8275063037872314,0.6260414123535156,1.1589018106460571,3.989999999999959
1.7957305908203125,0.8911657333374023,1.4227148294448853,3.9999999999999587
1.8561245203018188,0.9502429962158203,1.6363732814788818,4.009999999999959
1.955675482749939,0.9252128601074219,1.7934930324554443,4.019999999999959
1.874025821685791,0.7657146453857422,2.0459277629852295,4.0299999999999585
1.764171838760376,0.524357795715332,2.4791665077209473,4.039999999999958
1.6546242237091064,0.3111600875854492,2.887594699859619,4.049999999999958
1.5262293815612793,0.22171306610107422,3.2787435054779053,4.059999999999958
1.7765202522277832,0.012051582336425781,3.372697114944458,4.069999999999958
2.0131778717041016,0.04592132568359375,3.675252914428711,4.079999999999957
2.3893754482269287,0.4879875183105469,3.3154547214508057,4.089999999999957
3.020054340362549,0.6563682556152344,2.7963929176330566,4.099999999999957
3.3012473583221436,1.1609268188476562,2.1116180419921875,4.109999999999957
3.8418006896972656,1.364933967590332,1.4531265497207642,4.119999999999957
4.053875923156738,1.7371206283569336,1.0350816249847412,4.129999999999956
4.326298713684082,2.0068283081054688,0.8677552938461304,4.139999999999956
4.5723876953125,1.9445104598999023,0.7549946308135986,4.149999999999956
4.737209320068359,1.7537565231323242,0.6098350882530212,4.159999999999956
4.933728218078613,1.4538726806640625,0.3328756093978882,4.1699999999999555
4.913335800170898,1.255380630493164,-0.11759716272354126,4.179999999999955
4.92771053314209,1.2562847137451172,-0.39059120416641235,4.189999999999955
4.804811477661133,1.5377588272094727,-0.6227748394012451,4.199999999999955
4.630456924438477,1.9990224838256836,-0.9315783977508545,4.209999999999955
4.375669002532959,2.716379165649414,-1.3701846599578857,4.2199999999999545
4.030389308929443,3.486268997192383,-1.8123958110809326,4.229999999999954
3.771528720855713,4.060117721557617,-2.1797378063201904,4.239999999999954
3.6043031215667725,4.357260704040527,-2.2209575176239014,4.249999999999954
3.5418519973754883,4.381026268005371,-1.7630412578582764,4.259999999999954
3.7490861415863037,4.280784606933594,-0.857306957244873,4.269999999999953
3.9820687770843506,4.339555740356445,0.4932311177253723,4.279999999999953
3.312741279602051,4.559557914733887,2.0486578941345215,4.289999999999953
0.15064942836761475,4.855802536010742,3.3989572525024414,4.299999999999953
-2.5670719146728516,4.837838172912598,4.239681243896484,4.3099999999999525
-4.102123737335205,4.5638837814331055,4.5042805671691895,4.319999999999952
-4.9581098556518555,4.353290557861328,4.071892261505127,4.329999999999952
-5.511253356933594,4.312272071838379,3.319075584411621,4.339999999999952
-5.874336242675781,4.30294132232666,2.509768486022949,4.349999999999952
-6.075917720794678,4.3571977615356445,1.804311752319336,4.3599999999999515
-6.031703948974609,4.341594696044922,1.1995197534561157,4.369999999999951
-5.894711017608643,4.203665733337402,0.7503305077552795,4.379999999999951
-5.538168907165527,3.9623184204101562,0.42559492588043213,4.389999999999951
-5.008225440979004,3.545246124267578,0.15031659603118896,4.399999999999951
-4.521548271179199,3.131143569946289,-0.342889666557312,4.40999999999995
-4.061049938201904,2.908095359802246,-0.8683993816375732,4.41999999999995
-3.6896514892578125,2.777167320251465,-1.5027014017105103,4.42999999999995
-3.3849735260009766,2.3790931701660156,-2.1818532943725586,4.43999999999995
-3.1732873916625977,2.0485382080078125,-2.7749085426330566,4.4499999999999496
-3.0379137992858887,1.581801414489746,-3.1818718910217285,4.459999999999949
-2.7799341678619385,1.1630620956420898,-3.492537498474121,4.469999999999949
-2.5305986404418945,0.8018693923950195,-3.6557388305664062,4.479999999999949
-2.241022825241089,0.4792337417602539,-3.6756632328033447,4.489999999999949
-1.6755536794662476,0.2839670181274414,-3.3894548416137695,4.4999999999999485
-0.7680845260620117,0.18775463104248047,-2.897723436355591,4.509999999999948
0.1383182257413864,0.2366485595703125,-2.301405429840088,4.519999999999948
0.9000621438026428,0.24463653564453125,-1.5715174674987793,4.529999999999948
1.5491886138916016,0.4799489974975586,-0.6394267082214355,4.539999999999948
2.070875883102417,0.751042366027832,0.294417142868042,4.549999999999947
2.3433563709259033,0.971466064453125,1.1383605003356934,4.559999999999947
2.2473950386047363,1.267563819885254,1.6238410472869873,4.569999999999947
1.722365140914917,1.4691171646118164,1.627936601638794,4.579999999999947
0.8016242980957031,1.4684505462646484,1.1876170635223389,4.589999999999947
-0.05153852701187134,1.409134864807129,0.5429785251617432,4.599999999999946
-0.5696986317634583,1.2527227401733398,-0.09226703643798828,4.609999999999946
-0.827257513999939,1.07537841796875,-0.6142094135284424,4.619999999999946
-0.9629568457603455,0.7376976013183594,-0.9328179359436035,4.629999999999946
-1.020071268081665,0.39214515686035156,-1.218834400177002,4.6399999999999455
-1.1041678190231323,-0.0072879791259765625,-1.4042482376098633,4.649999999999945
-1.160585880279541,-0.45603466033935547,-1.6251745223999023,4.659999999999945
-1.425741195678711,-0.9972076416015625,-1.8315868377685547,4.669999999999945
-1.482170581817627,-1.310286045074463,-1.974050521850586,4.679999999999945
-1.5877668857574463,-1.6967048645019531,-2.063110589981079,4.689999999999944
-1.6533293724060059,-1.9935851097106934,-2.1715915203094482,4.699999999999944
-1.7984561920166016,-2.3633861541748047,-2.3027501106262207,4.709999999999944
-1.8267123699188232,-2.633671760559082,-2.4429917335510254,4.719999999999944
-1.8697541952133179,-2.897825241088867,-2.556619644165039,4.729999999999944
-2.0213072299957275,-3.0984983444213867,-2.7296924591064453,4.739999999999943
-2.2433910369873047,-3.348111629486084,-2.983764410018921,4.749999999999943
-2.3499913215637207,-3.503166675567627,-3.2803332805633545,4.759999999999943
-2.537564754486084,-3.303356647491455,-3.528033494949341,4.769999999999943
-2.7560782432556152,-3.5331807136535645,-3.9402496814727783,4.7799999999999425
-3.006246566772461,-3.6535792350769043,-4.407787322998047,4.789999999999942
-3.2028589248657227,-3.69061279296875,-4.799653053283691,4.799999999999942
-3.342301845550537,-3.744471549987793,-5.066131114959717,4.809999999999942
-3.4615721702575684,-3.740715980529785,-5.2028961181640625,4.819999999999942
-3.3217740058898926,-3.7080492973327637,-5.12408447265625,4.8299999999999415
-2.9506309032440186,-3.6681928634643555,-4.940030097961426,4.839999999999941
-2.5211870670318604,-3.6095499992370605,-4.607675075531006,4.849999999999941
-2.1083993911743164,-3.513610363006592,-4.088229656219482,4.859999999999941
-1.7496764659881592,-3.469648838043213,-3.3829784393310547,4.869999999999941
-1.566665530204773,-3.5047526359558105,-2.521482467651367,4.87999999999994
-1.4544180631637573,-3.564713954925537,-1.6644313335418701,4.88999999999994
-1.4927657842636108,-3.6548681259155273,-0.9799289703369141,4.89999999999994
-1.6010003089904785,-3.9045920372009277,-0.4237222671508789,4.90999999999994
-1.650240182876587,-4.263607501983643,-0.01183629035949707,4.9199999999999395
-1.6788010597229004,-4.657687187194824,0.3207681179046631,4.929999999999939
-1.6646075248718262,-5.024572372436523,0.5335392951965332,4.939999999999939
-1.7194663286209106,-5.3162736892700195,0.6837284564971924,4.949999999999939
-1.8643532991409302,-5.592324256896973,0.804415225982666,4.959999999999939
-1.9578443765640259,-5.498558044433594,0.895388126373291,4.9699999999999385
-2.0234172344207764,-5.592111110687256,1.0492806434631348,4.979999999999938
-2.0861868858337402,-6.075395584106445,1.152329683303833,4.989999999999938
-2.123523235321045,-6.419005870819092,1.3494608402252197,4.999999999999938
-2.163262367248535,-6.718376159667969,1.6351146697998047,5.009999999999938
-2.192483425140381,-6.934931755065918,1.9511489868164062,5.019999999999937
-2.0882627964019775,-7.1209611892700195,2.2106974124908447,5.029999999999937
-1.8956202268600464,-6.953271389007568,2.3677990436553955,5.039999999999937
-1.4903285503387451,-6.247743606567383,2.4126241207122803,5.049999999999937
-0.890163004398346,-4.923256874084473,2.3426434993743896,5.0599999999999365
-0.2096538543701172,-3.1304359436035156,2.082843542098999,5.069999999999936
0.5078863501548767,-1.2538461685180664,1.6505918502807617,5.079999999999936
1.0638654232025146,0.8486442565917969,1.1526098251342773,5.089999999999936
1.5257816314697266,3.345439910888672,0.5669822692871094,5.099999999999936
1.715928077697754,6.395153045654297,-0.07654976844787598,5.1099999999999355
1.826435923576355,9.517251968383789,-0.4315556287765503,5.119999999999935
1.9264490604400635,12.65662956237793,-0.38591504096984863,5.129999999999935
1.9366971254348755,15.769353866577148,0.3458881378173828,5.139999999999935
1.970319390296936,18.021944046020508,1.7866754531860352,5.149999999999935
1.9289082288742065,18.15386390686035,3.781074285507202,5.159999999999934
1.6961593627929688,14.739277839660645,5.531584739685059,5.169999999999934
1.8009659051895142,10.10359001159668,7.011100769042969,5.179999999999934
2.2398886680603027,6.325328826904297,7.805479049682617,5.189999999999934
2.9710731506347656,3.5627355575561523,7.766251564025879,5.199999999999934
3.7056398391723633,1.926152229309082,6.880383491516113,5.209999999999933
4.1533427238464355,1.2774391174316406,5.472786903381348,5.219999999999933
4.017414569854736,1.4885978698730469,3.8903255462646484,5.229999999999933
3.469184398651123,2.53958797454834,2.2228941917419434,5.239999999999933
2.403860092163086,4.084996223449707,0.810154914855957,5.2499999999999325
0.901829719543457,5.631194114685059,-0.31722450256347656,5.259999999999932
-0.7986554503440857,6.859139442443848,-1.1065428256988525,5.269999999999932
-2.2655954360961914,7.421509742736816,-2.148473024368286,5.279999999999932
-3.1715610027313232,7.094210624694824,-3.295008420944214,5.289999999999932
-3.831024169921875,6.343231201171875,-4.434154510498047,5.299999999999931
-4.2795610427856445,5.431710243225098,-5.53541374206543,5.309999999999931
-4.594747543334961,4.280936241149902,-6.237313270568848,5.319999999999931
-4.799039840698242,2.87448787689209,-6.2350969314575195,5.329999999999931
-4.9080939292907715,0.6402578353881836,-5.5931854248046875,5.339999999999931
-4.792122840881348,-1.9742984771728516,-4.400204181671143,5.34999999999993
-4.703319549560547,-4.073977470397949,-2.718059539794922,5.35999999999993
-4.529245376586914,-5.345407962799072,-1.2639055252075195,5.36999999999993
-4.309056282043457,-6.099038600921631,-0.2735023498535156,5.37999999999993
-3.862614393234253,-6.610775470733643,-0.10005748271942139,5.3899999999999295
-3.1494061946868896,-6.794622421264648,-0.8947752714157104,5.399999999999929
-2.4575581550598145,-7.193360805511475,-2.29879093170166,5.409999999999929
-1.5208063125610352,-7.378352642059326,-3.6643548011779785,5.419999999999929
-0.7567111253738403,-7.543275356292725,-4.769433498382568,5.429999999999929
-0.2676919996738434,-7.616246700286865,-5.42447566986084,5.4399999999999284
0.053405631333589554,-7.721525192260742,-5.781698226928711,5.449999999999928
0.19060219824314117,-7.686728477478027,-5.915919780731201,5.459999999999928
0.26307588815689087,-7.3660454750061035,-5.886665344238281,5.469999999999928
-0.03475096821784973,-6.575712203979492,-5.685359001159668,5.479999999999928
-0.5261204242706299,-5.237564563751221,-5.249967098236084,5.489999999999927
-0.9576429128646851,-3.4171090126037598,-4.805372714996338,5.499999999999927
-1.3911375999450684,-0.9741172790527344,-4.383201599121094,5.509999999999927
-1.9859962463378906,1.7699737548828125,-3.656810760498047,5.519999999999927
-2.7254722118377686,4.747353553771973,-2.3038172721862793,5.5299999999999265
-3.8044848442077637,7.633645057678223,1.2779836654663086,5.539999999999926
-5.078639984130859,10.333739280700684,6.997177600860596,5.549999999999926
-4.839217185974121,11.307501792907715,9.091269493103027,5.559999999999926
-2.385450601577759,9.489789009094238,6.738563537597656,5.569999999999926
-0.5285369753837585,6.370601654052734,3.2716331481933594,5.5799999999999255
0.08502250909805298,3.8724708557128906,0.33259105682373047,5.589999999999925
0.894340991973877,1.7846250534057617,-1.944739580154419,5.599999999999925
1.5059685707092285,-0.022424697875976562,-3.5394623279571533,5.609999999999925
1.7820849418640137,-1.3889188766479492,-4.515149116516113,5.619999999999925
1.701364278793335,-2.222320556640625,-4.904561996459961,5.629999999999924
1.4551905393600464,-2.6812171936035156,-4.818858623504639,5.639999999999924
1.043074607849121,-2.859464645385742,-4.239034175872803,5.649999999999924
0.8468866944313049,-2.9584035873413086,-3.1981096267700195,5.659999999999924
0.6308488845825195,-2.997375011444092,-1.9156404733657837,5.6699999999999235
0.2518283724784851,-2.8497581481933594,-1.1156160831451416,5.679999999999923
-0.04153639078140259,-2.549142837524414,-1.0872383117675781,5.689999999999923
-0.2738615870475769,-2.2700986862182617,-1.4303252696990967,5.699999999999923
-0.4196460247039795,-2.062657356262207,-1.8036835193634033,5.709999999999923
-0.6425798535346985,-1.9840664863586426,-1.8900691270828247,5.7199999999999225
-0.6776828169822693,-2.012639045715332,-1.616200566291809,5.729999999999922
-0.5081936717033386,-2.102813720703125,-0.9990249872207642,5.739999999999922
-0.38518863916397095,-2.201960563659668,-0.11203666776418686,5.749999999999922
-0.32260769605636597,-2.0494961738586426,0.7592891454696655,5.759999999999922
-0.3845875859260559,-1.7557754516601562,1.4378348588943481,5.769999999999921
-0.5227534770965576,-1.4262046813964844,1.7160470485687256,5.779999999999921
-0.6194474101066589,-1.1205987930297852,1.56422758102417,5.789999999999921
-0.7942968010902405,-0.9393310546875,1.2428277730941772,5.799999999999921
-0.8992404937744141,-0.7387485504150391,0.8255630731582642,5.809999999999921
-0.8028385639190674,-0.47576141357421875,0.44565317034721375,5.81999999999992
-0.73020339012146,-0.17668628692626953,0.022683322429656982,5.82999999999992
-0.48272931575775146,0.08917427062988281,-0.2514629364013672,5.83999999999992
-0.16336488723754883,0.3267173767089844,-0.3744882643222809,5.84999999999992
0.3020765781402588,0.5240964889526367,-0.3490687608718872,5.8599999999999195
0.7002618312835693,0.5426969528198242,-0.1635591983795166,5.869999999999919
1.0328521728515625,0.4615955352783203,0.16722816228866577,5.879999999999919
1.1912405490875244,0.4361839294433594,0.450803279876709,5.889999999999919
1.442623496055603,0.41837501525878906,0.6451414823532104,5.899999999999919
1.662268042564392,0.19039440155029297,0.7702686190605164,5.909999999999918
1.926531434059143,0.0010328292846679688,0.8802126049995422,5.919999999999918
1.957834243774414,-0.2980833053588867,1.099304437637329,5.929999999999918
1.964613914489746,-0.5275001525878906,1.2912665605545044,5.939999999999918
2.193730115890503,-0.7924041748046875,1.3779021501541138,5.949999999999918
2.0300683975219727,-0.9803552627563477,1.5348312854766846,5.959999999999917
1.6359083652496338,-0.9887189865112305,1.6143181324005127,5.969999999999917
1.1355005502700806,-0.8201322555541992,1.7461167573928833,5.979999999999917
0.7684497237205505,-0.2356710433959961,1.7603437900543213,5.989999999999917
0.5091710090637207,0.3099050521850586,1.7282655239105225,5.9999999999999165
0.3131239414215088,0.5775899887084961,1.6871919631958008,6.009999999999916
0.12127768993377686,0.5366249084472656,1.583136796951294,6.019999999999916
0.0894240140914917,0.36662769317626953,1.4052685499191284,6.029999999999916
0.13119304180145264,0.1728515625,1.2724511623382568,6.039999999999916
-0.13736748695373535,0.08413887023925781,1.1004821062088013,6.0499999999999154
0.09603691101074219,-0.019394874572753906,1.0928809642791748,6.059999999999915
0.7447985410690308,0.07034492492675781,1.2306811809539795,6.069999999999915
1.2893061637878418,0.27669334411621094,1.6727267503738403,6.079999999999915
1.894683599472046,0.4035654067993164,2.209338665008545,6.089999999999915
2.331080198287964,0.6184310913085938,2.431889057159424,6.099999999999914
2.63601016998291,0.834864616394043,2.216252326965332,6.109999999999914
2.8753998279571533,1.1770124435424805,1.912822961807251,6.119999999999914
3.054797410964966,1.639683723449707,1.7095863819122314,6.129999999999914
3.584138870239258,1.9187164306640625,1.0566414594650269,6.1399999999999135
3.8733997344970703,1.9877653121948242,0.5435369610786438,6.149999999999913
4.257230758666992,1.8686017990112305,0.2954816222190857,6.159999999999913
4.492401123046875,1.5904111862182617,0.5712594985961914,6.169999999999913
4.881331920623779,1.3591203689575195,0.5776211023330688,6.179999999999913
5.183620452880859,1.1962385177612305,0.5038005113601685,6.1899999999999125
5.407415390014648,1.0992622375488281,0.37146657705307007,6.199999999999912
5.4602556228637695,1.1089248657226562,0.41235440969467163,6.209999999999912
5.424314498901367,1.1776056289672852,0.7208694815635681,6.219999999999912
5.5126543045043945,1.4870939254760742,0.7665684819221497,6.229999999999912
5.531876564025879,1.9224624633789062,0.8871214389801025,6.239999999999911
5.374805450439453,2.5887622833251953,0.8254528045654297,6.249999999999911
5.070348739624023,3.308591842651367,0.5985837578773499,6.259999999999911
4.572997570037842,4.021893501281738,0.34747016429901123,6.269999999999911
4.002020359039307,4.446376800537109,0.05335426330566406,6.2799999999999105
3.3782882690429688,4.577610015869141,-0.07636111974716187,6.28999999999991
2.950122594833374,4.571601867675781,-0.021871745586395264,6.29999999999991
2.5738368034362793,4.579531669616699,0.3642810583114624,6.30999999999991
2.189697027206421,4.766759872436523,1.1488994359970093,6.31999999999991
0.9232221841812134,4.932215690612793,2.1977977752685547,6.3299999999999095
-0.8735548257827759,4.860428810119629,3.2079644203186035,6.339999999999909
-2.3525748252868652,4.3244781494140625,3.910170078277588,6.349999999999909
-3.2912182807922363,3.6002588272094727,4.21010160446167,6.359999999999909
-4.126429080963135,2.970762252807617,4.271303653717041,6.369999999999909
-4.84307861328125,2.615924835205078,4.062901020050049,6.379999999999908
-5.346864700317383,2.526675224304199,3.6857266426086426,6.389999999999908
-5.669594764709473,2.5146350860595703,3.1730029582977295,6.399999999999908
-5.710972785949707,2.589986801147461,2.580153465270996,6.409999999999908
-5.490225791931152,2.726734161376953,1.997020959854126,6.419999999999908
-5.174945831298828,2.716761589050293,1.4162180423736572,6.429999999999907
-4.526280403137207,2.4091787338256836,0.6726833581924438,6.439999999999907
-3.8961169719696045,2.081094741821289,-0.16062510013580322,6.449999999999907
-3.2850940227508545,1.9040336608886719,-1.074937343597412,6.459999999999907
-2.780862808227539,1.862797737121582,-1.945178508758545,6.4699999999999065
-2.5507514476776123,1.9972991943359375,-2.723759174346924,6.479999999999906
-2.4168057441711426,2.046170234680176,-3.4255573749542236,6.489999999999906
-2.400423049926758,2.1167335510253906,-4.027500629425049,6.499999999999906
-2.5035150051116943,2.0294456481933594,-4.492615699768066,6.509999999999906
-2.6584084033966064,1.8489770889282227,-4.8341569900512695,6.519999999999905
-2.9365553855895996,1.647186279296875,-5.089383125305176,6.529999999999905
-3.137420654296875,1.5630817413330078,-5.12439489364624,6.539999999999905
-3.3272016048431396,1.6377935409545898,-4.792152404785156,6.549999999999905
-2.873276472091675,1.687861442565918,-4.022441864013672,6.559999999999905
-1.691124439239502,1.625748634338379,-2.8948872089385986,6.569999999999904
-0.4615151286125183,1.5691356658935547,-1.5029594898223877,6.579999999999904
0.7013490796089172,1.5535011291503906,0.2683868408203125,6.589999999999904
1.681626796722412,1.7142210006713867,2.0711777210235596,6.599999999999904
2.1236612796783447,1.7395133972167969,3.393843412399292,6.6099999999999035
2.3176615238189697,1.6122846603393555,4.046962738037109,6.619999999999903
2.1214041709899902,1.3252716064453125,3.895277738571167,6.629999999999903
1.537410020828247,1.0650157928466797,3.3222098350524902,6.639999999999903
0.950141191482544,0.8935136795043945,2.5744760036468506,6.649999999999903
0.28864601254463196,0.7218427658081055,1.7509269714355469,6.659999999999902
-0.2667505741119385,0.46350860595703125,0.9648776054382324,6.669999999999902
-0.803183376789093,0.17087459564208984,0.23841404914855957,6.679999999999902
-1.1436409950256348,-0.04884529113769531,-0.35134077072143555,6.689999999999902
-1.402458906173706,-0.2677335739135742,-0.9191834926605225,6.699999999999902
-1.5547754764556885,-0.4740161895751953,-1.3672242164611816,6.709999999999901
-1.6978414058685303,-0.7180328369140625,-1.6648032665252686,6.719999999999901
-1.680342197418213,-0.9637908935546875,-1.9323318004608154,6.729999999999901
-1.5691490173339844,-1.3017892837524414,-2.242814540863037,6.739999999999901
-1.5875532627105713,-1.5859155654907227,-2.5176939964294434,6.7499999999999005
-1.511077642440796,-1.8757567405700684,-2.8509650230407715,6.7599999999999
-1.35945463180542,-2.1616439819335938,-3.1686882972717285,6.7699999999999
-1.325028657913208,-2.5031375885009766,-3.6219089031219482,6.7799999999999
-1.4156502485275269,-2.828120708465576,-4.096271991729736,6.7899999999999
-1.4619855880737305,-3.20806884765625,-4.565950870513916,6.7999999999998995
-1.4760215282440186,-3.5853443145751953,-4.926151752471924,6.809999999999899
-1.522384524345398,-3.986204147338867,-5.172311782836914,6.819999999999899
-1.6481082439422607,-4.276647090911865,-5.436420440673828,6.829999999999899
-1.6677511930465698,-4.526174068450928,-5.65659236907959,6.839999999999899
-1.8221869468688965,-4.672702789306641,-5.847400188446045,6.849999999999898
-1.966904878616333,-4.83579158782959,-6.047741889953613,6.859999999999898
-2.1748175621032715,-4.879228591918945,-6.023504257202148,6.869999999999898
-2.4499711990356445,-4.757812976837158,-5.877902507781982,6.879999999999898
-2.8234901428222656,-4.746758460998535,-5.536957740783691,6.8899999999998975
-3.134303569793701,-4.394504070281982,-4.957117080688477,6.899999999999897
-3.429924964904785,-4.127928733825684,-4.108398914337158,6.909999999999897
-3.681365966796875,-3.9716649055480957,-3.1258442401885986,6.919999999999897
-3.7975759506225586,-3.928806781768799,-2.0844924449920654,6.929999999999897
-3.8099164962768555,-4.019245624542236,-1.0374879837036133,6.9399999999998965
-3.659458637237549,-4.238673686981201,-0.15777134895324707,6.949999999999896
-3.373831272125244,-4.580139636993408,0.5131077766418457,6.959999999999896
-2.8634896278381348,-4.98132848739624,0.8707661628723145,6.969999999999896
-2.198117971420288,-5.382209300994873,1.011148452758789,6.979999999999896
-1.4822275638580322,-5.6869306564331055,1.034581184387207,6.989999999999895
-0.822131335735321,-5.926485538482666,1.0435974597930908,6.999999999999895
-0.5419788360595703,-6.158081531524658,1.078540563583374,7.009999999999895
-0.552187442779541,-6.369500637054443,1.1416339874267578,7.019999999999895
-0.6318655014038086,-6.6680707931518555,1.294966220855713,7.0299999999998946
-0.8043699860572815,-7.007986545562744,1.5481657981872559,7.039999999999894
-1.0358487367630005,-7.252529144287109,1.9131872653961182,7.049999999999894
-1.359405755996704,-7.214668273925781,2.3487775325775146,7.059999999999894
-1.6175215244293213,-7.565666198730469,2.73824143409729,7.069999999999894
-1.8021496534347534,-7.514705657958984,3.0888264179229736,7.0799999999998935
-2.2165703773498535,-7.149326801300049,3.280456304550171,7.089999999999893
-2.569241523742676,-6.310835838317871,3.2174594402313232,7.099999999999893
-2.899691581726074,-5.018056392669678,2.986961603164673,7.109999999999893
-2.8849148750305176,-3.258899688720703,2.7122349739074707,7.119999999999893
-2.5514495372772217,-1.2147493362426758,2.225855588912964,7.129999999999892
-1.9240295886993408,1.346959114074707,1.538332462310791,7.139999999999892
-1.1153476238250732,4.598634719848633,1.0293846130371094,7.149999999999892
-0.15417680144309998,8.0884370803833,0.7561378479003906,7.159999999999892
0.5256281495094299,12.399686813354492,0.8709456920623779,7.169999999999892
0.9698020219802856,16.905916213989258,1.3003783226013184,7.179999999999891
1.4083824157714844,20.294124603271484,2.2777204513549805,7.189999999999891
2.2934629917144775,20.81285858154297,3.694218397140503,7.199999999999891
2.9738335609436035,18.870866775512695,4.8953857421875,7.209999999999891
3.402107000350952,14.996874809265137,5.732058525085449,7.2199999999998905
3.8949532508850098,10.541749954223633,6.229287147521973,7.22999999999989
4.53508186340332,6.914341926574707,6.438270568847656,7.23999999999989
4.8994059562683105,4.899967193603516,6.124739646911621,7.24999999999989
4.91618537902832,4.45567512512207,5.2209014892578125,7.25999999999989
4.210352420806885,5.0052900314331055,3.639183521270752,7.269999999999889
3.1153652667999268,5.875006675720215,2.2875514030456543,7.279999999999889
2.0007123947143555,6.8579607009887695,1.4686322212219238,7.289999999999889
0.8077898025512695,7.802830696105957,0.931596040725708,7.299999999999889
-1.011225700378418,8.348652839660645,0.4030575752258301,7.309999999999889
-3.609285831451416,7.6643171310424805,-0.17034530639648438,7.319999999999888
-6.128936767578125,5.909802436828613,-0.5521821975708008,7.329999999999888
-8.006447792053223,3.2903881072998047,-0.8916269540786743,7.339999999999888
-8.816690444946289,0.5993232727050781,-1.116098165512085,7.349999999999888
-9.13276195526123,-1.8231844902038574,-1.2252075672149658,7.3599999999998875
-9.089997291564941,-3.709380626678467,-1.3471410274505615,7.369999999999887
-8.633320808410645,-5.000037670135498,-1.6071062088012695,7.379999999999887
-7.936059474945068,-5.834455490112305,-2.137470245361328,7.389999999999887
-6.853274822235107,-6.274996757507324,-3.0548062324523926,7.399999999999887
-4.611824989318848,-6.627588748931885,-4.266076564788818,7.4099999999998865
-2.3933610916137695,-6.611949920654297,-5.382106781005859,7.419999999999886
-0.41894471645355225,-6.058368682861328,-6.183176517486572,7.429999999999886
1.1508982181549072,-5.2470574378967285,-6.793342113494873,7.439999999999886
2.5396533012390137,-4.226016521453857,-7.412607192993164,7.449999999999886
3.4363040924072266,-3.2153334617614746,-8.121164321899414,7.459999999999885
3.6081900596618652,-2.34405517578125,-8.835827827453613,7.469999999999885
3.29791259765625,-1.8512210845947266,-9.266836166381836,7.479999999999885
2.7442760467529297,-1.5262823104858398,-9.305277824401855,7.489999999999885
2.137650728225708,-1.214146614074707,-8.748326301574707,7.4999999999998845
1.552999496459961,-0.9251241683959961,-7.720290184020996,7.509999999999884
1.0738317966461182,-0.9565820693969727,-6.422243595123291,7.519999999999884
0.8412319421768188,-1.2397689819335938,-4.80393123626709,7.529999999999884
0.8207210302352905,-1.6270370483398438,-2.9849705696105957,7.539999999999884
1.0058262348175049,-1.9205751419067383,-1.1443891525268555,7.5499999999998835
1.2912654876708984,-1.9275827407836914,0.8271279335021973,7.559999999999883
2.070774793624878,-1.309767723083496,3.670900821685791,7.569999999999883
2.881329298019409,-0.19788074493408203,7.094419956207275,7.579999999999883
3.05289363861084,0.8334531784057617,9.18346118927002,7.589999999999883
1.7218924760818481,1.727952003479004,8.936046600341797,7.599999999999882
-0.08441716432571411,2.1028404235839844,6.900607109069824,7.609999999999882
-1.1228514909744263,1.9992618560791016,4.269994735717773,7.619999999999882
-1.655914068222046,1.8882198333740234,1.7359788417816162,7.629999999999882
-1.692610502243042,1.5842037200927734,-0.4893141984939575,7.6399999999998816
-1.6443357467651367,1.1259613037109375,-2.363344192504883,7.649999999999881
-1.5800578594207764,0.5636377334594727,-3.720590114593506,7.659999999999881
-1.4870445728302002,-0.012265205383300781,-4.583792209625244,7.669999999999881
-1.2939414978027344,-0.5783939361572266,-4.773592472076416,7.679999999999881
-0.7792062759399414,-1.0181684494018555,-4.294040203094482,7.6899999999998805
-0.3810497522354126,-1.2390966415405273,-3.5324034690856934,7.69999999999988
-0.27462393045425415,-1.3736467361450195,-2.669299602508545,7.70999999999988
-0.5231310725212097,-1.5683917999267578,-1.8936753273010254,7.71999999999988
-0.6686453819274902,-1.6537017822265625,-1.7738524675369263,7.72999999999988
-0.5405970811843872,-1.6869163513183594,-2.218766927719116,7.739999999999879
-0.4214772582054138,-1.677353858947754,-2.6944572925567627,7.749999999999879
-0.37657779455184937,-1.5554428100585938,-2.9476211071014404,7.759999999999879
-0.30665117502212524,-1.409627914428711,-3.0258781909942627,7.769999999999879
-0.2728332281112671,-1.2494220733642578,-2.684434652328491,7.779999999999879
-0.1662071943283081,-1.2780399322509766,-2.0157132148742676,7.789999999999878
-0.08574897050857544,-1.356541633605957,-1.049619197845459,7.799999999999878
0.16674840450286865,-1.4991626739501953,-0.08396044373512268,7.809999999999878
0.6653398275375366,-1.586181640625,0.6884812116622925,7.819999999999878
0.9937382936477661,-1.562617301940918,1.2662348747253418,7.8299999999998775
1.1854535341262817,-1.4357919692993164,1.628953218460083,7.839999999999877
1.1733789443969727,-1.2298154830932617,1.8049845695495605,7.849999999999877
0.8278538584709167,-0.9353828430175781,1.845519781112671,7.859999999999877
0.46680253744125366,-0.6770820617675781,1.6352900266647339,7.869999999999877
0.26744598150253296,-0.4453458786010742,1.2337201833724976,7.879999999999876
0.18513810634613037,-0.09180927276611328,0.72794109582901,7.889999999999876
0.19918560981750488,0.15393733978271484,0.0989624634385109,7.899999999999876
0.29117095470428467,0.3590850830078125,-0.5359971523284912,7.909999999999876
0.3130788803100586,0.4735269546508789,-1.0454843044281006,7.919999999999876
0.45641499757766724,0.5117568969726562,-1.4055476188659668,7.929999999999875
0.6397572755813599,0.33043575286865234,-1.4961774349212646,7.939999999999875
0.597189724445343,0.1139373779296875,-1.4436980485916138,7.949999999999875
0.8503404259681702,-0.03959846496582031,-1.2860424518585205,7.959999999999875
1.0331999063491821,-0.2592897415161133,-1.0038951635360718,7.9699999999998745
1.2702336311340332,-0.5569534301757812,-0.6335949301719666,7.979999999999874
1.4056673049926758,-0.7388134002685547,-0.11838114261627197,7.989999999999874
1.5637450218200684,-0.9772005081176758,0.3252100646495819,7.999999999999874
