AccX,AccY,AccZ,SampleRate
1.5739421844482422,-0.9195671081542969,-0.17415565252304077,0
1.6005878448486328,-0.5678691864013672,0.06871891021728516,0.01
1.1716454029083252,-0.25703907012939453,0.19551745057106018,0.02
0.638016939163208,-0.09711456298828125,0.19162574410438538,0.03
0.2551880478858948,-0.030542373657226562,0.10183176398277283,0.04
0.07347977161407471,-0.061936378479003906,-0.029031023383140564,0.05
-0.03831076622009277,-0.16002941131591797,-0.11989100277423859,0.060000000000000005
-0.02690744400024414,-0.14054298400878906,-0.21182546019554138,0.07
-0.18156707286834717,-0.24988937377929688,-0.20442526042461395,0.08
-0.3826802968978882,-0.20817947387695312,-0.21720632910728455,0.09
-0.35484862327575684,-0.25467872619628906,-0.13265849649906158,0.09999999999999999
-0.25090205669403076,-0.30553436279296875,-0.08940821886062622,0.10999999999999999
-0.3101569414138794,-0.42052555084228516,0.04434825852513313,0.11999999999999998
-0.30513083934783936,-0.6880273818969727,0.09636997431516647,0.12999999999999998
-0.2383718490600586,-0.94525146484375,0.1599981188774109,0.13999999999999999
-0.1647564172744751,-1.1324043273925781,0.23271813988685608,0.15
-0.1394944190979004,-1.2400236129760742,0.3935087323188782,0.16
-0.033361077308654785,-1.3829584121704102,0.6043095588684082,0.17
0.12009239196777344,-1.5300626754760742,0.7836853861808777,0.18000000000000002
0.13156020641326904,-1.7626619338989258,0.9842343330383301,0.19000000000000003
0.20172607898712158,-1.8391799926757812,1.1367104053497314,0.20000000000000004
0.20343053340911865,-1.7168011665344238,1.2534048557281494,0.21000000000000005
0.37335073947906494,-1.6564035415649414,1.3512624502182007,0.22000000000000006
0.5294737815856934,-1.3996648788452148,1.4065296649932861,0.23000000000000007
0.647747814655304,-0.9611845016479492,1.4074281454086304,0.24000000000000007
0.6632325053215027,-0.3818855285644531,1.3517524003982544,0.25000000000000006
0.6090718507766724,0.053447723388671875,1.2322814464569092,0.26000000000000006
0.6575450897216797,0.27564239501953125,1.0989447832107544,0.2700000000000001
0.8064016103744507,0.4164752960205078,0.9318536520004272,0.2800000000000001
0.6248787641525269,0.3229532241821289,0.9171539545059204,0.2900000000000001
0.8167591691017151,0.20342063903808594,0.9824825525283813,0.3000000000000001
1.121611475944519,0.16082096099853516,1.0916759967803955,0.3100000000000001
1.3984043598175049,0.22374439239501953,1.1557731628417969,0.3200000000000001
1.599115252494812,0.19830322265625,1.2151093482971191,0.3300000000000001
1.8383605480194092,0.2662353515625,1.2285041809082031,0.34000000000000014
2.046280860900879,0.4129295349121094,1.3079047203063965,0.35000000000000014
2.2057974338531494,0.7003335952758789,1.3835232257843018,0.36000000000000015
2.46022629737854,0.7886295318603516,1.4381383657455444,0.37000000000000016
2.56532883644104,0.8453712463378906,1.533907175064087,0.38000000000000017
2.642993688583374,0.9279794692993164,1.7122251987457275,0.3900000000000002
2.831660747528076,1.1344213485717773,1.71757972240448,0.4000000000000002
3.0518860816955566,1.3641204833984375,1.7068591117858887,0.4100000000000002
3.0279958248138428,1.7939262390136719,1.5736180543899536,0.4200000000000002
3.1040198802948,2.040945053100586,1.4361791610717773,0.4300000000000002
3.191178321838379,2.3660154342651367,1.3285207748413086,0.4400000000000002
3.3469653129577637,2.5896949768066406,1.209726333618164,0.45000000000000023
3.4162955284118652,2.805365562438965,1.1051985025405884,0.46000000000000024
3.44262433052063,2.9723196029663086,0.994251012802124,0.47000000000000025
3.512321949005127,2.987715721130371,0.7413826584815979,0.48000000000000026
3.532127618789673,3.076457977294922,0.6880123019218445,0.49000000000000027
3.319941997528076,3.259903907775879,0.8054603338241577,0.5000000000000002
3.1982195377349854,3.5426292419433594,1.0079928636550903,0.5100000000000002
3.0754644870758057,3.919618606567383,1.1088393926620483,0.5200000000000002
2.788163185119629,4.421597480773926,0.9782341718673706,0.5300000000000002
2.4575371742248535,4.897487640380859,0.6673333048820496,0.5400000000000003
2.2098915576934814,5.284978866577148,0.2435583472251892,0.5500000000000003
1.9561611413955688,5.529116630554199,-0.2776986360549927,0.5600000000000003
1.791698694229126,5.6086626052856445,-0.5523089170455933,0.5700000000000003
1.7405580282211304,5.34004020690918,-0.4577323794364929,0.5800000000000003
1.8513516187667847,4.953749656677246,0.12456128001213074,0.5900000000000003
2.012864828109741,4.493556976318359,1.0860775709152222,0.6000000000000003
2.169250965118408,3.9242401123046875,2.3568789958953857,0.6100000000000003
1.0998482704162598,3.451479911804199,3.61714768409729,0.6200000000000003
-0.8552061319351196,3.1224803924560547,4.288662910461426,0.6300000000000003
-2.2731552124023438,2.6884374618530273,4.303083896636963,0.6400000000000003
-2.8707947731018066,2.1765260696411133,3.8767077922821045,0.6500000000000004
-3.242081880569458,1.7145509719848633,3.319338798522949,0.6600000000000004
-3.4404287338256836,1.5136661529541016,2.745814800262451,0.6700000000000004
-3.474398612976074,1.5261640548706055,2.242102861404419,0.6800000000000004
-3.435906410217285,1.5176305770874023,1.7151079177856445,0.6900000000000004
-3.287820339202881,1.5549554824829102,1.159254789352417,0.7000000000000004
-3.017263412475586,1.453730583190918,0.5387227535247803,0.7100000000000004
-2.8075485229492188,1.3956069946289062,-0.06412255764007568,0.7200000000000004
-2.61057710647583,1.294112205505371,-0.6582901477813721,0.7300000000000004
-2.448570728302002,1.1680011749267578,-1.245765209197998,0.7400000000000004
-2.3466081619262695,1.0144233703613281,-1.7638040781021118,0.7500000000000004
-2.2414724826812744,0.8473615646362305,-2.2961649894714355,0.7600000000000005
-2.1102135181427,0.6904239654541016,-2.835627794265747,0.7700000000000005
-1.9679150581359863,0.6222610473632812,-3.3200840950012207,0.7800000000000005
-1.771637201309204,0.5852956771850586,-3.750140428543091,0.7900000000000005
-1.3897285461425781,0.5868244171142578,-4.06040620803833,0.8000000000000005
-0.9871037006378174,0.7538623809814453,-4.255434989929199,0.8100000000000005
-0.4703418016433716,0.8667316436767578,-4.254276275634766,0.8200000000000005
0.031185120344161987,0.9955024719238281,-3.978823661804199,0.8300000000000005
0.5601223707199097,1.0378761291503906,-3.4887962341308594,0.8400000000000005
0.9676743745803833,1.0898809432983398,-2.8256239891052246,0.8500000000000005
1.3591824769973755,1.1658058166503906,-2.062635660171509,0.8600000000000005
1.730554461479187,1.2222461700439453,-1.2122353315353394,0.8700000000000006
2.0416738986968994,1.291971206665039,-0.2857487201690674,0.8800000000000006
2.31023907661438,1.361978530883789,0.5841131210327148,0.8900000000000006
2.307133674621582,1.4648361206054688,1.1896240711212158,0.9000000000000006
1.9798790216445923,1.67156982421875,1.4488904476165771,0.9100000000000006
1.5076684951782227,1.7999601364135742,1.3890511989593506,0.9200000000000006
1.1198769807815552,1.8501386642456055,1.0503380298614502,0.9300000000000006
0.8772972822189331,1.8726692199707031,0.5918734073638916,0.9400000000000006
0.7167955636978149,1.7435083389282227,0.09608197212219238,0.9500000000000006
0.6134989857673645,1.539484977722168,-0.3757965564727783,0.9600000000000006
0.39837104082107544,1.1531181335449219,-0.7215819358825684,0.9700000000000006
0.20657697319984436,0.9457015991210938,-1.130901575088501,0.9800000000000006
-0.09128186106681824,0.5320158004760742,-1.5441502332687378,0.9900000000000007
-0.4692208170890808,0.1371326446533203,-1.9736534357070923,1.0000000000000007
-0.8272254467010498,-0.23896121978759766,-2.364574909210205,1.0100000000000007
-1.1324553489685059,-0.6082706451416016,-2.7265512943267822,1.0200000000000007
-1.4765827655792236,-1.0354022979736328,-3.030839204788208,1.0300000000000007
-1.9587924480438232,-1.5703320503234863,-3.3472137451171875,1.0400000000000007
-2.2643275260925293,-1.8994665145874023,-3.6928937435150146,1.0500000000000007
-2.7966346740722656,-2.2499141693115234,-4.006272792816162,1.0600000000000007
-3.190542221069336,-2.5949954986572266,-4.309690475463867,1.0700000000000007
-3.6666691303253174,-2.8674330711364746,-4.541774272918701,1.0800000000000007
-4.0839667320251465,-3.0813746452331543,-4.696130752563477,1.0900000000000007
-4.506974697113037,-3.2079429626464844,-4.747177600860596,1.1000000000000008
-4.847118377685547,-3.3044066429138184,-4.793600559234619,1.1100000000000008
-5.130782127380371,-3.358759880065918,-4.747069835662842,1.1200000000000008
-5.217265605926514,-3.378390312194824,-4.506704807281494,1.1300000000000008
-4.963184356689453,-3.301604747772217,-4.105087757110596,1.1400000000000008
-4.312816143035889,-3.2176671028137207,-3.6198463439941406,1.1500000000000008
-3.662545680999756,-3.108180046081543,-3.0615007877349854,1.1600000000000008
-3.0047695636749268,-3.02413272857666,-2.3807010650634766,1.1700000000000008
-2.420950412750244,-3.002074718475342,-1.6692521572113037,1.1800000000000008
-1.8706018924713135,-3.011472225189209,-1.0094988346099854,1.1900000000000008
-1.3705034255981445,-3.0600690841674805,-0.38572192192077637,1.2000000000000008
-0.9421370029449463,-3.193725109100342,0.1648695468902588,1.2100000000000009
-0.5587986707687378,-3.345762252807617,0.5785727500915527,1.2200000000000009
-0.22448945045471191,-3.5712623596191406,0.86045241355896,1.2300000000000009
-0.13431894779205322,-3.8747925758361816,0.9337656497955322,1.2400000000000009
-0.08134323358535767,-4.165042877197266,0.8098351955413818,1.2500000000000009
-0.19622904062271118,-4.513273239135742,0.5618939399719238,1.260000000000001
-0.5884735584259033,-4.789763927459717,0.23203802108764648,1.270000000000001
-1.0903452634811401,-5.03952693939209,-0.144744873046875,1.280000000000001
-1.555574893951416,-5.276398658752441,-0.5288975238800049,1.290000000000001
-1.9168481826782227,-5.456921577453613,-0.8687453269958496,1.300000000000001
-2.169207811355591,-5.621424674987793,-1.1197314262390137,1.310000000000001
-2.310011625289917,-5.666749477386475,-1.3090581893920898,1.320000000000001
-2.3962507247924805,-5.838974475860596,-1.411327600479126,1.330000000000001
-2.418172836303711,-5.860227584838867,-1.4178457260131836,1.340000000000001
-2.241964817047119,-5.699426174163818,-1.262049913406372,1.350000000000001
-1.997244119644165,-5.308882713317871,-1.0110297203063965,1.360000000000001
-1.605597972869873,-4.715137958526611,-0.7053086757659912,1.370000000000001
-1.1204041242599487,-3.987733840942383,-0.4164121150970459,1.380000000000001
-0.5929977893829346,-3.026273727416992,-0.15380191802978516,1.390000000000001
-0.050919950008392334,-1.938467025756836,0.08720564842224121,1.400000000000001
0.4162243604660034,-0.7073860168457031,0.3106210231781006,1.410000000000001
0.8340533971786499,0.5906972885131836,0.49131107330322266,1.420000000000001
1.1204068660736084,2.0780811309814453,0.7234604358673096,1.430000000000001
1.2999931573867798,3.7189788818359375,1.0535058975219727,1.440000000000001
1.3012216091156006,5.501500129699707,1.479935884475708,1.450000000000001
1.3634644746780396,7.133913040161133,1.9534385204315186,1.460000000000001
1.3746201992034912,8.448999404907227,2.597421407699585,1.470000000000001
1.388739824295044,9.267542839050293,3.471512794494629,1.480000000000001
1.2903344631195068,8.934591293334961,4.458950996398926,1.490000000000001
0.9962603449821472,7.374636650085449,5.40285587310791,1.500000000000001
0.7900235652923584,5.23188591003418,6.254807472229004,1.5100000000000011
0.7275774478912354,3.1426124572753906,6.751287460327148,1.5200000000000011
0.6871742010116577,1.3885040283203125,6.784152030944824,1.5300000000000011
0.7015019655227661,0.1121969223022461,6.472528457641602,1.5400000000000011
0.9101715087890625,-0.6969976425170898,5.904717445373535,1.5500000000000012
1.269120693206787,-1.1168251037597656,5.159943580627441,1.5600000000000012
1.6810038089752197,-1.0742473602294922,4.307943820953369,1.5700000000000012
2.1875181198120117,-0.6060075759887695,3.436758518218994,1.5800000000000012
2.621652126312256,0.37110233306884766,2.492074489593506,1.5900000000000012
2.83555269241333,1.9332799911499023,1.5547635555267334,1.6000000000000012
2.530623197555542,3.8124332427978516,0.6450188159942627,1.6100000000000012
1.5457584857940674,5.733687400817871,-0.31793665885925293,1.6200000000000012
0.36314600706100464,7.747373580932617,-1.2581167221069336,1.6300000000000012
-0.4429992735385895,8.884718894958496,-2.1432032585144043,1.6400000000000012
-0.6985090970993042,9.148980140686035,-2.9238529205322266,1.6500000000000012
-0.8031179308891296,9.124567985534668,-3.510181427001953,1.6600000000000013
-0.8701345920562744,8.768952369689941,-3.8682520389556885,1.6700000000000013
-0.8091045618057251,7.8678789138793945,-4.231337547302246,1.6800000000000013
-0.7030307650566101,6.432589530944824,-4.672597408294678,1.6900000000000013
-0.6336350440979004,4.290337562561035,-5.085174083709717,1.7000000000000013
-0.601158618927002,1.8637008666992188,-5.347890377044678,1.7100000000000013
-0.6671380996704102,-0.32537078857421875,-5.409464359283447,1.7200000000000013
-0.6407269239425659,-2.1171975135803223,-5.136824607849121,1.7300000000000013
-0.6748342514038086,-3.5462374687194824,-4.548295497894287,1.7400000000000013
-0.7808180451393127,-4.646817684173584,-3.791694164276123,1.7500000000000013
-1.101564645767212,-5.39087438583374,-3.015814781188965,1.7600000000000013
-1.600159764289856,-5.905630588531494,-2.2294135093688965,1.7700000000000014
-2.187096357345581,-6.294132232666016,-1.4894890785217285,1.7800000000000014
-2.7694289684295654,-6.666403293609619,-0.8858011364936829,1.7900000000000014
-3.3162810802459717,-6.98402214050293,-0.473349392414093,1.8000000000000014
-3.782010555267334,-7.301883697509766,-0.3557860255241394,1.8100000000000014
-4.185791969299316,-7.409449577331543,-0.5041248798370361,1.8200000000000014
-4.530316352844238,-7.177814483642578,-0.7334567308425903,1.8300000000000014
-4.791672229766846,-6.645734786987305,-0.8633848428726196,1.8400000000000014
-4.97190523147583,-5.694194316864014,-0.8907355666160583,1.8500000000000014
-5.2072834968566895,-4.407623291015625,-0.9062631130218506,1.8600000000000014
-5.5146942138671875,-2.6719164848327637,-1.0613270998001099,1.8700000000000014
-6.002209663391113,-0.6194610595703125,-1.4170926809310913,1.8800000000000014
-6.350243091583252,1.713068962097168,-1.9875869750976562,1.8900000000000015
-6.693920135498047,4.083181381225586,-2.5495946407318115,1.9000000000000015
-6.38715124130249,6.186311721801758,-2.7396531105041504,1.9100000000000015
-5.455294132232666,7.612993240356445,-2.4347617626190186,1.9200000000000015
-4.0355119705200195,8.200737953186035,-1.8400378227233887,1.9300000000000015
-2.4640467166900635,7.624875068664551,-1.3292404413223267,1.9400000000000015
-1.3306630849838257,6.204703330993652,-1.1154444217681885,1.9500000000000015
-0.36621201038360596,4.618127822875977,-1.2010202407836914,1.9600000000000015
0.41625654697418213,3.0116539001464844,-1.3822216987609863,1.9700000000000015
1.0783458948135376,1.639266014099121,-1.487031102180481,1.9800000000000015
1.629475712776184,0.5011196136474609,-1.5104953050613403,1.9900000000000015
2.0703558921813965,-0.40741825103759766,-1.6237163543701172,2.0000000000000013
2.4916796684265137,-1.0956134796142578,-1.9230678081512451,2.010000000000001
2.8800971508026123,-1.651559829711914,-2.2743000984191895,2.020000000000001
3.1870174407958984,-2.015071392059326,-2.565868616104126,2.0300000000000007
3.450230121612549,-2.135716438293457,-2.7447078227996826,2.0400000000000005
3.595183849334717,-2.1616926193237305,-2.7927820682525635,2.0500000000000003
3.6548333168029785,-2.0833396911621094,-2.1241626739501953,2.06
3.7475810050964355,-2.113506317138672,-1.430120587348938,2.07
3.7681970596313477,-2.177936553955078,-0.8566742539405823,2.0799999999999996
3.442843198776245,-1.9682331085205078,-0.4019532799720764,2.0899999999999994
2.874363422393799,-1.7168331146240234,-0.07441152632236481,2.099999999999999
1.9461669921875,-1.4790258407592773,0.016412541270256042,2.109999999999999
0.3555753827095032,-1.2695226669311523,0.02805998921394348,2.1199999999999988
-0.8913467526435852,-1.0981788635253906,0.007604867219924927,2.1299999999999986
-1.5743385553359985,-0.9602956771850586,-0.010366901755332947,2.1399999999999983
-1.7083616256713867,-0.9442863464355469,-0.015291547402739525,2.149999999999998
-1.6638388633728027,-0.9949226379394531,0.07995898276567459,2.159999999999998
-1.6700942516326904,-1.037984848022461,0.21719792485237122,2.1699999999999977
-1.5236073732376099,-1.1308727264404297,0.4442402720451355,2.1799999999999975
-1.2697792053222656,-1.089402198791504,0.6205829977989197,2.1899999999999973
-0.992419958114624,-1.0261259078979492,0.7256172299385071,2.199999999999997
-0.6892552375793457,-0.9673662185668945,0.7414501905441284,2.209999999999997
-0.44196808338165283,-0.8964004516601562,0.6570032238960266,2.2199999999999966
-0.19098544120788574,-0.6865234375,0.4320048689842224,2.2299999999999964
0.05149495601654053,-0.44791316986083984,0.17192968726158142,2.239999999999996
0.4119222164154053,-0.17345046997070312,-0.010761409997940063,2.249999999999996
0.7561513185501099,5.37872314453125E-4,-0.07988160848617554,2.259999999999996
1.0937023162841797,0.07420158386230469,-0.07580244541168213,2.2699999999999956
1.3862072229385376,0.0978860855102539,-0.022396355867385864,2.2799999999999954
1.6743113994598389,0.031015396118164062,0.041915059089660645,2.289999999999995
1.9652976989746094,-0.14540481567382812,0.14309728145599365,2.299999999999995
2.1039199829101562,-0.2566661834716797,0.27109599113464355,2.3099999999999947
2.351325750350952,-0.47974109649658203,0.44710326194763184,2.3199999999999945
2.4062306880950928,-0.8001375198364258,0.6610419750213623,2.3299999999999943
2.1391918659210205,-1.0050249099731445,0.8715987205505371,2.339999999999994
1.7075945138931274,-1.1903257369995117,1.1360011100769043,2.349999999999994
1.4171594381332397,-1.2939910888671875,1.3106095790863037,2.3599999999999937
1.0570429563522339,-1.1703109741210938,1.4219669103622437,2.3699999999999934
0.7352056503295898,-0.7429962158203125,1.5135884284973145,2.3799999999999932
0.5334314107894897,-0.15578269958496094,1.5859308242797852,2.389999999999993
0.4785435199737549,0.41193580627441406,1.5819720029830933,2.399999999999993
0.4440346956253052,0.790492057800293,1.5280182361602783,2.4099999999999926
0.3438587188720703,0.9729633331298828,1.4838027954101562,2.4199999999999924
0.3452877998352051,1.1460447311401367,1.4081604480743408,2.429999999999992
0.4000738859176636,1.2044200897216797,1.2572726011276245,2.439999999999992
0.40480971336364746,0.95916748046875,1.1906777620315552,2.4499999999999917
0.3346433639526367,0.5610370635986328,1.2458460330963135,2.4599999999999915
0.291900634765625,0.3686866760253906,1.2307512760162354,2.4699999999999913
0.5615911483764648,0.06624794006347656,1.3219406604766846,2.479999999999991
0.8782941102981567,-0.14530277252197266,1.3919566869735718,2.489999999999991
1.1034027338027954,-0.21593666076660156,1.4185630083084106,2.4999999999999907
1.2942211627960205,-0.3204460144042969,1.4686741828918457,2.5099999999999905
1.4979462623596191,-0.1935415267944336,1.544595718383789,2.5199999999999902
2.0896925926208496,-0.10577011108398438,1.6009373664855957,2.52999999999999
2.5804028511047363,0.23694133758544922,1.6554458141326904,2.53999999999999
2.949922561645508,0.6308526992797852,1.4651483297348022,2.5499999999999896
3.273705005645752,0.9992151260375977,1.1081191301345825,2.5599999999999894
3.478940486907959,1.1936893463134766,0.7679652571678162,2.569999999999989
3.6464619636535645,1.1498832702636719,0.4650117754936218,2.579999999999989
3.8985648155212402,1.0427122116088867,0.24962633848190308,2.5899999999999888
4.109326362609863,0.8962879180908203,0.027556538581848145,2.5999999999999885
4.330456256866455,0.7945652008056641,-0.06388205289840698,2.6099999999999883
4.498714447021484,0.8238153457641602,0.13696616888046265,2.619999999999988
4.624617576599121,1.2207775115966797,0.4117307662963867,2.629999999999988
4.716036796569824,1.6958694458007812,0.8755503296852112,2.6399999999999877
4.352022647857666,2.2514142990112305,1.4881352186203003,2.6499999999999875
3.7215735912323,2.796365737915039,2.1202001571655273,2.6599999999999873
3.028068780899048,3.335402488708496,2.614969253540039,2.669999999999987
2.49694561958313,3.734600067138672,2.9028666019439697,2.679999999999987
2.073974370956421,3.977410316467285,2.8103692531585693,2.6899999999999866
1.6491796970367432,3.9372472763061523,2.3246543407440186,2.6999999999999864
1.3008232116699219,3.7674694061279297,1.477195143699646,2.709999999999986
1.0729260444641113,3.5041580200195312,0.5810414552688599,2.719999999999986
0.9374347925186157,3.138050079345703,0.001644730567932129,2.7299999999999858
1.069922924041748,2.6719493865966797,-0.19062404334545135,2.7399999999999856
1.3260321617126465,2.1828174591064453,-0.08528642356395721,2.7499999999999853
1.514417052268982,1.6207504272460938,0.25581395626068115,2.759999999999985
1.6214025020599365,1.1797895431518555,0.7475906610488892,2.769999999999985
1.5188560485839844,0.6640357971191406,1.2886821031570435,2.7799999999999847
0.5942196846008301,0.4658498764038086,1.8031609058380127,2.7899999999999845
-0.8257929086685181,1.0296087265014648,2.260777711868286,2.7999999999999843
-2.179710865020752,1.9768600463867188,2.593336343765259,2.809999999999984
-3.015265464782715,2.9537792205810547,2.8320088386535645,2.819999999999984
-3.4370057582855225,3.769467353820801,2.9362826347351074,2.8299999999999836
-3.6569435596466064,4.369172096252441,2.919984817504883,2.8399999999999834
-3.745861768722534,4.642890930175781,2.6750574111938477,2.849999999999983
-3.6734790802001953,4.669639587402344,2.0993402004241943,2.859999999999983
-3.469198703765869,4.468629837036133,1.2684729099273682,2.869999999999983
-3.280024766921997,4.231443405151367,0.3084641695022583,2.8799999999999826
-3.4477367401123047,4.223517417907715,-0.6002117395401001,2.8899999999999824
-3.6427555084228516,4.205230712890625,-1.3241665363311768,2.899999999999982
-3.758434295654297,4.104360580444336,-1.853080153465271,2.909999999999982
-3.7663965225219727,3.970705032348633,-2.004211664199829,2.9199999999999817
-3.505401134490967,3.734490394592285,-2.025395631790161,2.9299999999999815
-3.1263978481292725,3.3162126541137695,-1.9431792497634888,2.9399999999999813
-2.823660373687744,2.8827285766601562,-1.8419852256774902,2.949999999999981
-2.5321309566497803,2.328396797180176,-1.7623231410980225,2.959999999999981
-2.433201313018799,1.8398933410644531,-1.9163076877593994,2.9699999999999807
-2.096954345703125,1.3816308975219727,-2.19146466255188,2.9799999999999804
-1.5096094608306885,0.8632183074951172,-2.4108057022094727,2.9899999999999802
-0.7206518054008484,0.6177434921264648,-2.5433671474456787,2.99999999999998
-0.0033212006092071533,0.5954866409301758,-2.4962856769561768,3.00999999999998
0.5823647975921631,0.7804317474365234,-2.2297592163085938,3.0199999999999796
1.1062248945236206,0.9435501098632812,-1.81302809715271,3.0299999999999794
1.6410186290740967,1.1211786270141602,-1.2901510000228882,3.039999999999979
2.113908529281616,1.236943244934082,-0.7186033725738525,3.049999999999979
2.5793938636779785,1.3434629440307617,-0.2006702423095703,3.0599999999999787
2.891545057296753,1.3687372207641602,0.24794244766235352,3.0699999999999785
3.1828360557556152,1.3432598114013672,0.5382077693939209,3.0799999999999783
3.1684296131134033,1.1227970123291016,0.7463030815124512,3.089999999999978
2.8855221271514893,0.8358392715454102,0.8119964599609375,3.099999999999978
2.3249337673187256,0.5031614303588867,0.6869196891784668,3.1099999999999777
1.6749647855758667,0.12413787841796875,0.39658451080322266,3.1199999999999775
1.1352903842926025,-0.2180166244506836,0.013972043991088867,3.1299999999999772
0.7141082286834717,-0.6242094039916992,-0.47673678398132324,3.139999999999977
0.3247668743133545,-0.9847583770751953,-0.8476643562316895,3.149999999999977
0.026878297328948975,-1.352358341217041,-1.2761855125427246,3.1599999999999766
-0.397295206785202,-1.8559679985046387,-1.738999605178833,3.1699999999999764
-0.7202590107917786,-2.1724491119384766,-2.1650004386901855,3.179999999999976
-1.0068315267562866,-2.514577865600586,-2.5956544876098633,3.189999999999976
-1.2859764099121094,-2.915449619293213,-2.972057342529297,3.1999999999999758
-1.5723698139190674,-3.2933220863342285,-3.3955605030059814,3.2099999999999755
-1.7543513774871826,-3.612001419067383,-3.752044439315796,3.2199999999999753
-1.9812195301055908,-3.947753429412842,-4.111516952514648,3.229999999999975
-2.2470357418060303,-4.171093463897705,-4.467353820800781,3.239999999999975
-2.529369354248047,-4.355996608734131,-4.76736307144165,3.2499999999999747
-2.825279712677002,-4.504459381103516,-5.074500560760498,3.2599999999999745
-3.1344151496887207,-4.5467448234558105,-5.32489538192749,3.2699999999999743
-3.3985416889190674,-4.480414390563965,-5.487730979919434,3.279999999999974
-3.6638615131378174,-4.334364414215088,-5.534174919128418,3.289999999999974
-3.8205838203430176,-4.199748516082764,-5.45433235168457,3.2999999999999736
-3.853865385055542,-4.02671480178833,-5.187812805175781,3.3099999999999734
-3.615912914276123,-3.911457061767578,-4.7746686935424805,3.319999999999973
-3.164055824279785,-3.7945656776428223,-4.405808448791504,3.329999999999973
-2.7329697608947754,-3.6837072372436523,-3.8963680267333984,3.3399999999999728
-2.445282459259033,-3.600903034210205,-3.293546676635742,3.3499999999999726
-2.246975898742676,-3.489180564880371,-2.692384958267212,3.3599999999999723
-2.3095157146453857,-3.3847808837890625,-2.130556583404541,3.369999999999972
-2.4937496185302734,-3.3548660278320312,-1.60996413230896,3.379999999999972
-2.7374765872955322,-3.3397793769836426,-1.1157162189483643,3.3899999999999717
-2.9954535961151123,-3.3707008361816406,-0.69525146484375,3.3999999999999715
-3.138821840286255,-3.3975281715393066,-0.3144865036010742,3.4099999999999713
-3.1921987533569336,-3.396479606628418,0.07735753059387207,3.419999999999971
-3.201601982116699,-3.3820114135742188,0.4161531925201416,3.429999999999971
-3.1963324546813965,-3.365997791290283,0.6853575706481934,3.4399999999999706
-3.1434829235076904,-3.3411269187927246,0.9305551052093506,3.4499999999999704
-3.096109390258789,-3.319190502166748,1.0633103847503662,3.45999999999997
-2.987302541732788,-3.335794448852539,1.1146588325500488,3.46999999999997
-2.804786205291748,-3.4120917320251465,1.0962841510772705,3.47999999999997
-2.538834810256958,-3.482999324798584,1.0076255798339844,3.4899999999999696
-2.2661423683166504,-3.5049386024475098,0.8622362613677979,3.4999999999999694
-1.9867531061172485,-3.5083208084106445,0.6874387264251709,3.509999999999969
-1.7075716257095337,-3.3992300033569336,0.5176432132720947,3.519999999999969
-1.3143657445907593,-3.076702117919922,0.3273756504058838,3.5299999999999687
-0.9687448740005493,-2.485433578491211,0.15825867652893066,3.5399999999999685
-0.4928225874900818,-1.587076187133789,-0.005320549011230469,3.5499999999999683
0.01878872513771057,-0.5108127593994141,-0.19083905220031738,3.559999999999968
0.5870705842971802,0.635807991027832,-0.4281768798828125,3.569999999999968
1.0849647521972656,1.8194999694824219,-0.6469264030456543,3.5799999999999677
1.5383089780807495,2.9927453994750977,-0.7819039821624756,3.5899999999999674
1.9441529512405396,4.268321990966797,-0.868690013885498,3.5999999999999672
2.364004611968994,5.304351806640625,-0.6911382675170898,3.609999999999967
2.7515501976013184,6.177471160888672,-0.18753886222839355,3.619999999999967
3.137774705886841,6.712746620178223,0.7029626369476318,3.6299999999999666
3.5190768241882324,6.8237762451171875,1.8937311172485352,3.6399999999999664
3.7154152393341064,6.158902168273926,3.1978085041046143,3.649999999999966
3.3887524604797363,5.0199995040893555,4.374845504760742,3.659999999999966
2.847407102584839,3.687307357788086,5.265203475952148,3.6699999999999657
2.2898001670837402,2.4048728942871094,5.9341535568237305,3.6799999999999655
1.7779011726379395,1.4593706130981445,6.437733173370361,3.6899999999999653
1.3007919788360596,0.8955059051513672,6.753411293029785,3.699999999999965
0.9159237742424011,0.6502008438110352,6.897398471832275,3.709999999999965
0.6985922455787659,0.7487173080444336,6.865108489990234,3.7199999999999647
0.6112746000289917,1.113448143005371,6.761966705322266,3.7299999999999645
0.5758897662162781,1.7602577209472656,6.463315486907959,3.7399999999999642
0.3490363359451294,2.702885627746582,6.013383388519287,3.749999999999964
-0.18608473241329193,3.9409446716308594,5.204422950744629,3.759999999999964
-1.079484224319458,5.144245147705078,4.050694942474365,3.7699999999999636
-1.8486530780792236,5.297080039978027,2.2976090908050537,3.7799999999999634
-2.6433355808258057,6.36640739440918,0.7276701927185059,3.789999999999963
-3.153395652770996,6.679904937744141,-0.659503698348999,3.799999999999963
-3.501455068588257,7.011562347412109,-1.6654126644134521,3.8099999999999627
-4.093123435974121,7.866558074951172,-2.1900336742401123,3.8199999999999625
-4.828686237335205,8.314495086669922,-2.333692789077759,3.8299999999999623
-5.557894706726074,8.262945175170898,-2.4909868240356445,3.839999999999962
-5.953524589538574,7.048229217529297,-2.9590933322906494,3.849999999999962
-5.62355375289917,4.5933332443237305,-3.430147647857666,3.8599999999999617
-4.562275409698486,2.0187292098999023,-3.5716991424560547,3.8699999999999615
-2.911966323852539,-0.09998893737792969,-3.408000946044922,3.8799999999999613
-0.9279378056526184,-1.8242506980895996,-3.137920379638672,3.889999999999961
0.6726800203323364,-3.3154520988464355,-3.0602455139160156,3.899999999999961
1.4954807758331299,-4.638458728790283,-3.216827869415283,3.9099999999999606
1.8973150253295898,-5.735513687133789,-3.5861639976501465,3.9199999999999604
1.8694112300872803,-6.582209587097168,-4.112494468688965,3.92999999999996
1.5620651245117188,-7.182936668395996,-4.486807346343994,3.93999999999996
1.2444674968719482,-7.604401588439941,-4.722902774810791,3.9499999999999598
1.0710784196853638,-7.85591983795166,-4.839329242706299,3.9599999999999596
0.90484619140625,-7.908571720123291,-4.842756748199463,3.9699999999999593
0.7526340484619141,-7.7789692878723145,-4.7082953453063965,3.979999999999959
0.41889798641204834,-7.328498840332031,-4.451737403869629,3.989999999999959
0.036343395709991455,-6.40472936630249,-3.960537910461426,3.9999999999999587
-0.5029453039169312,-5.156892776489258,-3.4190499782562256,4.009999999999959
-1.0281120538711548,-3.927741527557373,-2.8726658821105957,4.019999999999959
-1.6681489944458008,-2.354276180267334,-2.4483587741851807,4.0299999999999585
-2.432788372039795,-0.4756755828857422,-2.130431652069092,4.039999999999958
-3.307835340499878,1.5254220962524414,-1.9517285823822021,4.049999999999958
-4.090204238891602,3.3086442947387695,-1.634056568145752,4.059999999999958
-5.012503147125244,4.844542503356934,-0.7547155022621155,4.069999999999958
-5.800690174102783,6.134577751159668,0.3772634267807007,4.079999999999957
-6.288898944854736,6.848031997680664,1.324827790260315,4.089999999999957
-5.312535762786865,6.633995056152344,1.496280312538147,4.099999999999957
-3.368576765060425,5.436892509460449,0.9113569259643555,4.109999999999957
-1.4116517305374146,3.925922393798828,0.40448999404907227,4.119999999999957
0.12193441390991211,2.5494556427001953,-0.01086282730102539,4.129999999999956
1.243308663368225,1.2649402618408203,-0.3590317964553833,4.139999999999956
2.0513861179351807,0.20170974731445312,-0.5148518681526184,4.149999999999956
2.49491024017334,-0.4848947525024414,-0.7388663291931152,4.159999999999956
2.6854610443115234,-0.8478765487670898,-1.1868114471435547,4.1699999999999555
2.732572555541992,-1.009531021118164,-1.8047218322753906,4.179999999999955
2.7634153366088867,-1.0344781875610352,-2.4378116130828857,4.189999999999955
2.7188971042633057,-1.1043567657470703,-2.886164903640747,4.199999999999955
2.5802178382873535,-1.0658636093139648,-3.132244110107422,4.209999999999955
2.452333927154541,-1.1366004943847656,-3.0342142581939697,4.2199999999999545
2.377361297607422,-1.199233055114746,-2.593644618988037,4.229999999999954
2.2149481773376465,-1.299245834350586,-1.9865083694458008,4.239999999999954
2.0635790824890137,-1.4916887283325195,-1.2878150939941406,4.249999999999954
1.8463010787963867,-1.475311279296875,-0.6730810403823853,4.259999999999954
1.5458524227142334,-1.456110954284668,-0.31832355260849,4.269999999999953
1.1155567169189453,-1.496358871459961,-0.14945673942565918,4.279999999999953
0.41495710611343384,-1.3785228729248047,-0.12676522135734558,4.289999999999953
-0.10723936557769775,-1.2032890319824219,-0.17218944430351257,4.299999999999953
-0.4635434150695801,-1.0400543212890625,-0.19584651291370392,4.3099999999999525
-0.6945434808731079,-0.9580869674682617,-0.23458446562290192,4.319999999999952
-0.7949259281158447,-0.8232889175415039,-0.31067463755607605,4.329999999999952
-0.8356620073318481,-0.8627910614013672,-0.2567492723464966,4.339999999999952
-0.8136699199676514,-0.801325798034668,-0.23046937584877014,4.349999999999952
-0.857837438583374,-0.8039827346801758,-0.10898888111114502,4.3599999999999515
-0.9087255001068115,-0.7272701263427734,0.029665537178516388,4.369999999999951
-0.8473609685897827,-0.5904731750488281,0.08816549926996231,4.379999999999951
-0.6550745964050293,-0.4199810028076172,-0.03842135891318321,4.389999999999951
-0.46155333518981934,-0.34497737884521484,-0.19237849116325378,4.399999999999951
-0.16928231716156006,-0.20279216766357422,-0.4149624705314636,4.40999999999995
0.09685909748077393,-0.13701820373535156,-0.563180148601532,4.41999999999995
0.30529332160949707,0.022136688232421875,-0.644458532333374,4.42999999999995
0.5800874829292297,0.01627063751220703,-0.5895834565162659,4.43999999999995
0.8085756301879883,-0.0038042068481445312,-0.4631384611129761,4.4499999999999496
1.050612211227417,-0.06914806365966797,-0.2766885757446289,4.459999999999949
1.231928825378418,-0.11037445068359375,-0.09705609083175659,4.469999999999949
1.3383457660675049,-0.21118545532226562,0.08544483780860901,4.479999999999949
1.4157253503799438,-0.20647335052490234,0.18446408212184906,4.489999999999949
1.4045037031173706,-0.4215364456176758,0.31713974475860596,4.4999999999999485
1.4151108264923096,-0.6217365264892578,0.4256163239479065,4.509999999999948
1.388042688369751,-0.8285923004150391,0.4806250035762787,4.519999999999948
1.2396364212036133,-0.963221549987793,0.6467441916465759,4.529999999999948
0.9339597225189209,-1.0616340637207031,0.8471494317054749,4.539999999999948
0.7011250257492065,-1.2816400527954102,1.0459411144256592,4.549999999999947
0.5462430715560913,-1.4341373443603516,1.1497373580932617,4.559999999999947
0.29026973247528076,-1.5024003982543945,1.3382072448730469,4.569999999999947
0.07477927207946777,-1.4936046600341797,1.4874802827835083,4.579999999999947
-0.1407867670059204,-1.2308349609375,1.6100245714187622,4.589999999999947
-0.26527857780456543,-1.0921249389648438,1.6079537868499756,4.599999999999946
-0.20465469360351562,-0.9599828720092773,1.6270570755004883,4.609999999999946
-0.1430269479751587,-0.6549882888793945,1.672109842300415,4.619999999999946
-0.09274053573608398,-0.22760963439941406,1.7238465547561646,4.629999999999946
0.03139197826385498,0.24292564392089844,1.6838650703430176,4.6399999999999455
-0.03779780864715576,0.5697383880615234,1.6645792722702026,4.649999999999945
0.416705846786499,0.7791891098022461,1.653886318206787,4.659999999999945
0.8368328809738159,0.8139495849609375,1.599008560180664,4.669999999999945
1.3323025703430176,0.8558530807495117,1.4662449359893799,4.679999999999945
1.828486442565918,0.7923603057861328,1.3725175857543945,4.689999999999944
2.21014404296875,0.8338661193847656,1.3079872131347656,4.699999999999944
2.5941104888916016,0.8844423294067383,1.3084022998809814,4.709999999999944
2.8129358291625977,1.1233434677124023,1.4357463121414185,4.719999999999944
3.2614502906799316,1.3900032043457031,1.3038179874420166,4.729999999999944
3.568840503692627,1.3112859725952148,1.3235492706298828,4.739999999999943
3.6560604572296143,1.3322458267211914,1.4204788208007812,4.749999999999943
3.6043596267700195,1.4192132949829102,1.5087852478027344,4.759999999999943
3.5428719520568848,1.5195198059082031,1.598795771598816,4.769999999999943
3.3779702186584473,1.7597951889038086,1.4421545267105103,4.7799999999999425
3.082582950592041,1.8886423110961914,1.1691197156906128,4.789999999999942
2.5028507709503174,1.956294059753418,1.2738240957260132,4.799999999999942
2.753746509552002,2.2018299102783203,0.6254599094390869,4.809999999999942
2.892690420150757,2.225736618041992,0.21141433715820312,4.819999999999942
2.881469249725342,2.238697052001953,0.01708221435546875,4.8299999999999415
2.877995014190674,2.3555383682250977,-0.01949673891067505,4.839999999999941
2.949141263961792,2.5236129760742188,-0.007691621780395508,4.849999999999941
2.9486823081970215,2.7118091583251953,-0.018405795097351074,4.859999999999941
3.068284034729004,2.6094322204589844,0.11413615942001343,4.869999999999941
3.2024662494659424,3.280729293823242,-0.5182297825813293,4.87999999999994
3.2887678146362305,3.6126623153686523,-1.0080583095550537,4.88999999999994
3.432783603668213,3.6774587631225586,-1.1270384788513184,4.89999999999994
3.6777944564819336,3.772092819213867,-1.0003385543823242,4.90999999999994
3.916729688644409,3.7987518310546875,-0.5517908334732056,4.9199999999999395
4.049833297729492,3.858242988586426,0.07742959260940552,4.929999999999939
4.060860633850098,4.163576126098633,0.7084300518035889,4.939999999999939
3.8766186237335205,4.533019065856934,1.353452444076538,4.949999999999939
3.5700631141662598,4.866341590881348,1.8587901592254639,4.959999999999939
1.8626537322998047,5.055678367614746,2.3048715591430664,4.9699999999999385
-0.5181354284286499,4.964328765869141,2.7238118648529053,4.979999999999938
-2.032559394836426,4.363151550292969,2.992460012435913,4.989999999999938
-2.955502986907959,3.4781036376953125,3.0266482830047607,4.999999999999938
-3.4939136505126953,2.6473875045776367,2.9774653911590576,5.009999999999938
-3.940406560897827,2.0461864471435547,2.809441566467285,5.019999999999937
-4.312273025512695,1.6676969528198242,2.472637414932251,5.029999999999937
-4.311366081237793,1.5815544128417969,2.137418508529663,5.039999999999937
-4.297857761383057,1.4554576873779297,1.8266921043395996,5.049999999999937
-4.187012672424316,1.2897224426269531,1.527942180633545,5.0599999999999365
-4.028224945068359,1.1394824981689453,1.2865785360336304,5.069999999999936
-3.7447290420532227,0.9017171859741211,1.0671354532241821,5.079999999999936
-3.420559883117676,0.6478166580200195,0.7556904554367065,5.089999999999936
-3.090090751647949,0.38184261322021484,0.33668506145477295,5.099999999999936
-2.8046579360961914,0.1939067840576172,-0.21138715744018555,5.1099999999999355
-2.5941319465637207,0.15021991729736328,-0.8254920840263367,5.119999999999935
-2.3518664836883545,0.2692728042602539,-1.335990309715271,5.129999999999935
-2.1792352199554443,0.3114662170410156,-1.8419054746627808,5.139999999999935
-2.0770015716552734,0.33180809020996094,-2.344780683517456,5.149999999999935
-1.978881597518921,0.3256845474243164,-2.7512316703796387,5.159999999999934
-1.8618359565734863,0.39136409759521484,-3.14475679397583,5.169999999999934
-1.6522129774093628,0.4357271194458008,-3.452791690826416,5.179999999999934
-1.3597787618637085,0.48779964447021484,-3.6171488761901855,5.189999999999934
-0.9297260642051697,0.5241127014160156,-3.6159920692443848,5.199999999999934
-0.3911832571029663,0.5690164566040039,-3.341012954711914,5.209999999999933
0.03033125400543213,0.622807502746582,-2.8722915649414062,5.219999999999933
0.4901960492134094,0.7334518432617188,-2.233821392059326,5.229999999999933
0.915155291557312,0.8722877502441406,-1.4633617401123047,5.239999999999933
1.3380119800567627,1.1515779495239258,-0.4974939823150635,5.2499999999999325
1.6241066455841064,1.4895267486572266,0.5530569553375244,5.259999999999932
1.785272479057312,1.653426170349121,1.566688060760498,5.269999999999932
1.5310791730880737,2.015645980834961,2.3906686305999756,5.279999999999932
0.8690887689590454,2.154449462890625,2.732536554336548,5.289999999999932
0.22493402659893036,2.1488494873046875,2.5137088298797607,5.299999999999931
-0.2297155112028122,1.8939323425292969,1.917931079864502,5.309999999999931
-0.5431909561157227,1.4785289764404297,1.1482317447662354,5.319999999999931
-0.6679366827011108,1.065394401550293,0.42688465118408203,5.329999999999931
-0.7623793482780457,0.5658102035522461,-0.19802474975585938,5.339999999999931
-0.788417398929596,0.20905685424804688,-0.7211260795593262,5.34999999999993
-0.8707894086837769,-0.14641666412353516,-1.1301119327545166,5.35999999999993
-0.9162518978118896,-0.5485458374023438,-1.4968712329864502,5.36999999999993
-1.015516996383667,-0.9493808746337891,-1.8673588037490845,5.37999999999993
-1.0606426000595093,-1.3893013000488281,-2.201888084411621,5.3899999999999295
-1.1040480136871338,-1.7748117446899414,-2.427093267440796,5.399999999999929
-1.2243891954421997,-2.2110157012939453,-2.632209300994873,5.409999999999929
-1.3110136985778809,-2.5039896965026855,-2.8681271076202393,5.419999999999929
-1.4641989469528198,-2.7804155349731445,-3.1761789321899414,5.429999999999929
-1.5999399423599243,-3.020998954772949,-3.4947164058685303,5.4399999999999284
-1.830636978149414,-3.223109722137451,-3.783890962600708,5.449999999999928
-2.0795764923095703,-3.37697696685791,-4.087498664855957,5.459999999999928
-2.3518588542938232,-3.460907459259033,-4.332001209259033,5.469999999999928
-2.6072235107421875,-3.429440975189209,-4.498604774475098,5.479999999999928
-2.8797359466552734,-3.2779645919799805,-4.546631813049316,5.489999999999927
-3.1174514293670654,-3.0593419075012207,-4.487830638885498,5.499999999999927
-3.2635574340820312,-2.883777618408203,-4.3769378662109375,5.509999999999927
-3.3518223762512207,-2.729837417602539,-4.194522380828857,5.519999999999927
-3.401557683944702,-2.6431994438171387,-3.9376111030578613,5.5299999999999265
-3.391150951385498,-2.5666189193725586,-3.6105663776397705,5.539999999999926
-3.222022771835327,-2.562592029571533,-3.2127766609191895,5.549999999999926
-2.950972557067871,-2.60756778717041,-2.7745018005371094,5.559999999999926
-2.6492912769317627,-2.7163305282592773,-2.3043205738067627,5.569999999999926
-2.4195635318756104,-2.922783374786377,-1.839447259902954,5.5799999999999255
-2.1614441871643066,-3.1674399375915527,-1.3454632759094238,5.589999999999925
-1.9421617984771729,-3.522319793701172,-0.893359899520874,5.599999999999925
-1.769030213356018,-3.9445486068725586,-0.4727804660797119,5.609999999999925
-1.5917003154754639,-4.372007369995117,-0.09050393104553223,5.619999999999925
-1.3931576013565063,-4.804745197296143,0.2417600154876709,5.629999999999924
-1.2590720653533936,-5.242753028869629,0.5241711139678955,5.639999999999924
-1.1694529056549072,-5.564006805419922,0.7495822906494141,5.649999999999924
-1.2385865449905396,-5.735098838806152,0.9707224369049072,5.659999999999924
-1.3653268814086914,-5.961581230163574,1.2039766311645508,5.6699999999999235
-1.5179115533828735,-6.317235469818115,1.367717981338501,5.679999999999923
-1.6311402320861816,-6.557764530181885,1.4762077331542969,5.689999999999923
-1.7905155420303345,-6.699857711791992,1.5510718822479248,5.699999999999923
-2.00968074798584,-6.817588806152344,1.678626537322998,5.709999999999923
-2.165656089782715,-6.827103614807129,1.8064541816711426,5.7199999999999225
-2.2386035919189453,-6.642144203186035,1.8605430126190186,5.729999999999922
-2.1830222606658936,-6.1763458251953125,1.8765623569488525,5.739999999999922
-2.1332075595855713,-5.488946914672852,1.731278419494629,5.749999999999922
-1.7667948007583618,-4.366331577301025,1.432352066040039,5.759999999999922
-1.2120094299316406,-2.8317618370056152,1.0560147762298584,5.769999999999921
-0.5601879358291626,-0.9850072860717773,0.5916330814361572,5.779999999999921
-0.0042657554149627686,1.1291208267211914,0.07339620590209961,5.789999999999921
0.5970055460929871,3.4775781631469727,-0.2977113723754883,5.799999999999921
1.1022361516952515,5.7950897216796875,-0.4741154909133911,5.809999999999921
1.556898832321167,8.323345184326172,-0.34600746631622314,5.81999999999992
2.0594613552093506,10.865620613098145,0.2605292797088623,5.82999999999992
2.598524570465088,13.224969863891602,1.6485869884490967,5.83999999999992
3.343153476715088,15.02254867553711,3.6842844486236572,5.84999999999992
4.374757766723633,15.736221313476562,5.721100330352783,5.8599999999999195
5.53334903717041,14.56264877319336,7.377209663391113,5.869999999999919
6.426054954528809,11.898289680480957,8.524280548095703,5.879999999999919
6.372004508972168,8.938389778137207,8.872442245483398,5.889999999999919
5.5317864418029785,6.343775749206543,8.696413040161133,5.899999999999919
4.278857707977295,4.42524528503418,7.957079887390137,5.909999999999918
2.9952471256256104,2.979029655456543,6.816461563110352,5.919999999999918
1.6912522315979004,1.858591079711914,5.5789666175842285,5.929999999999918
0.47445380687713623,0.8428411483764648,4.718231201171875,5.939999999999918
-0.5265031456947327,0.13842010498046875,4.006295204162598,5.949999999999918
-1.451207160949707,-0.4238414764404297,2.9671835899353027,5.959999999999917
-2.4005749225616455,-0.8022651672363281,1.3470592498779297,5.969999999999917
-3.393233060836792,-0.868708610534668,-0.8197230100631714,5.979999999999917
-4.040920257568359,-0.8173685073852539,-3.1876602172851562,5.989999999999917
-4.234423637390137,-0.9443902969360352,-5.454372406005859,5.9999999999999165
-4.204188823699951,-1.3369865417480469,-7.152293682098389,6.009999999999916
-4.458628177642822,-1.0583763122558594,-8.22513484954834,6.019999999999916
-4.750406265258789,-0.5499725341796875,-8.514842987060547,6.029999999999916
-5.432780742645264,0.22841548919677734,-7.719520568847656,6.039999999999916
-6.8144450187683105,1.3914365768432617,-5.754270553588867,6.0499999999999154
-8.421626091003418,2.1193904876708984,-3.077002763748169,6.059999999999915
-9.499430656433105,1.804830551147461,-0.35673511028289795,6.069999999999915
-9.214126586914062,1.1833505630493164,1.7225911617279053,6.079999999999915
-7.205091953277588,0.6872892379760742,2.6252386569976807,6.089999999999915
-4.240777492523193,0.35823822021484375,2.157931327819824,6.099999999999914
-0.4559818506240845,-0.2287302017211914,0.11464321613311768,6.109999999999914
2.316689968109131,-1.0566625595092773,-2.8483738899230957,6.119999999999914
3.772892713546753,-2.0679664611816406,-5.786233901977539,6.129999999999914
4.64443302154541,-2.7109766006469727,-7.869906902313232,6.1399999999999135
4.99796724319458,-3.014014720916748,-8.948700904846191,6.149999999999913
5.087416648864746,-2.8933281898498535,-9.299542427062988,6.159999999999913
5.0560503005981445,-2.42556095123291,-9.230088233947754,6.169999999999913
5.118465900421143,-1.9217586517333984,-8.809946060180664,6.179999999999913
4.880400657653809,-1.4992666244506836,-7.800468921661377,6.1899999999999125
4.53068208694458,-1.163254737854004,-6.056390285491943,6.199999999999912
4.1833343505859375,-0.5985832214355469,-3.8811514377593994,6.209999999999912
3.830108404159546,0.012075424194335938,-1.4600690603256226,6.219999999999912
3.233052968978882,0.6080350875854492,1.1614506244659424,6.229999999999912
2.0929667949676514,0.7937965393066406,3.501248359680176,6.239999999999911
0.6991152167320251,1.1592321395874023,5.549849033355713,6.249999999999911
-0.8672596216201782,1.2938451766967773,7.226853370666504,6.259999999999911
-2.163799524307251,1.3835992813110352,7.614497661590576,6.269999999999911
-2.9379568099975586,1.2591180801391602,6.287261962890625,6.2799999999999105
-3.1146910190582275,0.9721965789794922,3.598989486694336,6.28999999999991
-2.8387627601623535,0.5078363418579102,0.8459845781326294,6.29999999999991
-2.2087297439575195,0.07303619384765625,-1.3424726724624634,6.30999999999991
-1.379324197769165,-0.2334613800048828,-2.9287242889404297,6.31999999999991
-0.47842109203338623,-0.4543905258178711,-4.117722511291504,6.3299999999999095
0.25387224555015564,-0.6805019378662109,-4.840232849121094,6.339999999999909
0.7116066217422485,-0.8257560729980469,-5.113617897033691,6.349999999999909
0.8885030150413513,-0.8641748428344727,-4.958863735198975,6.359999999999909
0.7753007411956787,-0.918156623840332,-4.472575664520264,6.369999999999909
0.4916418790817261,-0.9114961624145508,-3.8729190826416016,6.379999999999908
0.1593448519706726,-0.9402103424072266,-3.2463221549987793,6.389999999999908
-0.10937422513961792,-0.8993568420410156,-2.6071219444274902,6.399999999999908
-0.26896825432777405,-0.9017267227172852,-1.8209834098815918,6.409999999999908
-0.35260316729545593,-0.9810400009155273,-1.0694321393966675,6.419999999999908
-0.410245805978775,-1.0609016418457031,-0.35030871629714966,6.429999999999907
-0.46551713347435,-1.086430549621582,0.30197298526763916,6.439999999999907
-0.5422015190124512,-1.2633142471313477,0.8783035278320312,6.449999999999907
-0.5300666093826294,-1.4787778854370117,1.1552883386611938,6.459999999999907
-0.5270606279373169,-1.6774206161499023,1.0373470783233643,6.4699999999999065
-0.6123183369636536,-1.7130374908447266,0.6961960792541504,6.479999999999906
-0.6568378806114197,-1.6381397247314453,0.09783560037612915,6.489999999999906
-0.5939116477966309,-1.5315799713134766,-0.6045053005218506,6.499999999999906
-0.6678544282913208,-1.4196958541870117,-0.7778410911560059,6.509999999999906
-0.594204306602478,-1.3576068878173828,-0.9624661803245544,6.519999999999905
-0.47355788946151733,-1.2091331481933594,-1.0130813121795654,6.529999999999905
-0.4709048867225647,-1.1060590744018555,-1.0233774185180664,6.539999999999905
-0.45715510845184326,-0.9074182510375977,-0.9911547899246216,6.549999999999905
-0.5450833439826965,-0.7592811584472656,-0.8791778087615967,6.559999999999905
-0.47413569688796997,-0.6472558975219727,-0.7561889886856079,6.569999999999904
-0.3428800106048584,-0.5640907287597656,-0.6030803322792053,6.579999999999904
-0.3140871524810791,-0.4786062240600586,-0.5015162825584412,6.589999999999904
-0.17236429452896118,-0.35962772369384766,-0.39712226390838623,6.599999999999904
0.09691303968429565,-0.24773693084716797,-0.24769435822963715,6.6099999999999035
0.2593810558319092,-0.2934913635253906,-0.03966784477233887,6.619999999999903
0.39658910036087036,-0.36272716522216797,0.16629984974861145,6.629999999999903
0.6475142240524292,-0.32623291015625,0.31899112462997437,6.639999999999903
0.7444903254508972,-0.4590730667114258,0.4272603392601013,6.649999999999903
0.7784546613693237,-0.45498085021972656,0.47637850046157837,6.659999999999902
0.7948312759399414,-0.3978290557861328,0.4758068323135376,6.669999999999902
0.702646017074585,-0.40248584747314453,0.4928590655326843,6.679999999999902
0.7102489471435547,-0.30866050720214844,0.5162282586097717,6.689999999999902
0.6310999393463135,-0.24558258056640625,0.5753545165061951,6.699999999999902
0.5994683504104614,-0.2418661117553711,0.7399501204490662,6.709999999999901
0.5126432776451111,-0.30695438385009766,0.9242996573448181,6.719999999999901
0.45933258533477783,-0.35701847076416016,1.1140172481536865,6.729999999999901
0.3655098080635071,-0.4518089294433594,1.3348164558410645,6.739999999999901
0.21709316968917847,-0.6366634368896484,1.4492813348770142,6.7499999999999005
-0.050878167152404785,-0.7011098861694336,1.4850643873214722,6.7599999999999
-0.34549057483673096,-0.5329933166503906,1.5274032354354858,6.7699999999999
-0.5064678192138672,-0.6299829483032227,1.527584433555603,6.7799999999999
-0.5628808736801147,-0.6116132736206055,1.4016871452331543,6.7899999999999
-0.6084887981414795,-0.5211181640625,1.3199594020843506,6.7999999999998995
-0.5459626913070679,-0.42084503173828125,1.146565318107605,6.809999999999899
-0.37825024127960205,-0.19850444793701172,0.8457447290420532,6.819999999999899
-0.015013456344604492,-0.11495018005371094,0.6666159629821777,6.829999999999899
0.5094566345214844,0.1264171600341797,0.7175594568252563,6.839999999999899
1.0749833583831787,0.19056320190429688,1.0130565166473389,6.849999999999898
1.8344552516937256,0.19721126556396484,1.3159639835357666,6.859999999999898
2.3968515396118164,0.3398904800415039,1.5807485580444336,6.869999999999898
2.79909086227417,0.5989675521850586,1.6927056312561035,6.879999999999898
3.2671148777008057,0.9739847183227539,1.6451783180236816,6.8899999999998975
3.744694232940674,1.3258800506591797,1.5565630197525024,6.899999999999897
4.142707824707031,1.5302362442016602,1.3543517589569092,6.909999999999897
4.5301833152771,1.8214645385742188,0.9053075909614563,6.919999999999897
4.703770160675049,2.0511159896850586,0.17557629942893982,6.929999999999897
4.839001178741455,1.9180850982666016,-0.3424991965293884,6.9399999999998965
5.0903191566467285,1.8916692733764648,-0.7128310203552246,6.949999999999896
5.270124435424805,1.9432363510131836,-0.8894054293632507,6.959999999999896
5.406146049499512,2.0250701904296875,-0.7323950529098511,6.969999999999896
5.540045261383057,2.244919776916504,-0.3499007225036621,6.979999999999896
5.380570888519287,2.657712936401367,0.10252881050109863,6.989999999999895
5.126489162445068,3.2608156204223633,0.261234849691391,6.999999999999895
4.741415500640869,3.9390859603881836,0.20723533630371094,7.009999999999895
4.270015716552734,4.500962257385254,0.004363209009170532,7.019999999999895
3.8838915824890137,4.920172691345215,-0.20241454243659973,7.0299999999998946
3.530270576477051,5.2112932205200195,-0.12426558136940002,7.039999999999894
3.2761693000793457,5.374619483947754,0.29836180806159973,7.049999999999894
3.0503954887390137,5.432098388671875,1.149669885635376,7.059999999999894
3.009672164916992,5.33879280090332,2.2696774005889893,7.069999999999894
2.5972321033477783,5.197914123535156,3.3401424884796143,7.0799999999998935
0.6559321880340576,5.061806678771973,4.115710258483887,7.089999999999893
-0.9733716249465942,4.82987117767334,4.354795932769775,7.099999999999893
-2.1143798828125,4.272942543029785,4.207984924316406,7.109999999999893
-2.850179433822632,3.595277786254883,3.8723011016845703,7.119999999999893
-3.404587507247925,3.0057640075683594,3.489124059677124,7.129999999999892
-3.819263458251953,2.5886783599853516,3.072305202484131,7.139999999999892
-4.0688018798828125,2.375462532043457,2.691556215286255,7.149999999999892
-4.273855209350586,2.25626277923584,2.299445867538452,7.159999999999892
-4.2893195152282715,2.0996780395507812,1.9084303379058838,7.169999999999892
-4.14700174331665,1.8747367858886719,1.4709675312042236,7.179999999999891
-3.8477232456207275,1.5981550216674805,0.946395754814148,7.189999999999891
-3.448085069656372,1.346160888671875,0.38752448558807373,7.199999999999891
-3.09914231300354,1.1419925689697266,-0.17178654670715332,7.209999999999891
-2.8141043186187744,0.8436517715454102,-0.7884957194328308,7.2199999999998905
-2.431800603866577,0.569976806640625,-1.317175269126892,7.22999999999989
-2.243176221847534,0.34661388397216797,-1.743118166923523,7.23999999999989
-2.0555031299591064,0.20182228088378906,-2.2344419956207275,7.24999999999989
-1.9729504585266113,0.16172313690185547,-2.6732752323150635,7.25999999999989
-1.9710674285888672,0.1689434051513672,-3.124490737915039,7.269999999999889
-1.9460315704345703,0.22620868682861328,-3.454824447631836,7.279999999999889
-1.824357271194458,0.34126853942871094,-3.7634456157684326,7.289999999999889
-1.2158048152923584,0.42174243927001953,-3.9083335399627686,7.299999999999889
-0.4794405698776245,0.5260944366455078,-3.8503851890563965,7.309999999999889
0.11285734176635742,0.7268905639648438,-3.513735771179199,7.319999999999888
0.6758708953857422,0.967106819152832,-2.815825939178467,7.329999999999888
1.241618037223816,1.0577316284179688,-1.8053630590438843,7.339999999999888
1.798242211341858,1.2975053787231445,-0.5656919479370117,7.349999999999888
2.4287867546081543,1.6352272033691406,0.9073431491851807,7.3599999999998875
3.1750104427337646,2.079080581665039,2.4942617416381836,7.369999999999887
3.8382110595703125,2.5052061080932617,3.9183356761932373,7.379999999999887
4.12127685546875,2.947603225708008,4.847168922424316,7.389999999999887
3.7924447059631348,3.2045040130615234,4.641393184661865,7.399999999999887
2.8643710613250732,2.907991409301758,3.613734245300293,7.4099999999998865
1.6281055212020874,2.398611068725586,2.3799750804901123,7.419999999999886
0.8431835770606995,1.9042301177978516,1.2084858417510986,7.429999999999886
0.4869804382324219,1.3104629516601562,0.15010929107666016,7.439999999999886
0.293179452419281,0.7754249572753906,-0.6814188957214355,7.449999999999886
0.19635044038295746,0.2608175277709961,-1.3250401020050049,7.459999999999885
-0.03607891499996185,-0.36725902557373047,-1.853033185005188,7.469999999999885
-0.2290799468755722,-0.8837966918945312,-2.287557601928711,7.479999999999885
-0.38924193382263184,-1.3939924240112305,-2.665205478668213,7.489999999999885
-0.6813791990280151,-1.9383325576782227,-3.024880886077881,7.4999999999998845
-0.9881336688995361,-2.375429153442383,-3.4080238342285156,7.509999999999884
-1.3195585012435913,-2.803234577178955,-3.769728422164917,7.519999999999884
-1.683658480644226,-3.1974525451660156,-4.14919900894165,7.529999999999884
-2.0575315952301025,-3.560166358947754,-4.532832622528076,7.539999999999884
-2.459195137023926,-3.8719735145568848,-4.816046237945557,7.5499999999998835
-2.8659071922302246,-4.082458972930908,-5.049703121185303,7.559999999999883
-3.319552421569824,-4.256101131439209,-5.193583965301514,7.569999999999883
-3.7109122276306152,-4.361691474914551,-5.260061264038086,7.579999999999883
-4.074217796325684,-4.360975742340088,-5.179975509643555,7.589999999999883
-4.443297863006592,-4.246924877166748,-5.051441669464111,7.599999999999882
-4.7845611572265625,-4.120294094085693,-4.809474468231201,7.609999999999882
-5.081005573272705,-3.962343215942383,-4.405517101287842,7.619999999999882
-5.279706954956055,-3.747255325317383,-3.958315849304199,7.629999999999882
-5.251213073730469,-3.5498123168945312,-3.41164493560791,7.6399999999998816
-4.88933801651001,-3.3706088066101074,-2.867227554321289,7.649999999999881
-4.268953800201416,-3.2317843437194824,-2.390855550765991,7.659999999999881
-3.6401467323303223,-3.1483020782470703,-1.8975305557250977,7.669999999999881
-3.1601099967956543,-3.168501853942871,-1.4148645401000977,7.679999999999881
-2.627474784851074,-3.280735969543457,-0.9683101177215576,7.6899999999998805
-2.1736721992492676,-3.458836078643799,-0.6195132732391357,7.69999999999988
-1.7699679136276245,-3.726640224456787,-0.43525028228759766,7.70999999999988
-1.457135796546936,-4.031176567077637,-0.379901647567749,7.71999999999988
-1.2252141237258911,-4.405607223510742,-0.37010622024536133,7.72999999999988
-0.9994316101074219,-4.739602565765381,-0.37757229804992676,7.739999999999879
-0.840877890586853,-5.078463554382324,-0.3786938190460205,7.749999999999879
-0.7509982585906982,-5.331169128417969,-0.3665139675140381,7.759999999999879
-0.7128833532333374,-5.50484561920166,-0.307628870010376,7.769999999999879
-0.8649495840072632,-5.68779993057251,-0.18563508987426758,7.779999999999879
-0.9961181282997131,-5.913252830505371,-0.024738550186157227,7.789999999999878
-1.216264247894287,-6.087587356567383,0.18906426429748535,7.799999999999878
-1.41976797580719,-6.188842296600342,0.3592793941497803,7.809999999999878
-1.5703290700912476,-6.154522895812988,0.5666913986206055,7.819999999999878
-1.6770755052566528,-5.883909225463867,0.7484090328216553,7.8299999999998775
-1.6058028936386108,-5.338573932647705,0.8009841442108154,7.839999999999877
-1.5048972368240356,-4.499177932739258,0.7715146541595459,7.849999999999877
-1.225937008857727,-3.391784191131592,0.6829309463500977,7.859999999999877
-0.6866239309310913,-1.9610648155212402,0.5602614879608154,7.869999999999877
-0.03826014697551727,-0.18271636962890625,0.4397087097167969,7.879999999999876
0.5179378986358643,1.905350685119629,0.42366647720336914,7.889999999999876
0.9642139673233032,4.095464706420898,0.6158723831176758,7.899999999999876
1.3753055334091187,6.813702583312988,0.9857640266418457,7.909999999999876
1.7133598327636719,9.806100845336914,1.8456802368164062,7.919999999999876
2.102433681488037,12.784850120544434,3.2826569080352783,7.929999999999875
2.5065717697143555,14.734971046447754,5.087410926818848,7.939999999999875
3.4024710655212402,15.270832061767578,7.284724235534668,7.949999999999875
4.619030952453613,13.878305435180664,9.45832633972168,7.959999999999875
5.596857070922852,9.848737716674805,10.515951156616211,7.9699999999998745
5.989120006561279,5.5523681640625,10.375448226928711,7.979999999999874
5.882171630859375,2.486342430114746,9.515162467956543,7.989999999999874
