AccX,AccY,AccZ,SampleRate
-7.727153778076172,0.6213588714599609,-1.9968124628067017,0
-8.275311470031738,-1.1773509979248047,-0.3487311601638794,0.01
-7.88535213470459,-2.7371668815612793,1.0734360218048096,0.02
-6.923321723937988,-3.8338913917541504,1.9834630489349365,0.03
-5.506560802459717,-4.567376136779785,2.370431661605835,0.04
-3.6556906700134277,-4.713162899017334,2.0572643280029297,0.05
-1.911853313446045,-4.347211837768555,0.7929366827011108,0.060000000000000005
-0.1284148395061493,-3.7912726402282715,-1.067476749420166,0.07
0.8365033864974976,-3.2497730255126953,-2.9007692337036133,0.08
1.2638731002807617,-2.9176111221313477,-4.366433143615723,0.09
1.277811050415039,-2.6765518188476562,-5.4158220291137695,0.09999999999999999
1.2223358154296875,-2.6383347511291504,-6.000174045562744,0.10999999999999999
1.0188987255096436,-2.417534351348877,-6.213007926940918,0.11999999999999998
0.758222758769989,-2.028818130493164,-6.0380353927612305,0.12999999999999998
0.41902780532836914,-1.6257514953613281,-5.690466403961182,0.13999999999999999
0.19391769170761108,-1.2374258041381836,-5.232552528381348,0.15
-0.16939294338226318,-0.49842071533203125,-4.536198139190674,0.16
-0.6174954175949097,0.32724857330322266,-3.637789249420166,0.17
-1.2213692665100098,1.3701391220092773,-2.279958486557007,0.18000000000000002
-1.88330078125,2.3152694702148438,0.4907456636428833,0.19000000000000003
-2.5339882373809814,3.220639228820801,4.027344703674316,0.20000000000000004
-2.8730039596557617,3.9106855392456055,5.708284854888916,0.21000000000000005
-2.4865610599517822,3.93654727935791,4.770849227905273,0.22000000000000006
-1.9492324590682983,3.304905891418457,2.678643226623535,0.23000000000000007
-1.2574933767318726,2.2878198623657227,0.5447114109992981,0.24000000000000007
-0.27702927589416504,1.2356691360473633,-1.2005999088287354,0.25000000000000006
0.4904003143310547,0.4358692169189453,-2.5579333305358887,0.26000000000000006
1.0528069734573364,-0.13566017150878906,-3.451594352722168,0.2700000000000001
1.4040664434432983,-0.5939874649047852,-3.7584228515625,0.2800000000000001
1.7128071784973145,-0.9919605255126953,-3.484865188598633,0.2900000000000001
2.081490993499756,-1.190974235534668,-2.80106782913208,0.3000000000000001
2.4122934341430664,-1.3179664611816406,-1.7704185247421265,0.3100000000000001
2.5636115074157715,-1.490208625793457,-0.8413218259811401,0.3200000000000001
1.8874993324279785,-1.6240711212158203,-0.3366966247558594,0.3300000000000001
0.936365008354187,-1.7627086639404297,-0.24161005020141602,0.34000000000000014
0.0020904541015625,-1.7266883850097656,-0.4107779264450073,0.35000000000000014
-0.6273746490478516,-1.719228744506836,-0.5969473123550415,0.36000000000000015
-1.1133155822753906,-1.742405891418457,-0.7924230098724365,0.37000000000000016
-1.4087119102478027,-1.673996925354004,-1.0060932636260986,0.38000000000000017
-1.6202155351638794,-1.6981096267700195,-1.1314927339553833,0.3900000000000002
-1.8596763610839844,-1.7715654373168945,-1.1525108814239502,0.4000000000000002
-2.0529253482818604,-1.7843523025512695,-1.102784276008606,0.4100000000000002
-2.207350730895996,-1.8442106246948242,-0.9792928695678711,0.4200000000000002
-2.3498356342315674,-1.9392127990722656,-0.7955065965652466,0.4300000000000002
-2.3780388832092285,-2.019162178039551,-0.5958962440490723,0.4400000000000002
-2.177802085876465,-2.050642967224121,-0.4851134121417999,0.45000000000000023
-1.9675631523132324,-1.978766918182373,-0.44625324010849,0.46000000000000024
-1.6855775117874146,-1.978240966796875,-0.43398571014404297,0.47000000000000025
-1.2676832675933838,-1.9055347442626953,-0.4320429563522339,0.48000000000000026
-0.8074723482131958,-1.779874324798584,-0.3567090928554535,0.49000000000000027
-0.30267035961151123,-1.58697509765625,-0.2510385811328888,0.5000000000000002
0.21117186546325684,-1.1833915710449219,-0.18657395243644714,0.5100000000000002
0.6267529129981995,-0.7964696884155273,-0.07665091753005981,0.5200000000000002
0.8941067457199097,-0.37830638885498047,-0.014006465673446655,0.5300000000000002
1.1113197803497314,-0.029334068298339844,0.004275798797607422,0.5400000000000003
1.2496094703674316,0.20273208618164062,-0.03365054726600647,0.5500000000000003
1.2488877773284912,0.3012809753417969,-0.14232566952705383,0.5600000000000003
1.2356246709823608,0.38120460510253906,-0.3341687321662903,0.5700000000000003
1.0319700241088867,0.3180665969848633,-0.389289915561676,0.5800000000000003
0.809598982334137,0.20040416717529297,-0.4107362926006317,0.5900000000000003
0.7283264398574829,0.028230667114257812,-0.36255404353141785,0.6000000000000003
0.6635960340499878,-0.12665939331054688,-0.2328301966190338,0.6100000000000003
0.6825087070465088,-0.3192434310913086,-0.08608576655387878,0.6200000000000003
0.7495096921920776,-0.5948219299316406,0.08487182855606079,0.6300000000000003
0.8598728179931641,-0.7189121246337891,0.3400641679763794,0.6400000000000003
0.8175296783447266,-0.830348014831543,0.6461565494537354,0.6500000000000004
1.0653756856918335,-0.8884172439575195,0.9048470854759216,0.6600000000000004
1.1344493627548218,-0.9409980773925781,1.1350047588348389,0.6700000000000004
1.127441644668579,-0.9044837951660156,1.3650639057159424,0.6800000000000004
1.1469647884368896,-0.6403875350952148,1.5444462299346924,0.6900000000000004
1.1807959079742432,-0.23993968963623047,1.7158312797546387,0.7000000000000004
1.2048377990722656,0.2702817916870117,1.8283411264419556,0.7100000000000004
1.0514284372329712,0.6962718963623047,1.8020358085632324,0.7200000000000004
0.9357905387878418,0.844273567199707,1.745934009552002,0.7300000000000004
0.9032132625579834,0.8698968887329102,1.5802043676376343,0.7400000000000004
0.9031850099563599,0.7492303848266602,1.5004427433013916,0.7500000000000004
0.8924061059951782,0.800384521484375,1.3895381689071655,0.7600000000000005
0.9661495685577393,0.8221893310546875,1.4057656526565552,0.7700000000000005
1.4091140031814575,0.7908468246459961,1.4992051124572754,0.7800000000000005
1.8911207914352417,0.8524322509765625,1.8764662742614746,0.7900000000000005
2.4313931465148926,1.0714216232299805,2.2623865604400635,0.8000000000000005
3.026973009109497,1.528681755065918,2.3142285346984863,0.8100000000000005
3.6651577949523926,1.9965057373046875,2.161144495010376,0.8200000000000005
4.172226905822754,2.4314355850219727,1.9020133018493652,0.8300000000000005
4.5128493309021,2.7899513244628906,1.494994044303894,0.8400000000000005
4.764832973480225,3.014436721801758,1.2044862508773804,0.8500000000000005
4.956454277038574,2.9470863342285156,1.0498460531234741,0.8600000000000005
5.202930450439453,2.683932304382324,0.9800193309783936,0.8700000000000006
5.43621301651001,2.3593578338623047,0.8208608627319336,0.8800000000000006
5.387355804443359,2.1004037857055664,0.5874050259590149,0.8900000000000006
5.1266374588012695,2.0745506286621094,0.46339866518974304,0.9000000000000006
4.738326072692871,2.2793445587158203,0.5428012609481812,0.9100000000000006
4.34470272064209,2.690770149230957,0.6612053513526917,0.9200000000000006
3.862520694732666,3.3661155700683594,0.4713108539581299,0.9300000000000006
3.4547574520111084,4.006187438964844,-0.12659764289855957,0.9400000000000006
2.850764751434326,4.503308296203613,-0.7112343907356262,0.9500000000000006
2.3897855281829834,4.79304313659668,-1.2341934442520142,0.9600000000000006
2.0446975231170654,4.741829872131348,-1.4327377080917358,0.9700000000000006
1.9177494049072266,4.477077484130859,-1.305653691291809,0.9800000000000006
1.7526981830596924,3.9659156799316406,-0.7913376688957214,0.9900000000000007
1.6426085233688354,3.452798843383789,-0.026440203189849854,1.0000000000000007
1.2060703039169312,2.8850584030151367,0.9559300541877747,1.0100000000000007
-0.011385917663574219,2.52996826171875,2.0191152095794678,1.0200000000000007
-1.384695291519165,2.501612663269043,2.92168927192688,1.0300000000000007
-2.5390284061431885,2.759066581726074,3.486560583114624,1.0400000000000007
-3.265631675720215,3.3123321533203125,3.6426875591278076,1.0500000000000007
-3.493283271789551,3.770144462585449,3.530461311340332,1.0600000000000007
-3.69370174407959,4.150552749633789,3.115586757659912,1.0700000000000007
-3.831342935562134,4.421047210693359,2.563182830810547,1.0800000000000007
-4.026349067687988,4.402838706970215,2.078733205795288,1.0900000000000007
-3.970306396484375,4.08680534362793,1.5976659059524536,1.1000000000000008
-3.847456216812134,3.7792530059814453,1.174050211906433,1.1100000000000008
-3.708075523376465,3.467926025390625,0.6979407072067261,1.1200000000000008
-3.6486244201660156,3.1834211349487305,0.1854243278503418,1.1300000000000008
-3.4436192512512207,3.0422182083129883,-0.4554901123046875,1.1400000000000008
-3.2652926445007324,2.909611701965332,-1.2097973823547363,1.1500000000000008
-3.0878543853759766,2.6798839569091797,-1.9917093515396118,1.1600000000000008
-2.8978757858276367,2.4245223999023438,-2.625108003616333,1.1700000000000008
-2.5794644355773926,2.1121950149536133,-3.032252550125122,1.1800000000000008
-2.339317798614502,1.692704200744629,-3.430030345916748,1.1900000000000008
-1.9581934213638306,1.2571229934692383,-3.6838066577911377,1.2000000000000008
-1.40816068649292,0.7866582870483398,-3.855750560760498,1.2100000000000009
-0.7959388494491577,0.28875732421875,-3.7827277183532715,1.2200000000000009
-0.2936084270477295,-0.12158203125,-3.523883819580078,1.2300000000000009
0.17103329300880432,-0.2960205078125,-3.228738307952881,1.2400000000000009
0.5984165072441101,-0.3876485824584961,-2.824040412902832,1.2500000000000009
0.949255108833313,-0.4440793991088867,-2.365530014038086,1.260000000000001
1.2955737113952637,-0.49133777618408203,-1.839159607887268,1.270000000000001
1.7782464027404785,-0.2805356979370117,-1.4192477464675903,1.280000000000001
2.0318403244018555,-0.18975162506103516,-0.9017124176025391,1.290000000000001
2.3378171920776367,0.05599021911621094,-0.46749329566955566,1.300000000000001
2.4530210494995117,0.004070281982421875,-0.021749258041381836,1.310000000000001
2.209606647491455,-0.025336265563964844,0.26712870597839355,1.320000000000001
1.3251359462738037,-0.07817649841308594,0.2735178470611572,1.330000000000001
0.3703291714191437,-0.2097930908203125,0.05580019950866699,1.340000000000001
-0.258189857006073,-0.11671829223632812,-0.3399240970611572,1.350000000000001
-0.6733854413032532,-0.12255191802978516,-0.7091825008392334,1.360000000000001
-0.9621756672859192,-0.1607646942138672,-1.0580945014953613,1.370000000000001
-1.2209529876708984,-0.24129009246826172,-1.3787857294082642,1.380000000000001
-1.4364994764328003,-0.46712684631347656,-1.6279041767120361,1.390000000000001
-1.5781676769256592,-0.5535306930541992,-1.980478048324585,1.400000000000001
-1.7010877132415771,-0.820887565612793,-2.253103256225586,1.410000000000001
-1.8768696784973145,-1.0964851379394531,-2.5426735877990723,1.420000000000001
-2.1819400787353516,-1.5066804885864258,-2.7283682823181152,1.430000000000001
-2.3070521354675293,-1.668381690979004,-2.9932351112365723,1.440000000000001
-2.546238422393799,-1.9905009269714355,-3.2759222984313965,1.450000000000001
-2.7486109733581543,-2.2742271423339844,-3.5219247341156006,1.460000000000001
-3.002696990966797,-2.6104421615600586,-3.7170944213867188,1.470000000000001
-3.236595630645752,-2.834080696105957,-3.942936420440674,1.480000000000001
-3.541916847229004,-2.9884462356567383,-4.151157379150391,1.490000000000001
-3.7855799198150635,-3.154951572418213,-4.331972122192383,1.500000000000001
-3.997121572494507,-3.2163209915161133,-4.588313579559326,1.5100000000000011
-4.239670276641846,-3.3063817024230957,-4.834310054779053,1.5200000000000011
-4.432708263397217,-3.362705707550049,-5.034440040588379,1.5300000000000011
-4.541358470916748,-3.3134031295776367,-5.117251873016357,1.5400000000000011
-4.513813018798828,-3.2996301651000977,-5.018231391906738,1.5500000000000012
-4.268673896789551,-3.244953155517578,-4.801891326904297,1.5600000000000012
-3.8287110328674316,-3.1640725135803223,-4.463222026824951,1.5700000000000012
-3.36220645904541,-3.057471752166748,-4.011350154876709,1.5800000000000012
-2.965688705444336,-2.963965892791748,-3.491091728210449,1.5900000000000012
-2.582923650741577,-2.9200029373168945,-2.8513197898864746,1.6000000000000012
-2.3422179222106934,-2.9525985717773438,-2.1743898391723633,1.6100000000000012
-2.1710076332092285,-3.158205509185791,-1.3915777206420898,1.6200000000000012
-1.935028314590454,-3.4680728912353516,-0.52040696144104,1.6300000000000012
-1.8165394067764282,-3.865787982940674,0.14850091934204102,1.6400000000000012
-1.7707839012145996,-4.284391403198242,0.6829385757446289,1.6500000000000012
-1.8149480819702148,-4.683126449584961,1.0378129482269287,1.6600000000000013
-1.9058880805969238,-4.968523979187012,1.2369861602783203,1.6700000000000013
-1.9666759967803955,-5.2335309982299805,1.260718822479248,1.6800000000000013
-2.08754825592041,-5.358129978179932,1.1345798969268799,1.6900000000000013
-2.2843499183654785,-5.425576210021973,0.933985710144043,1.7000000000000013
-2.4982128143310547,-5.729461669921875,0.7197906970977783,1.7100000000000013
-2.7327370643615723,-5.876828193664551,0.5242938995361328,1.7200000000000013
-2.9803175926208496,-5.831406116485596,0.41084909439086914,1.7300000000000013
-3.2146894931793213,-5.788853645324707,0.3972494602203369,1.7400000000000013
-3.3425817489624023,-5.772489547729492,0.45351457595825195,1.7500000000000013
-3.3907470703125,-5.580984115600586,0.5262343883514404,1.7600000000000013
-3.2236900329589844,-5.152015686035156,0.6364412307739258,1.7700000000000014
-2.945099353790283,-4.43060827255249,0.6403598785400391,1.7800000000000014
-2.4361753463745117,-3.4862680435180664,0.5404224395751953,1.7900000000000014
-1.793827772140503,-2.2306442260742188,0.38225769996643066,1.8000000000000014
-1.1104899644851685,-0.7690629959106445,0.15120267868041992,1.8100000000000014
-0.5508365035057068,0.8149871826171875,-0.10844707489013672,1.8200000000000014
-0.12908443808555603,2.612898826599121,-0.4517476558685303,1.8300000000000014
0.18740130960941315,4.560660362243652,-0.7626421451568604,1.8400000000000014
0.4613749086856842,6.601552963256836,-0.8879207372665405,1.8500000000000014
0.6698558926582336,8.898637771606445,-0.6287598609924316,1.8600000000000014
0.7854084968566895,11.222315788269043,0.1427748203277588,1.8700000000000014
1.032224416732788,13.196803092956543,1.5286104679107666,1.8800000000000014
1.3774089813232422,14.467378616333008,3.5705196857452393,1.8900000000000015
2.0239005088806152,14.36758804321289,6.9260053634643555,1.9000000000000015
2.9409797191619873,12.202448844909668,10.45640754699707,1.9100000000000015
4.038021087646484,8.749114990234375,13.006836891174316,1.9200000000000015
4.424224853515625,5.7662763595581055,12.212703704833984,1.9300000000000015
4.267873287200928,3.782533645629883,9.7374267578125,1.9400000000000015
4.101473331451416,2.4508237838745117,6.926559925079346,1.9500000000000015
3.8079960346221924,1.5919780731201172,4.186446189880371,1.9600000000000015
3.482053518295288,0.9793758392333984,1.6686527729034424,1.9700000000000015
2.882746696472168,0.6737861633300781,-0.7540054321289062,1.9800000000000015
2.0573318004608154,0.7596502304077148,-2.703892230987549,1.9900000000000015
1.049206018447876,1.4570941925048828,-3.881059169769287,2.0000000000000013
-0.03130801022052765,2.4903430938720703,-4.2128586769104,2.010000000000001
-1.0258504152297974,3.5882415771484375,-3.820612907409668,2.020000000000001
-1.7869210243225098,4.44124698638916,-2.9142980575561523,2.0300000000000007
-2.503674030303955,5.134626388549805,-1.6862006187438965,2.0400000000000005
-3.099560260772705,5.608072280883789,-0.8868659734725952,2.0500000000000003
-3.784000873565674,5.548649787902832,-0.6446536779403687,2.06
-4.6490159034729,4.998679161071777,-0.9554331302642822,2.07
-5.791749477386475,3.962953567504883,-1.5031951665878296,2.0799999999999996
-6.699639797210693,2.2452611923217773,-2.020122528076172,2.0899999999999994
-7.232518672943115,0.06657123565673828,-2.3253774642944336,2.099999999999999
-7.070821285247803,-2.0530834197998047,-2.1933770179748535,2.109999999999999
-6.405053615570068,-3.831550121307373,-1.7644410133361816,2.1199999999999988
-5.422209739685059,-5.05079460144043,-1.4930487871170044,2.1299999999999986
-3.693850040435791,-5.836113929748535,-1.8793836832046509,2.1399999999999983
-2.003655195236206,-6.326091289520264,-2.685920476913452,2.149999999999998
-0.7916483283042908,-6.53209114074707,-3.5025241374969482,2.159999999999998
0.10141825675964355,-6.498822212219238,-4.2050580978393555,2.1699999999999977
0.7756351232528687,-6.1586103439331055,-4.76541805267334,2.1799999999999975
1.1306934356689453,-5.525345802307129,-5.13589334487915,2.1899999999999973
1.3017956018447876,-4.775675296783447,-5.301741123199463,2.199999999999997
1.363723874092102,-3.9045557975769043,-5.304356575012207,2.209999999999997
1.3715635538101196,-3.0458970069885254,-4.946804523468018,2.2199999999999966
1.167022466659546,-2.144754409790039,-4.2343339920043945,2.2299999999999964
0.8791317343711853,-1.325857162475586,-3.2373266220092773,2.239999999999996
0.5486043691635132,-0.4055929183959961,-2.014838218688965,2.249999999999996
0.24555009603500366,0.3353004455566406,-0.7702316045761108,2.259999999999996
-0.021294713020324707,1.2307682037353516,0.5405700206756592,2.2699999999999956
-0.43928468227386475,1.9950065612792969,1.5117499828338623,2.2799999999999954
-1.042398452758789,2.7537126541137695,2.623105049133301,2.289999999999995
-1.7502100467681885,3.398259162902832,3.209714889526367,2.299999999999995
-2.279008388519287,3.7107105255126953,3.185710906982422,2.3099999999999947
-2.3446033000946045,3.5721263885498047,2.479099750518799,2.3199999999999945
-1.9514200687408447,3.1822710037231445,1.219071865081787,2.3299999999999943
-1.3013144731521606,2.3536806106567383,-0.2278677225112915,2.339999999999994
-0.6462701559066772,1.472940444946289,-1.684751033782959,2.349999999999994
0.005839407444000244,0.5051279067993164,-2.9098565578460693,2.3599999999999937
0.6181263327598572,-0.1807537078857422,-3.8789007663726807,2.3699999999999934
0.9234652519226074,-0.6827936172485352,-4.551824569702148,2.3799999999999932
0.9053437113761902,-0.9007635116577148,-4.99744987487793,2.389999999999993
0.910519003868103,-1.0766401290893555,-5.163911819458008,2.399999999999993
1.013091802597046,-1.1413087844848633,-5.086968898773193,2.4099999999999926
1.1178251504898071,-1.0950860977172852,-4.787195205688477,2.4199999999999924
1.2998504638671875,-1.0698299407958984,-4.090389728546143,2.429999999999992
1.6487476825714111,-1.1398630142211914,-3.1134896278381348,2.439999999999992
1.9261360168457031,-1.2574844360351562,-2.080571413040161,2.4499999999999917
2.0826191902160645,-1.3988571166992188,-1.154137134552002,2.4599999999999915
2.099008083343506,-1.6214056015014648,-0.4499775767326355,2.4699999999999913
2.0033888816833496,-1.94893217086792,0.08956819772720337,2.479999999999991
1.7205274105072021,-2.23776912689209,0.4944925308227539,2.489999999999991
1.349877119064331,-2.406571388244629,0.8035668730735779,2.4999999999999907
0.9601947069168091,-2.4601430892944336,1.0192668437957764,2.5099999999999905
0.4483528733253479,-2.2765979766845703,1.1947115659713745,2.5199999999999902
-0.032408952713012695,-1.870542049407959,1.16140615940094,2.52999999999999
-0.5057919025421143,-1.3546457290649414,1.0008041858673096,2.53999999999999
-0.950163722038269,-0.9442996978759766,0.7853686213493347,2.5499999999999896
-1.3081793785095215,-0.6155338287353516,0.47796034812927246,2.5599999999999894
-1.6254169940948486,-0.44242000579833984,0.08428627252578735,2.569999999999989
-1.6458011865615845,-0.386505126953125,-0.30882343649864197,2.579999999999989
-1.6608527898788452,-0.478668212890625,-0.5527281761169434,2.5899999999999888
-1.5502136945724487,-0.6349353790283203,-0.692915678024292,2.5999999999999885
-1.4451345205307007,-0.7666950225830078,-0.6383969783782959,2.6099999999999883
-1.5923480987548828,-0.8070650100708008,-0.36052441596984863,2.619999999999988
-1.3981536626815796,-0.7919502258300781,-0.1897004246711731,2.629999999999988
-1.1253149509429932,-0.7547883987426758,-0.0017745159566402435,2.6399999999999877
-0.7495673894882202,-0.6237850189208984,0.2434779554605484,2.6499999999999875
-0.5145201683044434,-0.5448408126831055,0.5818136930465698,2.6599999999999873
-0.18548297882080078,-0.4437093734741211,0.8214748501777649,2.669999999999987
0.022072911262512207,-0.358673095703125,0.9835293292999268,2.679999999999987
0.23453378677368164,-0.26585865020751953,0.9690918922424316,2.6899999999999866
0.42503929138183594,-0.0960073471069336,0.8355638980865479,2.6999999999999864
0.568902850151062,-0.03104686737060547,0.7150278687477112,2.709999999999986
0.8354567885398865,-0.0995941162109375,0.5436144471168518,2.719999999999986
1.0713584423065186,-0.14127159118652344,0.3797391653060913,2.7299999999999858
1.3796100616455078,-0.3377656936645508,0.35824859142303467,2.7399999999999856
1.5548338890075684,-0.39228057861328125,0.37661105394363403,2.7499999999999853
1.633279800415039,-0.5344448089599609,0.43522462248802185,2.759999999999985
1.7228336334228516,-0.8286161422729492,0.5270947217941284,2.769999999999985
1.8210575580596924,-1.0904359817504883,0.7095509171485901,2.7799999999999847
1.784132480621338,-1.264974594116211,0.9845620393753052,2.7899999999999845
1.6621801853179932,-1.4982433319091797,1.2461214065551758,2.7999999999999843
1.5913264751434326,-1.6922402381896973,1.5072362422943115,2.809999999999984
1.3988397121429443,-1.7013826370239258,1.7063632011413574,2.819999999999984
1.081862211227417,-1.6385960578918457,1.788977861404419,2.8299999999999836
0.8912750482559204,-1.3727493286132812,1.8082966804504395,2.8399999999999834
0.8271074295043945,-0.9353094100952148,1.77528977394104,2.849999999999983
0.9251055717468262,-0.38874149322509766,1.6922296285629272,2.859999999999983
1.1180282831192017,0.18549728393554688,1.5622637271881104,2.869999999999983
1.3576953411102295,0.7897825241088867,1.43941330909729,2.8799999999999826
1.6842174530029297,1.4073209762573242,1.389771819114685,2.8899999999999824
2.125607490539551,1.9710636138916016,1.2971514463424683,2.899999999999982
2.578277826309204,2.576526641845703,1.1378135681152344,2.909999999999982
3.1129021644592285,3.1779394149780273,1.1011099815368652,2.9199999999999817
3.7041239738464355,3.631528854370117,1.3291103839874268,2.9299999999999815
4.178522109985352,4.147534370422363,1.3124370574951172,2.9399999999999813
4.3799896240234375,4.402776718139648,1.1373634338378906,2.949999999999981
4.463618755340576,4.413966178894043,0.7789397239685059,2.959999999999981
4.440330505371094,4.479668617248535,-0.21261781454086304,2.9699999999999807
4.335705280303955,4.584989547729492,-1.3824617862701416,2.9799999999999804
4.055947780609131,4.758342742919922,-2.29148530960083,2.9899999999999802
3.87809419631958,5.08094596862793,-2.702796459197998,2.99999999999998
3.8021726608276367,5.378461837768555,-2.4377450942993164,3.00999999999998
4.173974514007568,5.479649543762207,-1.4913073778152466,3.0199999999999796
4.669617652893066,5.567350387573242,-0.20573651790618896,3.0299999999999794
5.121090888977051,5.563356399536133,1.1805930137634277,3.039999999999979
5.422856330871582,5.542366981506348,2.3215293884277344,3.049999999999979
5.402710914611816,5.507138252258301,2.931554079055786,3.0599999999999787
4.945802688598633,5.512941360473633,3.1506497859954834,3.0699999999999785
3.010777473449707,5.544960975646973,3.2183618545532227,3.0799999999999783
0.11821341514587402,5.456387519836426,3.241046667098999,3.089999999999978
-1.976064682006836,4.933907508850098,3.161205291748047,3.099999999999978
-3.180147647857666,4.083695411682129,2.962920665740967,3.1099999999999777
-3.706721067428589,3.4210214614868164,2.762263774871826,3.1199999999999775
-4.186727523803711,3.042008399963379,2.539355993270874,3.1299999999999772
-4.501550674438477,2.978078842163086,2.1281402111053467,3.139999999999977
-4.5176239013671875,2.9139184951782227,1.6280628442764282,3.149999999999977
-4.474629878997803,2.833332061767578,1.1699368953704834,3.1599999999999766
-4.312916278839111,2.7104063034057617,0.8587578535079956,3.1699999999999764
-4.054585933685303,2.602644920349121,0.6161074638366699,3.179999999999976
-3.7552380561828613,2.301860809326172,0.3036556839942932,3.189999999999976
-3.26455020904541,1.8821868896484375,-0.13654065132141113,3.1999999999999758
-2.707677125930786,1.51806640625,-0.5844453573226929,3.2099999999999755
-2.2675888538360596,1.161372184753418,-1.0909583568572998,3.2199999999999753
-1.9105801582336426,0.8883447647094727,-1.60915207862854,3.229999999999975
-1.711833119392395,0.6555328369140625,-2.0154833793640137,3.239999999999975
-1.620419979095459,0.4458913803100586,-2.4425528049468994,3.2499999999999747
-1.703798770904541,0.20417118072509766,-2.8388938903808594,3.2599999999999745
-1.8505313396453857,-0.04577922821044922,-3.136784315109253,3.2699999999999743
-1.980762004852295,-0.2872123718261719,-3.2830593585968018,3.279999999999974
-2.129246711730957,-0.4051637649536133,-3.3397297859191895,3.289999999999974
-2.2028298377990723,-0.5810546875,-3.2828564643859863,3.2999999999999736
-2.253203868865967,-0.7258720397949219,-3.0658187866210938,3.3099999999999734
-2.117119312286377,-0.7053146362304688,-2.7077581882476807,3.319999999999973
-1.6147303581237793,-0.5886402130126953,-2.1954901218414307,3.329999999999973
-0.9020708799362183,-0.3520469665527344,-1.59389066696167,3.3399999999999728
-0.35973846912384033,0.008763313293457031,-0.7904344797134399,3.3499999999999726
-0.04870660603046417,0.3995990753173828,0.007420778274536133,3.3599999999999723
-0.13545545935630798,0.886347770690918,0.6831550598144531,3.369999999999972
-0.32792428135871887,1.4298171997070312,0.9540977478027344,3.379999999999972
-0.6372052431106567,1.6706609725952148,0.9434840679168701,3.3899999999999717
-0.9461218118667603,1.723592758178711,0.7883179187774658,3.3999999999999715
-1.0721166133880615,1.834794044494629,0.4411153793334961,3.4099999999999713
-1.196397304534912,1.7002277374267578,0.14620161056518555,3.419999999999971
-1.4853838682174683,1.3344650268554688,-0.23308396339416504,3.429999999999971
-1.8560935258865356,0.704498291015625,-0.7023413181304932,3.4399999999999706
-2.294670581817627,-0.031113624572753906,-1.172029733657837,3.4499999999999704
-2.66204571723938,-0.6996450424194336,-1.535963535308838,3.45999999999997
-2.9432084560394287,-1.2936325073242188,-1.8600126504898071,3.46999999999997
-3.0916085243225098,-1.801055908203125,-2.097050428390503,3.47999999999997
-3.161196708679199,-2.2554616928100586,-2.264266014099121,3.4899999999999696
-3.3757948875427246,-2.6377062797546387,-2.5128777027130127,3.4999999999999694
-3.5406854152679443,-3.000340461730957,-2.8769445419311523,3.509999999999969
-3.5928468704223633,-3.338606357574463,-3.119941473007202,3.519999999999969
-3.57212495803833,-3.6143527030944824,-3.376116991043091,3.5299999999999687
-3.5112667083740234,-3.9447898864746094,-3.746361494064331,3.5399999999999685
-3.3281126022338867,-4.078768253326416,-4.190360069274902,3.5499999999999683
-3.1110496520996094,-4.31528377532959,-4.555606365203857,3.559999999999968
-3.015892505645752,-4.436581611633301,-4.737151145935059,3.569999999999968
-2.8421430587768555,-4.540825366973877,-4.785457134246826,3.5799999999999677
-2.5901148319244385,-4.515747547149658,-4.710062026977539,3.5899999999999674
-2.4201748371124268,-4.34020471572876,-4.43175745010376,3.5999999999999672
-2.150165557861328,-4.189328193664551,-4.045691013336182,3.609999999999967
-1.9139728546142578,-3.9990386962890625,-3.5844101905822754,3.619999999999967
-1.8003168106079102,-3.7794699668884277,-3.061171293258667,3.6299999999999666
-1.7210807800292969,-3.590991497039795,-2.5440943241119385,3.6399999999999664
-1.6431758403778076,-3.4411797523498535,-2.0608603954315186,3.649999999999966
-1.751340389251709,-3.3685946464538574,-1.6440479755401611,3.659999999999966
-1.7829062938690186,-3.387758255004883,-1.2641935348510742,3.6699999999999657
-1.8341718912124634,-3.4844141006469727,-0.9517767429351807,3.6799999999999655
-1.7838679552078247,-3.3693156242370605,-0.6774556636810303,3.6899999999999653
-1.7560632228851318,-3.9488887786865234,-0.48207569122314453,3.699999999999965
-1.5964488983154297,-4.571742057800293,-0.37332701683044434,3.709999999999965
-1.3711899518966675,-5.092006683349609,-0.23399686813354492,3.7199999999999647
-1.0962393283843994,-5.5767436027526855,-0.03554391860961914,3.7299999999999645
-0.8335107564926147,-5.846706390380859,0.20786333084106445,3.7399999999999642
-0.4845612049102783,-5.835148811340332,0.5559995174407959,3.749999999999964
-0.26345163583755493,-6.3551411628723145,0.8384029865264893,3.759999999999964
-0.040151357650756836,-6.686114311218262,1.2080097198486328,3.7699999999999636
0.008188366889953613,-6.966728687286377,1.600127935409546,3.7799999999999634
-0.02577650547027588,-7.20626163482666,1.87839674949646,3.789999999999963
-0.07416874170303345,-7.323121070861816,2.122042417526245,3.799999999999963
0.027200818061828613,-7.365074634552002,2.2836110591888428,3.8099999999999627
0.2762420177459717,-7.300976753234863,2.411240339279175,3.8199999999999625
0.7548379898071289,-6.743389129638672,2.3687920570373535,3.8299999999999623
1.3658080101013184,-5.929220199584961,2.2134203910827637,3.839999999999962
1.9830323457717896,-4.683534622192383,1.956106424331665,3.849999999999962
2.3959202766418457,-3.0347352027893066,1.7151329517364502,3.8599999999999617
2.4931952953338623,-1.3721232414245605,1.5555527210235596,3.8699999999999615
2.515186071395874,0.4059133529663086,1.3042206764221191,3.8799999999999613
2.224566698074341,2.6544132232666016,1.1361756324768066,3.889999999999961
1.9063491821289062,5.371644020080566,1.122359275817871,3.899999999999961
1.5865432024002075,8.275591850280762,1.2647686004638672,3.9099999999999606
1.250455379486084,11.451759338378906,1.8316545486450195,3.9199999999999604
1.0728451013565063,14.322216033935547,2.855783700942993,3.92999999999996
1.189443826675415,16.32818603515625,4.407047271728516,3.93999999999996
1.6812865734100342,16.675247192382812,5.909432411193848,3.9499999999999598
2.290314197540283,14.805333137512207,6.4640655517578125,3.9599999999999596
2.5870110988616943,11.19468879699707,6.07963752746582,3.9699999999999593
2.571831226348877,7.591169357299805,5.211521625518799,3.979999999999959
2.4407246112823486,5.171382904052734,4.302521705627441,3.989999999999959
2.066633701324463,3.874286651611328,3.290259599685669,3.9999999999999587
1.450351595878601,3.270695686340332,2.236614942550659,4.009999999999959
0.5582400560379028,3.1446218490600586,1.2969539165496826,4.019999999999959
-0.16612569987773895,3.009881019592285,0.5003900527954102,4.0299999999999585
-0.7068856358528137,3.059652328491211,-0.0036220550537109375,4.039999999999958
-1.3284307718276978,3.2738685607910156,-0.41432321071624756,4.049999999999958
-1.8071956634521484,3.6256418228149414,-1.2143841981887817,4.059999999999958
-2.5734002590179443,4.267823219299316,-1.8827699422836304,4.069999999999958
-3.5796995162963867,4.868180274963379,-2.4119622707366943,4.079999999999957
-5.080038547515869,5.346612930297852,-2.6142001152038574,4.089999999999957
-7.444885730743408,4.870358467102051,-2.395691394805908,4.099999999999957
-10.226634979248047,3.44925594329834,-1.8052538633346558,4.109999999999957
-11.994858741760254,1.185551643371582,-1.5586211681365967,4.119999999999957
-12.164590835571289,-1.2752714157104492,-1.5066981315612793,4.129999999999956
-11.281554222106934,-3.196432113647461,-1.2063288688659668,4.139999999999956
-10.21995735168457,-4.3683552742004395,-0.7319631576538086,4.149999999999956
-9.219523429870605,-4.8299241065979,-0.6699908971786499,4.159999999999956
-7.9904704093933105,-4.575808525085449,-1.6316126585006714,4.1699999999999555
-4.786421298980713,-4.0510478019714355,-3.6130073070526123,4.179999999999955
-1.8497823476791382,-3.443079948425293,-6.036715030670166,4.189999999999955
0.09201794862747192,-3.010727882385254,-8.157041549682617,4.199999999999955
1.2179920673370361,-2.6329426765441895,-9.524088859558105,4.209999999999955
1.766162395477295,-2.3162107467651367,-10.184103965759277,4.2199999999999545
1.8932714462280273,-2.0960493087768555,-10.388322830200195,4.229999999999954
1.8263623714447021,-1.8575196266174316,-10.38951301574707,4.239999999999954
1.7028322219848633,-1.6533823013305664,-9.889684677124023,4.249999999999954
1.4937719106674194,-1.2903814315795898,-8.87203311920166,4.259999999999954
1.308511734008789,-0.8291921615600586,-7.335334300994873,4.269999999999953
1.2987382411956787,-0.1679534912109375,-5.211026668548584,4.279999999999953
1.58976411819458,0.7783412933349609,-2.3780956268310547,4.289999999999953
2.231597900390625,1.570718765258789,1.4738000631332397,4.299999999999953
3.563077926635742,2.397028923034668,6.230225563049316,4.3099999999999525
4.701410293579102,3.046036720275879,9.749726295471191,4.319999999999952
4.890335559844971,3.171834945678711,9.582650184631348,4.329999999999952
3.1409993171691895,2.3582277297973633,6.179403305053711,4.339999999999952
1.573920726776123,1.3279485702514648,2.123800039291382,4.349999999999952
0.2889896631240845,0.5631284713745117,-0.9988561272621155,4.3599999999999515
-0.5586141347885132,0.12859249114990234,-3.1468448638916016,4.369999999999951
-1.092920184135437,0.024109840393066406,-4.553065299987793,4.379999999999951
-1.4328941106796265,-0.09758472442626953,-5.351358413696289,4.389999999999951
-1.4071282148361206,-0.2223672866821289,-5.353955268859863,4.399999999999951
-1.3679308891296387,-0.649409294128418,-4.509471416473389,4.40999999999995
-1.4819920063018799,-1.0917444229125977,-3.390199661254883,4.41999999999995
-1.6724200248718262,-1.5089492797851562,-2.365381956100464,4.42999999999995
-1.7647658586502075,-1.8461942672729492,-1.6597840785980225,4.43999999999995
-1.9700791835784912,-2.072538375854492,-1.3011820316314697,4.4499999999999496
-2.152618408203125,-2.192920684814453,-1.1054106950759888,4.459999999999949
-2.281834602355957,-2.3748273849487305,-0.9203811883926392,4.469999999999949
-2.257822275161743,-2.5775203704833984,-0.6157693862915039,4.479999999999949
-2.1069576740264893,-2.7698402404785156,-0.2958191931247711,4.489999999999949
-1.8815752267837524,-2.9756417274475098,-0.12708936631679535,4.4999999999999485
-1.576439380645752,-3.070514678955078,-0.02194305509328842,4.509999999999948
-1.2992714643478394,-3.1000518798828125,0.014558866620063782,4.519999999999948
-0.9809044599533081,-2.935257911682129,-0.019579598680138588,4.529999999999948
-0.5595928430557251,-2.6768569946289062,-0.06353022903203964,4.539999999999948
-0.26831698417663574,-2.35137939453125,-0.07294254004955292,4.549999999999947
0.06684625148773193,-1.9948668479919434,-0.04614415019750595,4.559999999999947
0.3660273551940918,-1.6194095611572266,-0.041442081332206726,4.569999999999947
0.5469716787338257,-1.3088245391845703,-0.06016300618648529,4.579999999999947
0.7310881614685059,-1.0870161056518555,-0.1593938022851944,4.589999999999947
0.9274535179138184,-0.9778337478637695,-0.301053911447525,4.599999999999946
1.1746611595153809,-0.9500064849853516,-0.37127989530563354,4.609999999999946
1.3631035089492798,-0.6662473678588867,-0.5436410903930664,4.619999999999946
1.560303807258606,-0.4926576614379883,-0.6249951124191284,4.629999999999946
1.6277222633361816,-0.4243049621582031,-0.5270406007766724,4.6399999999999455
1.587023138999939,-0.3797492980957031,-0.30941042304039,4.649999999999945
1.723422646522522,-0.2058248519897461,-0.15593314170837402,4.659999999999945
1.7236145734786987,-0.4214925765991211,0.07287541031837463,4.669999999999945
1.6333147287368774,-0.6795120239257812,0.21199625730514526,4.679999999999945
1.6849430799484253,-0.9702024459838867,0.3018178939819336,4.689999999999944
1.5579612255096436,-1.276784896850586,0.4470878839492798,4.699999999999944
1.4511793851852417,-1.4964418411254883,0.5680595636367798,4.709999999999944
1.3674237728118896,-1.6196699142456055,0.7311657667160034,4.719999999999944
1.407671570777893,-1.8234734535217285,0.9166030287742615,4.729999999999944
1.4383950233459473,-1.7777328491210938,1.071122407913208,4.739999999999943
1.2899839878082275,-1.5401477813720703,1.297239065170288,4.749999999999943
0.984135627746582,-0.8766298294067383,1.5375499725341797,4.759999999999943
0.6760939359664917,-0.03405284881591797,1.7419288158416748,4.769999999999943
0.3483610153198242,0.6237468719482422,1.812227725982666,4.7799999999999425
0.10320985317230225,1.0274677276611328,1.8005423545837402,4.789999999999942
-0.08633756637573242,1.2752246856689453,1.796877145767212,4.799999999999942
-0.31395530700683594,1.3334999084472656,1.764134168624878,4.809999999999942
-0.14616012573242188,1.1881790161132812,1.7993464469909668,4.819999999999942
0.11794519424438477,0.9279928207397461,1.8471121788024902,4.8299999999999415
0.48549342155456543,0.7826604843139648,1.7784135341644287,4.839999999999941
1.0016130208969116,0.7114744186401367,1.7379460334777832,4.849999999999941
1.6227896213531494,0.8459386825561523,1.8369519710540771,4.859999999999941
2.3318467140197754,1.2551918029785156,2.0141689777374268,4.869999999999941
2.9868719577789307,1.714034080505371,2.2941670417785645,4.87999999999994
3.581984043121338,2.181497573852539,2.5290706157684326,4.88999999999994
4.1682634353637695,2.795949935913086,2.9138996601104736,4.89999999999994
4.811182498931885,3.451679229736328,3.1842799186706543,4.90999999999994
5.200587749481201,3.8397293090820312,2.809999942779541,4.9199999999999395
4.987931728363037,4.177263259887695,1.8147242069244385,4.929999999999939
4.971371650695801,3.787158966064453,0.6738669276237488,4.939999999999939
4.790929794311523,3.3848657608032227,-0.2689273953437805,4.949999999999939
4.800630569458008,3.039644241333008,-1.0124937295913696,4.959999999999939
4.874176979064941,2.7707862854003906,-1.0717980861663818,4.9699999999999385
5.101415634155273,2.8655824661254883,-1.0840344429016113,4.979999999999938
5.369459629058838,3.0827646255493164,-0.9365710020065308,4.989999999999938
5.4193596839904785,3.506424903869629,-0.9427761435508728,4.999999999999938
5.336156845092773,4.007519721984863,-1.167475938796997,5.009999999999938
5.177811622619629,4.514385223388672,-1.3525182008743286,5.019999999999937
5.006860256195068,4.960205078125,-1.2447772026062012,5.029999999999937
4.9529924392700195,5.333340644836426,-0.7226155996322632,5.039999999999937
5.021817207336426,5.5696516036987305,0.09401673078536987,5.049999999999937
5.138274192810059,5.748664855957031,1.243216633796692,5.0599999999999365
5.108110427856445,5.9737043380737305,2.279386520385742,5.069999999999936
3.79178524017334,6.220470428466797,2.9909462928771973,5.079999999999936
0.7594900131225586,6.224806785583496,3.562950849533081,5.089999999999936
-1.5272760391235352,5.790478706359863,3.8238253593444824,5.099999999999936
-3.050781488418579,4.975717544555664,3.725041389465332,5.1099999999999355
-3.8578858375549316,4.14047908782959,3.331228494644165,5.119999999999935
-4.370423793792725,3.560641288757324,2.7783446311950684,5.129999999999935
-4.670660972595215,3.236661911010742,2.219818115234375,5.139999999999935
-4.747426509857178,3.113947868347168,1.7621272802352905,5.149999999999935
-4.769055366516113,3.0541181564331055,1.4313255548477173,5.159999999999934
-4.709733009338379,2.9713850021362305,1.304478406906128,5.169999999999934
-4.596079349517822,2.8180932998657227,1.291495680809021,5.179999999999934
-4.375980377197266,2.6061172485351562,1.3528037071228027,5.189999999999934
-4.10087251663208,2.241792678833008,1.2719221115112305,5.199999999999934
-3.9179434776306152,1.8729724884033203,0.9582434892654419,5.209999999999933
-3.505784511566162,1.535043716430664,0.27149903774261475,5.219999999999933
-3.0514333248138428,1.2562255859375,-0.5827340483665466,5.229999999999933
-2.6974692344665527,0.9570913314819336,-1.425511360168457,5.239999999999933
-2.4219274520874023,0.7472114562988281,-2.128084421157837,5.2499999999999325
-2.287165880203247,0.4658946990966797,-2.827545642852783,5.259999999999932
-2.2938642501831055,0.21575355529785156,-3.4746146202087402,5.269999999999932
-2.3782427310943604,-0.09902667999267578,-3.9822745323181152,5.279999999999932
-2.481198787689209,-0.3514699935913086,-4.362663269042969,5.289999999999932
-2.519702434539795,-0.6033201217651367,-4.5284881591796875,5.299999999999931
-2.306441068649292,-0.8441867828369141,-4.564949989318848,5.309999999999931
-1.462997317314148,-0.9845705032348633,-4.446690559387207,5.319999999999931
-0.42784056067466736,-0.9255828857421875,-4.085009574890137,5.329999999999931
0.3708193302154541,-0.7172069549560547,-3.3075547218322754,5.339999999999931
1.1324398517608643,-0.3691902160644531,-2.131683826446533,5.34999999999993
1.8251227140426636,0.08443355560302734,-0.7101972103118896,5.35999999999993
2.2182185649871826,0.4895753860473633,0.7120270729064941,5.36999999999993
2.4894134998321533,1.0673761367797852,1.8881216049194336,5.37999999999993
2.4050111770629883,1.4791488647460938,2.5564043521881104,5.3899999999999295
1.666629433631897,1.5901470184326172,2.549898147583008,5.399999999999929
0.8731869459152222,1.7899103164672852,2.1091864109039307,5.409999999999929
0.19982001185417175,1.7216682434082031,1.5147414207458496,5.419999999999929
-0.24241051077842712,1.5170793533325195,0.8286714553833008,5.429999999999929
-0.5288479328155518,1.193058967590332,0.11499524116516113,5.4399999999999284
-0.7874553203582764,0.6973733901977539,-0.5627155303955078,5.449999999999928
-1.1187877655029297,0.12397003173828125,-1.2660045623779297,5.459999999999928
-1.3453481197357178,-0.37352752685546875,-1.831538438796997,5.469999999999928
-1.560023546218872,-0.9045648574829102,-2.3978068828582764,5.479999999999928
-1.9128440618515015,-1.47819185256958,-2.818098545074463,5.489999999999927
-2.2090303897857666,-1.9767732620239258,-3.247044324874878,5.499999999999927
-2.4143874645233154,-2.4623913764953613,-3.575395107269287,5.509999999999927
-2.6361865997314453,-2.954216480255127,-3.8320956230163574,5.519999999999927
-2.9004228115081787,-3.4356112480163574,-4.069716930389404,5.5299999999999265
-3.1013669967651367,-3.796755313873291,-4.405259609222412,5.539999999999926
-3.3109726905822754,-4.162224769592285,-4.740411758422852,5.549999999999926
-3.6110072135925293,-4.465029716491699,-5.096753120422363,5.559999999999926
-3.810697555541992,-4.659562110900879,-5.450915336608887,5.569999999999926
-4.018550872802734,-4.874692440032959,-5.743932247161865,5.5799999999999255
-3.9934630393981934,-4.859108924865723,-5.897405624389648,5.589999999999925
-3.754176616668701,-4.646704196929932,-5.837241172790527,5.599999999999925
-3.4364633560180664,-4.345678806304932,-5.4458818435668945,5.609999999999925
-3.163853883743286,-3.9374871253967285,-4.878298759460449,5.619999999999925
-2.8446121215820312,-3.5304088592529297,-4.231733322143555,5.629999999999924
-2.6123299598693848,-3.1656851768493652,-3.5194034576416016,5.639999999999924
-2.4762122631073,-2.8367252349853516,-2.8357105255126953,5.649999999999924
-2.3856489658355713,-2.635110855102539,-1.9733855724334717,5.659999999999924
-2.2689669132232666,-2.5757884979248047,-1.1557114124298096,5.6699999999999235
-2.1747045516967773,-2.652059555053711,-0.42641472816467285,5.679999999999923
-2.092005491256714,-2.9263710975646973,0.1944713592529297,5.689999999999923
-1.9669685363769531,-3.372396469116211,0.6386451721191406,5.699999999999923
-1.8002890348434448,-3.870314121246338,0.9041316509246826,5.709999999999923
-1.6013524532318115,-4.3170881271362305,1.0554771423339844,5.7199999999999225
-1.3261494636535645,-4.78428316116333,1.0754940509796143,5.729999999999922
-0.9637589454650879,-5.190328598022461,1.0042798519134521,5.739999999999922
-0.6134539246559143,-5.582682132720947,0.8791484832763672,5.749999999999922
-0.30534684658050537,-5.9225358963012695,0.6104402542114258,5.759999999999922
-0.22793889045715332,-5.879283905029297,0.33083248138427734,5.769999999999921
-0.18180549144744873,-6.363615036010742,0.0600123405456543,5.779999999999921
-0.11828494071960449,-6.828985214233398,-0.16312122344970703,5.789999999999921
-0.2073032259941101,-6.710617542266846,-0.2534775733947754,5.799999999999921
-0.25219953060150146,-6.888855934143066,-0.23572349548339844,5.809999999999921
-0.17578834295272827,-6.832316875457764,-0.20593762397766113,5.81999999999992
-0.03302586078643799,-6.383349895477295,-0.1902909278869629,5.82999999999992
0.18088769912719727,-5.616357803344727,-0.26047778129577637,5.83999999999992
0.44435441493988037,-4.615208148956299,-0.3445420265197754,5.84999999999992
0.7207501530647278,-3.3559556007385254,-0.39465808868408203,5.8599999999999195
0.8914655447006226,-1.809587001800537,-0.6199381351470947,5.869999999999919
0.9827481508255005,-0.3246326446533203,-0.8479020595550537,5.879999999999919
0.8259990215301514,1.3582611083984375,-0.9432053565979004,5.889999999999919
0.769084632396698,3.426398277282715,-0.8650227785110474,5.899999999999919
0.6424155235290527,5.561994552612305,-0.5484734773635864,5.909999999999918
0.4968363642692566,8.145203590393066,0.21178483963012695,5.919999999999918
0.35234785079956055,10.909360885620117,1.6021537780761719,5.929999999999918
0.20812299847602844,13.185489654541016,3.6048195362091064,5.939999999999918
0.23013049364089966,14.531905174255371,6.423031806945801,5.949999999999918
0.47407472133636475,14.287429809570312,9.868606567382812,5.959999999999917
0.8820350170135498,12.070236206054688,12.149862289428711,5.969999999999917
1.1132519245147705,8.751334190368652,11.534948348999023,5.979999999999917
1.181199073791504,5.899216651916504,9.640569686889648,5.989999999999917
1.3299306631088257,3.996866226196289,7.471153259277344,5.9999999999999165
1.4765915870666504,2.763718605041504,5.373123645782471,6.009999999999916
1.6965372562408447,2.0774545669555664,3.4815382957458496,6.019999999999916
1.7638829946517944,1.8805418014526367,1.7943463325500488,6.029999999999916
1.5340865850448608,2.1870927810668945,0.48664045333862305,6.039999999999916
1.0394783020019531,2.8767404556274414,-0.39145898818969727,6.0499999999999154
0.5896705985069275,3.5561628341674805,-0.9027014970779419,6.059999999999915
0.15892863273620605,4.245865821838379,-1.1849486827850342,6.069999999999915
-0.4559360146522522,5.018955230712891,-1.2394993305206299,6.079999999999915
-1.312051773071289,5.769374847412109,-1.235764503479004,6.089999999999915
-2.2943618297576904,6.432472229003906,-1.2302875518798828,6.099999999999914
-3.164469003677368,6.791526794433594,-1.4526011943817139,6.109999999999914
-4.260624408721924,6.774508476257324,-1.8059320449829102,6.119999999999914
-5.71332311630249,6.254999160766602,-2.0746254920959473,6.129999999999914
-7.146822929382324,4.790925025939941,-2.27801513671875,6.1399999999999135
-8.159846305847168,2.4101314544677734,-2.4212534427642822,6.149999999999913
-8.077397346496582,-0.15935611724853516,-2.060793399810791,6.159999999999913
-7.359080791473389,-2.0812106132507324,-1.4141647815704346,6.169999999999913
-6.320686340332031,-3.5207905769348145,-1.1563942432403564,6.179999999999913
-5.238154888153076,-4.570045471191406,-1.351522445678711,6.1899999999999125
-3.555514335632324,-5.3241868019104,-2.2727041244506836,6.199999999999912
-1.5650525093078613,-5.762859344482422,-3.707855224609375,6.209999999999912
-0.2979201376438141,-5.997316837310791,-5.101296424865723,6.219999999999912
0.3979472219944,-6.029026031494141,-6.328007698059082,6.229999999999912
0.7897908687591553,-5.878983020782471,-7.252440929412842,6.239999999999911
0.9126321077346802,-5.5994791984558105,-7.760319709777832,6.249999999999911
0.8492996692657471,-5.2190423011779785,-7.932865142822266,6.259999999999911
0.7579576373100281,-4.737643718719482,-7.859391689300537,6.269999999999911
0.5357267260551453,-4.09811544418335,-7.473387718200684,6.2799999999999105
0.2857268154621124,-3.1909379959106445,-6.639087677001953,6.28999999999991
0.042160868644714355,-2.112532615661621,-5.465158462524414,6.29999999999991
-0.2230459451675415,-0.9809360504150391,-3.9081218242645264,6.30999999999991
-0.7076348662376404,0.3175621032714844,-2.1310763359069824,6.31999999999991
-1.3265098333358765,1.5442619323730469,0.4004824161529541,6.3299999999999095
-2.15891170501709,2.588937759399414,3.9764535427093506,6.339999999999909
-2.712440013885498,3.6100196838378906,6.160038948059082,6.349999999999909
-2.9919824600219727,4.248592376708984,5.93435001373291,6.359999999999909
-2.8328027725219727,4.087821960449219,4.392602920532227,6.369999999999909
-2.3291714191436768,3.0659265518188477,2.5978522300720215,6.379999999999908
-1.8298723697662354,1.7308940887451172,0.8921726942062378,6.389999999999908
-1.2520523071289062,0.5508317947387695,-0.7932981252670288,6.399999999999908
-0.6534566879272461,-0.2678537368774414,-2.5180726051330566,6.409999999999908
-0.18051886558532715,-0.6965236663818359,-3.9774460792541504,6.419999999999908
0.24543333053588867,-0.8957958221435547,-4.874109745025635,6.429999999999907
0.4803139567375183,-1.0382776260375977,-5.102490425109863,6.439999999999907
0.40807628631591797,-1.0240058898925781,-4.738944053649902,6.449999999999907
0.21085768938064575,-0.9421243667602539,-3.9424257278442383,6.459999999999907
0.013186335563659668,-0.9389257431030273,-3.1233463287353516,6.4699999999999065
-0.17752504348754883,-0.9881772994995117,-2.43953800201416,6.479999999999906
-0.3273482918739319,-1.046767234802246,-1.9139314889907837,6.489999999999906
-0.48631471395492554,-1.1935148239135742,-1.4843878746032715,6.499999999999906
-0.6639291048049927,-1.3253870010375977,-1.12308931350708,6.509999999999906
-0.8147076368331909,-1.4638233184814453,-0.7929155230522156,6.519999999999905
-0.8478274345397949,-1.6087627410888672,-0.41086483001708984,6.529999999999905
-0.7844732999801636,-1.7912087440490723,0.027438104152679443,6.539999999999905
-0.5618758201599121,-1.8460254669189453,0.34225133061408997,6.549999999999905
-0.4431920051574707,-1.96464204788208,0.5910854339599609,6.559999999999905
-0.32601308822631836,-2.0059423446655273,0.6376049518585205,6.569999999999904
-0.28526008129119873,-1.9629201889038086,0.5727466344833374,6.579999999999904
-0.3336745500564575,-1.8429503440856934,0.40613535046577454,6.589999999999904
-0.4601038694381714,-1.6844978332519531,0.15001031756401062,6.599999999999904
-0.49778616428375244,-1.5833625793457031,-0.12567365169525146,6.6099999999999035
-0.4974398612976074,-1.5060720443725586,-0.3099782168865204,6.619999999999903
-0.4568498134613037,-1.428725242614746,-0.4257485270500183,6.629999999999903
-0.3233363628387451,-1.4445610046386719,-0.5676211714744568,6.639999999999903
-0.16140460968017578,-1.3764762878417969,-0.6775819659233093,6.649999999999903
0.017292499542236328,-1.286656379699707,-0.813202977180481,6.659999999999902
0.3090001344680786,-1.1845579147338867,-1.0487326383590698,6.669999999999902
0.5947773456573486,-1.1943721771240234,-1.2310253381729126,6.679999999999902
0.5202144384384155,-1.1414318084716797,-1.0590980052947998,6.689999999999902
0.43902599811553955,-0.7795934677124023,-0.9909632205963135,6.699999999999902
0.7653966546058655,-0.40802478790283203,-0.883549153804779,6.709999999999901
1.025866985321045,-0.38527774810791016,-0.5211541652679443,6.719999999999901
1.2375082969665527,-0.4501800537109375,-0.15943029522895813,6.729999999999901
1.395904541015625,-0.7364120483398438,0.14185085892677307,6.739999999999901
1.4006645679473877,-0.8993387222290039,0.31052064895629883,6.7499999999999005
1.342618465423584,-1.25238037109375,0.4820813834667206,6.7599999999999
1.2408024072647095,-1.5251703262329102,0.6433441042900085,6.7699999999999
0.9874571561813354,-1.629425048828125,0.8029337525367737,6.7799999999999
0.7234861850738525,-1.7137165069580078,0.9985823035240173,6.7899999999999
0.592705249786377,-1.782846450805664,1.098089337348938,6.7999999999998995
0.4612642526626587,-1.6598773002624512,1.1875402927398682,6.809999999999899
0.3147892951965332,-1.3976688385009766,1.2478702068328857,6.819999999999899
0.05741596221923828,-0.9342842102050781,1.3054860830307007,6.829999999999899
-0.09842467308044434,-0.38965797424316406,1.4082762002944946,6.839999999999899
-0.19885945320129395,0.19286537170410156,1.4600669145584106,6.849999999999898
-0.17055082321166992,0.6407642364501953,1.467118740081787,6.859999999999898
0.05035543441772461,0.8941183090209961,1.5193085670471191,6.869999999999898
0.3721797466278076,1.0125885009765625,1.591451644897461,6.879999999999898
0.9021974802017212,1.1467704772949219,1.599169135093689,6.8899999999998975
1.4394582509994507,1.1388254165649414,1.7723476886749268,6.899999999999897
1.9599106311798096,1.2663307189941406,2.1644375324249268,6.909999999999897
2.588148593902588,1.4336557388305664,2.664168357849121,6.919999999999897
3.2549426555633545,1.7699451446533203,3.027825355529785,6.929999999999897
3.763517379760742,2.217349052429199,3.1069822311401367,6.9399999999998965
4.2227396965026855,2.7418737411499023,3.0313704013824463,6.949999999999896
4.556973934173584,3.383702278137207,2.7019596099853516,6.959999999999896
4.838886260986328,4.197343826293945,2.041832685470581,6.969999999999896
4.858649253845215,4.173152923583984,1.4122591018676758,6.979999999999896
4.816096782684326,4.093684196472168,0.668039083480835,6.989999999999895
4.811579704284668,3.389826774597168,0.4188230633735657,6.999999999999895
5.036670207977295,2.7533035278320312,0.1911524534225464,7.009999999999895
5.427801609039307,2.2750720977783203,0.3747871518135071,7.019999999999895
5.881113052368164,2.022152900695801,0.6318553686141968,7.0299999999998946
6.298168659210205,2.028376579284668,0.9831596612930298,7.039999999999894
6.640727996826172,2.428211212158203,1.3365185260772705,7.049999999999894
6.578247547149658,3.17647647857666,1.5934569835662842,7.059999999999894
6.274855136871338,4.060300827026367,1.5179493427276611,7.069999999999894
5.6567792892456055,4.857043266296387,1.0945377349853516,7.0799999999998935
5.0779266357421875,5.408727645874023,0.6127699017524719,7.089999999999893
4.528609752655029,5.660567283630371,0.2690209150314331,7.099999999999893
4.053950309753418,5.598605155944824,0.14371046423912048,7.109999999999893
3.581437587738037,5.3404340744018555,0.23474639654159546,7.119999999999893
3.2705392837524414,5.056150436401367,0.46197205781936646,7.129999999999892
2.9359230995178223,4.769719123840332,0.8438793420791626,7.139999999999892
1.8403822183609009,4.509310722351074,1.513880968093872,7.149999999999892
0.1578676700592041,4.2311248779296875,2.3488104343414307,7.159999999999892
-1.3073432445526123,3.8153114318847656,3.1763036251068115,7.169999999999892
-2.4045250415802,3.4154224395751953,3.759809970855713,7.179999999999891
-3.0219576358795166,3.082509994506836,4.021775722503662,7.189999999999891
-3.4993786811828613,2.867814064025879,3.9776926040649414,7.199999999999891
-3.827594041824341,2.901371955871582,3.6235153675079346,7.209999999999891
-4.055675506591797,3.0330801010131836,3.092088222503662,7.2199999999998905
-4.17074728012085,3.2012367248535156,2.516115665435791,7.22999999999989
-4.114142894744873,3.2650814056396484,2.0745768547058105,7.23999999999989
-3.9631266593933105,3.2726659774780273,1.8579223155975342,7.24999999999989
-3.7875723838806152,3.259762763977051,1.6665760278701782,7.25999999999989
-3.5547170639038086,3.204437255859375,1.3843175172805786,7.269999999999889
-3.1870832443237305,3.141904830932617,0.9304913282394409,7.279999999999889
-2.7082507610321045,3.071409225463867,0.19475245475769043,7.289999999999889
-2.3867688179016113,3.0376968383789062,-0.7840418219566345,7.299999999999889
-2.216524124145508,3.1454343795776367,-1.6933465003967285,7.309999999999889
-2.0454869270324707,3.176565170288086,-2.5322835445404053,7.319999999999888
-1.9418531656265259,3.1430253982543945,-3.209439516067505,7.329999999999888
-1.7988312244415283,2.9516754150390625,-3.7124266624450684,7.339999999999888
-1.5907366275787354,2.6483163833618164,-4.000303268432617,7.349999999999888
-1.2509280443191528,2.274001121520996,-4.060792922973633,7.3599999999998875
-0.8371206521987915,1.671346664428711,-3.900855541229248,7.369999999999887
-0.31645429134368896,0.8003206253051758,-3.567862033843994,7.379999999999887
0.25770291686058044,0.09665489196777344,-3.1538100242614746,7.389999999999887
0.7290621995925903,-0.4994783401489258,-2.697596311569214,7.399999999999887
1.0995781421661377,-0.9164714813232422,-2.251551389694214,7.4099999999998865
1.5299285650253296,-1.1165142059326172,-1.988839864730835,7.419999999999886
1.6976134777069092,-1.2579879760742188,-1.804924726486206,7.429999999999886
1.9360301494598389,-1.1690082550048828,-1.7346346378326416,7.439999999999886
1.987519383430481,-1.2158279418945312,-1.6028189659118652,7.449999999999886
2.212009906768799,-1.0468416213989258,-1.4835573434829712,7.459999999999885
2.378225326538086,-0.9494714736938477,-1.2710685729980469,7.469999999999885
2.348123550415039,-0.8307266235351562,-1.060233235359192,7.479999999999885
2.252068281173706,-0.5452566146850586,-0.9670593738555908,7.489999999999885
1.8510550260543823,-0.31133270263671875,-0.9114933013916016,7.4999999999998845
1.4706745147705078,-0.13641071319580078,-0.9766192436218262,7.509999999999884
1.1495758295059204,-0.18332958221435547,-1.104457974433899,7.519999999999884
1.095368504524231,0.050131797790527344,-1.4193994998931885,7.529999999999884
0.8471434712409973,-0.04634571075439453,-1.741752028465271,7.539999999999884
0.6592332720756531,-0.30744457244873047,-2.026362895965576,7.5499999999998835
0.2808886170387268,-0.606175422668457,-2.302548885345459,7.559999999999883
-0.17308911681175232,-0.9589614868164062,-2.659822463989258,7.569999999999883
-0.9092090725898743,-1.4871768951416016,-3.0350501537323,7.579999999999883
-1.449059009552002,-1.7213106155395508,-3.4827356338500977,7.589999999999883
-2.1000001430511475,-2.0725865364074707,-3.8532426357269287,7.599999999999882
-2.7817673683166504,-2.4519882202148438,-4.193086624145508,7.609999999999882
-3.4427521228790283,-2.7276129722595215,-4.529478073120117,7.619999999999882
-4.125236988067627,-3.026073932647705,-4.824626922607422,7.629999999999882
-4.663245677947998,-3.2036614418029785,-5.129220962524414,7.6399999999998816
-5.242700099945068,-3.377685546875,-5.256546974182129,7.649999999999881
-5.834355354309082,-3.442971706390381,-5.295007705688477,7.659999999999881
-6.399350166320801,-3.504904270172119,-5.2779035568237305,7.669999999999881
-6.9078898429870605,-3.4536852836608887,-5.101844310760498,7.679999999999881
-7.27955961227417,-3.409329891204834,-4.672788143157959,7.6899999999998805
-7.591455936431885,-3.3245177268981934,-4.094757556915283,7.69999999999988
-7.774326324462891,-3.2668094635009766,-3.3424181938171387,7.70999999999988
-7.723104476928711,-3.155510425567627,-2.5002248287200928,7.71999999999988
-7.111416816711426,-3.074909210205078,-1.7127280235290527,7.72999999999988
-5.8000383377075195,-3.0396742820739746,-1.2302348613739014,7.739999999999879
-4.503252983093262,-3.1384572982788086,-0.8919456005096436,7.749999999999879
-3.402470588684082,-3.4118547439575195,-0.614051342010498,7.759999999999879
-2.5344419479370117,-3.8142342567443848,-0.36078906059265137,7.769999999999879
-1.8340600728988647,-4.268821716308594,-0.1730968952178955,7.779999999999879
-1.2486262321472168,-4.73715353012085,-0.08949041366577148,7.789999999999878
-0.7850521802902222,-5.1186394691467285,-0.012145519256591797,7.799999999999878
-0.4787002205848694,-5.42274808883667,0.02018117904663086,7.809999999999878
-0.12758904695510864,-5.632664203643799,-0.01685810089111328,7.819999999999878
0.07582169771194458,-5.7889933586120605,-0.028015613555908203,7.8299999999998775
0.11147624254226685,-5.805521488189697,-0.0856020450592041,7.839999999999877
0.05688202381134033,-5.749059677124023,-0.22615861892700195,7.849999999999877
-0.25236377120018005,-5.77947998046875,-0.38596153259277344,7.859999999999877
-0.7493770122528076,-5.855539321899414,-0.4918203353881836,7.869999999999877
-1.2220484018325806,-5.790129661560059,-0.5616188049316406,7.879999999999876
-1.5735074281692505,-5.568533897399902,-0.6013200283050537,7.889999999999876
-1.8404467105865479,-5.233559608459473,-0.6262216567993164,7.899999999999876
-1.8873802423477173,-4.7468109130859375,-0.5985329151153564,7.909999999999876
-1.784733533859253,-4.07484769821167,-0.5184023380279541,7.919999999999876
-1.5671156644821167,-3.2010841369628906,-0.4359745979309082,7.929999999999875
-1.4151928424835205,-2.1998538970947266,-0.3917381763458252,7.939999999999875
-1.1914153099060059,-1.0760393142700195,-0.34742093086242676,7.949999999999875
-1.0504145622253418,0.27552032470703125,-0.2771892547607422,7.959999999999875
-0.9825536608695984,1.6802997589111328,-0.16607332229614258,7.9699999999998745
-0.9883518218994141,3.298826217651367,0.09552526473999023,7.979999999999874
-0.9912830591201782,5.233962059020996,0.6456644535064697,7.989999999999874
-1.0270624160766602,7.452054023742676,1.6725666522979736,7.999999999999874
