AccX,AccY,AccZ,SampleRate
1.5298266410827637,-0.2603273391723633,-0.792122483253479,0
2.005887269973755,-0.222076416015625,-0.4579259753227234,0.01
2.429091215133667,-0.14516448974609375,-0.014856934547424316,0.02
2.8620266914367676,-0.12328815460205078,0.24139755964279175,0.03
3.191704511642456,-0.14974117279052734,0.292766809463501,0.04
3.26816987991333,-0.20955753326416016,0.40931767225265503,0.05
3.3519859313964844,-0.22692203521728516,0.5841875076293945,0.060000000000000005
3.5725016593933105,-0.1008148193359375,1.0084545612335205,0.07
3.5940134525299072,0.5666608810424805,1.302139401435852,0.08
3.4957783222198486,1.660085678100586,0.8876250982284546,0.09
3.7203454971313477,2.7917070388793945,-0.1110997200012207,0.09999999999999999
4.061951637268066,3.6879396438598633,-0.9162468910217285,0.10999999999999999
4.3859052658081055,3.8360252380371094,-1.2136468887329102,0.11999999999999998
4.895492076873779,3.3508033752441406,-1.1424351930618286,0.12999999999999998
5.107900142669678,2.1640491485595703,-0.7567576169967651,0.13999999999999999
4.304989814758301,0.884429931640625,-0.38106197118759155,0.15
2.226962089538574,-0.13873577117919922,-0.30039238929748535,0.16
0.16244125366210938,-1.1321253776550293,-0.5902266502380371,0.17
-0.7745001316070557,-1.87351655960083,-0.8603865504264832,0.18000000000000002
-1.5296695232391357,-2.1689438819885254,-0.8252573013305664,0.19000000000000003
-2.1923232078552246,-1.9982891082763672,-0.4863075315952301,0.20000000000000004
-2.595170497894287,-1.32149076461792,0.11842048168182373,0.21000000000000005
-2.8332884311676025,-0.43347644805908203,1.1964750289916992,0.22000000000000006
-2.48946213722229,0.10210227966308594,2.3001437187194824,0.23000000000000007
-2.1702680587768555,0.5478029251098633,1.8710392713546753,0.24000000000000007
-1.7302136421203613,1.1831932067871094,0.9978410005569458,0.25000000000000006
-1.5511600971221924,2.1685094833374023,-0.1653224229812622,0.26000000000000006
-1.317995548248291,3.128363609313965,-1.6571357250213623,0.2700000000000001
-1.371687889099121,3.1790056228637695,-1.7562825679779053,0.2800000000000001
-1.1559207439422607,4.703550338745117,-3.471360206604004,0.2900000000000001
-1.2979850769042969,4.285399436950684,-2.6670098304748535,0.3000000000000001
-1.3460333347320557,3.051152229309082,-1.2135926485061646,0.3100000000000001
-1.0200393199920654,1.5171842575073242,0.527172327041626,0.3200000000000001
-0.5204200744628906,0.12912464141845703,1.8336224555969238,0.3300000000000001
-0.3612327575683594,-0.9976563453674316,1.713132619857788,0.34000000000000014
-0.3263871669769287,-1.7446513175964355,0.37296581268310547,0.35000000000000014
-0.5056045055389404,-1.8956990242004395,-0.7766497135162354,0.36000000000000015
-0.807175874710083,-1.9493908882141113,-1.7071123123168945,0.37000000000000016
-1.1086053848266602,-1.7328596115112305,-2.127516746520996,0.38000000000000017
-1.409773588180542,-1.3103961944580078,-1.889840841293335,0.3900000000000002
-1.673036813735962,-0.7521576881408691,-1.2580323219299316,0.4000000000000002
-2.068845748901367,-0.25005626678466797,-0.4027228355407715,0.4100000000000002
-2.2606053352355957,-0.17520570755004883,-0.1322340965270996,0.4200000000000002
-2.3152425289154053,-0.5353517532348633,-0.3104696273803711,0.4300000000000002
-2.4393386840820312,-1.1359987258911133,-0.585515022277832,0.4400000000000002
-2.5857295989990234,-1.8346214294433594,-0.946577787399292,0.45000000000000023
-2.7509655952453613,-2.4782772064208984,-1.0024065971374512,0.46000000000000024
-2.79890775680542,-3.0927653312683105,-0.569434642791748,0.47000000000000025
-2.7916922569274902,-3.3523597717285156,-0.047551631927490234,0.48000000000000026
-2.6064600944519043,-3.4275436401367188,0.35537147521972656,0.49000000000000027
-2.310157537460327,-3.3834495544433594,0.31267833709716797,0.5000000000000002
-2.0020813941955566,-3.2869744300842285,0.04656839370727539,0.5100000000000002
-1.7849633693695068,-3.0987391471862793,0.16455411911010742,0.5200000000000002
-1.6400060653686523,-2.8145751953125,1.0363616943359375,0.5300000000000002
-1.516622543334961,-2.476923942565918,2.089651107788086,0.5400000000000003
-1.2368183135986328,-1.9317069053649902,3.3308959007263184,0.5500000000000003
-0.4338057041168213,-1.0917854309082031,3.9170756340026855,0.5600000000000003
0.4367709159851074,0.3941383361816406,2.6832058429718018,0.5700000000000003
1.571805715560913,2.6777572631835938,0.9092793464660645,0.5800000000000003
3.5443596839904785,5.153986930847168,0.0615849494934082,0.5900000000000003
5.498687744140625,5.568319320678711,0.17688488960266113,0.6000000000000003
7.3256611824035645,5.173064231872559,1.598386287689209,0.6100000000000003
7.512277126312256,3.7204952239990234,5.370431900024414,0.6200000000000003
4.336696624755859,0.5593547821044922,10.00497817993164,0.6300000000000003
0.4563412666320801,-1.407684326171875,8.360182762145996,0.6400000000000003
-0.2350902557373047,-1.2584419250488281,3.5689542293548584,0.6500000000000004
0.49944257736206055,0.37932491302490234,0.8274078369140625,0.6600000000000004
0.947899341583252,2.517484664916992,-1.1313302516937256,0.6700000000000004
0.5337204933166504,2.779794692993164,-3.5379157066345215,0.6800000000000004
-0.8368010520935059,3.282952308654785,-5.6169586181640625,0.6900000000000004
-3.7252132892608643,4.7759199142456055,-7.676335334777832,0.7000000000000004
-7.8845977783203125,5.6268110275268555,-11.141044616699219,0.7100000000000004
-9.296014785766602,4.268755912780762,-8.027730941772461,0.7200000000000004
-8.440587043762207,1.6271982192993164,-2.3671247959136963,0.7300000000000004
-5.832024574279785,-0.9796295166015625,1.8604300022125244,0.7400000000000004
-3.1880977153778076,-2.521836757659912,3.32089900970459,0.7500000000000004
-1.4320216178894043,-2.924257755279541,2.155794858932495,0.7600000000000005
-0.42203426361083984,-2.316828727722168,-0.6279275417327881,0.7700000000000005
0.3134431838989258,-1.5879631042480469,-2.6779794692993164,0.7800000000000005
1.0804142951965332,-0.6903300285339355,-4.294374465942383,0.7900000000000005
1.5830364227294922,0.31856441497802734,-5.3102264404296875,0.8000000000000005
1.8796119689941406,1.5419797897338867,-7.263235092163086,0.8100000000000005
2.439070224761963,1.7837743759155273,-7.043211936950684,0.8200000000000005
3.0891528129577637,0.8806095123291016,-3.8940484523773193,0.8300000000000005
2.9723901748657227,0.10434341430664062,-1.50550377368927,0.8400000000000005
1.864790916442871,-0.393585205078125,0.3271210193634033,0.8500000000000005
0.32836484909057617,-0.3740234375,1.7758748531341553,0.8600000000000005
-0.7378747463226318,-0.36425304412841797,2.5125327110290527,0.8700000000000006
-1.302100419998169,-0.2514076232910156,2.1421546936035156,0.8800000000000006
-1.7115533351898193,0.08989334106445312,0.607011079788208,0.8900000000000006
-1.721827507019043,0.2166147232055664,-0.7863848805427551,0.9000000000000006
-1.459686040878296,0.5724592208862305,-2.3906807899475098,0.9100000000000006
-1.089142084121704,0.49871826171875,-3.219496250152588,0.9200000000000006
-1.08634352684021,0.4808473587036133,-3.0683021545410156,0.9300000000000006
-0.25629472732543945,-0.43077945709228516,-3.1347947120666504,0.9400000000000006
0.12862873077392578,-0.988001823425293,-2.4077134132385254,0.9500000000000006
0.41353464126586914,-1.427910327911377,-1.431272029876709,0.9600000000000006
0.6531143188476562,-1.7811403274536133,-0.08160465955734253,0.9700000000000006
0.6202340126037598,-1.8068294525146484,1.0524991750717163,0.9800000000000006
0.32110023498535156,-1.432114601135254,1.7196143865585327,0.9900000000000007
-0.29162120819091797,-0.7558865547180176,1.8148753643035889,1.0000000000000007
-0.9142858982086182,-0.13840007781982422,1.2796369791030884,1.0100000000000007
-1.0593140125274658,-0.03255462646484375,0.5943590998649597,1.0200000000000007
-0.9812726974487305,-0.025493621826171875,-0.07378186285495758,1.0300000000000007
-0.7340915203094482,-0.1663227081298828,-0.25130903720855713,1.0400000000000007
-0.1980738639831543,-0.3149995803833008,-0.05325017124414444,1.0500000000000007
0.4710721969604492,-0.562678337097168,0.4112330675125122,1.0600000000000007
1.0838651657104492,-0.8902192115783691,0.9651808738708496,1.0700000000000007
1.3777132034301758,-1.0849509239196777,1.094565510749817,1.0800000000000007
1.5157251358032227,-1.1170988082885742,0.8777745962142944,1.0900000000000007
1.5026721954345703,-1.1109933853149414,0.280763179063797,1.1000000000000008
1.7352471351623535,-1.170590877532959,-0.06562685966491699,1.1100000000000008
2.077435255050659,-1.4644155502319336,0.09138369560241699,1.1200000000000008
2.452277183532715,-1.564344882965088,0.5868913531303406,1.1300000000000008
2.659050941467285,-1.4309635162353516,0.8221235275268555,1.1400000000000008
2.8092947006225586,-0.9842715263366699,0.7185870409011841,1.1500000000000008
2.6613142490386963,-0.34483909606933594,0.36977067589759827,1.1600000000000008
2.4206695556640625,0.23586559295654297,0.0514070987701416,1.1700000000000008
2.191023826599121,0.6753883361816406,0.1041409969329834,1.1800000000000008
1.8755857944488525,1.2092208862304688,0.4873899519443512,1.1900000000000008
1.7551937103271484,1.6817588806152344,0.695997416973114,1.2000000000000008
1.834688425064087,2.1427011489868164,0.5737239122390747,1.2100000000000009
2.343435764312744,2.6590776443481445,0.28819626569747925,1.2200000000000009
3.0316214561462402,3.074666976928711,0.2412622570991516,1.2300000000000009
3.39723801612854,3.051685333251953,-0.015572011470794678,1.2400000000000009
3.856412649154663,2.328484535217285,-0.5357030630111694,1.2500000000000009
3.8494956493377686,1.4382171630859375,-0.8263998031616211,1.260000000000001
3.0491368770599365,0.05436992645263672,-0.8988481760025024,1.270000000000001
1.5802412033081055,-1.2337217330932617,-0.8540685772895813,1.280000000000001
0.3866724967956543,-2.1321921348571777,-0.8588151335716248,1.290000000000001
-0.14377117156982422,-2.569002151489258,-0.9230653047561646,1.300000000000001
-0.25330162048339844,-2.298945903778076,-0.7018480896949768,1.310000000000001
-0.29892778396606445,-1.4678301811218262,-0.3481109142303467,1.320000000000001
-0.3933861255645752,-0.29388904571533203,0.006588637828826904,1.330000000000001
-0.6744682788848877,0.6664361953735352,0.2992568612098694,1.340000000000001
-0.9479413032531738,1.3284845352172852,0.5462104082107544,1.350000000000001
-1.0452141761779785,1.8522815704345703,0.3041396141052246,1.360000000000001
-1.3264167308807373,2.4807558059692383,-0.42526960372924805,1.370000000000001
-1.5101661682128906,2.9461841583251953,-1.1976556777954102,1.380000000000001
-1.7941596508026123,3.2136707305908203,-1.9029123783111572,1.390000000000001
-2.000845432281494,2.95668888092041,-1.9273943901062012,1.400000000000001
-2.219747304916382,2.429891586303711,-1.2626005411148071,1.410000000000001
-2.011422872543335,1.6616954803466797,-0.1961829662322998,1.420000000000001
-1.1838157176971436,0.9955930709838867,1.187180757522583,1.430000000000001
-0.5546689033508301,0.8302841186523438,1.9641034603118896,1.440000000000001
-0.3418388366699219,0.6085166931152344,1.8573834896087646,1.450000000000001
-0.1302485466003418,0.4464092254638672,1.1084082126617432,1.460000000000001
-0.28288698196411133,0.18767452239990234,0.0505828857421875,1.470000000000001
-0.5531308650970459,0.1503610610961914,-0.960076093673706,1.480000000000001
-0.989079475402832,0.11219978332519531,-1.7366752624511719,1.490000000000001
-1.282654047012329,0.10541248321533203,-1.9374876022338867,1.500000000000001
-1.6419453620910645,0.030078887939453125,-1.8036043643951416,1.5100000000000011
-1.7369294166564941,-0.23109674453735352,-1.3762807846069336,1.5200000000000011
-1.4625799655914307,-0.6125311851501465,-0.9750633239746094,1.5300000000000011
-1.1768920421600342,-1.0033016204833984,-0.9087250232696533,1.5400000000000011
-1.1917486190795898,-1.3536639213562012,-1.0492768287658691,1.5500000000000012
-1.4911425113677979,-1.5728263854980469,-1.1121270656585693,1.5600000000000012
-2.054381847381592,-1.7464747428894043,-0.9507095813751221,1.5700000000000012
-2.5885000228881836,-1.9443302154541016,-0.628528356552124,1.5800000000000012
-2.957183599472046,-2.120511531829834,-0.4650402069091797,1.5900000000000012
-3.2203798294067383,-2.234222412109375,-0.5444290637969971,1.6000000000000012
-3.3017969131469727,-2.1756067276000977,-0.7918758392333984,1.6100000000000012
-2.9455323219299316,-2.0828614234924316,-0.7100517749786377,1.6200000000000012
-2.269540548324585,-2.045111656188965,-0.6097474098205566,1.6300000000000012
-1.7299649715423584,-2.0618996620178223,-0.5664079189300537,1.6400000000000012
-1.3540077209472656,-2.1192574501037598,-0.4936215877532959,1.6500000000000012
-1.169792890548706,-2.1293888092041016,-0.23582935333251953,1.6600000000000013
-0.9306938648223877,-1.9173426628112793,0.4451432228088379,1.6700000000000013
-0.6330032348632812,-1.3653473854064941,1.351876974105835,1.6800000000000013
-0.016477584838867188,-0.24853849411010742,2.524670124053955,1.6900000000000013
0.9381189346313477,1.1097936630249023,3.2674059867858887,1.7000000000000013
1.89268159866333,2.290694236755371,2.922538995742798,1.7100000000000013
2.928657054901123,3.1143569946289062,2.0284769535064697,1.7200000000000013
4.43334436416626,3.28383731842041,1.3899364471435547,1.7300000000000013
5.129758834838867,2.6791601181030273,1.440614938735962,1.7400000000000013
4.613170623779297,1.7851200103759766,2.114814281463623,1.7500000000000013
2.867663860321045,0.7141780853271484,3.434467077255249,1.7600000000000013
0.8167190551757812,-0.03111553192138672,4.096105575561523,1.7700000000000014
0.4796419143676758,0.42740821838378906,3.3501698970794678,1.7800000000000014
0.8275513648986816,1.5898714065551758,0.3225722312927246,1.7900000000000014
0.7406253814697266,1.6066341400146484,0.4050266742706299,1.8000000000000014
-0.5557055473327637,2.4190874099731445,-3.8684966564178467,1.8100000000000014
-1.592531442642212,3.68686580657959,-4.8961591720581055,1.8200000000000014
-3.884739398956299,4.933255195617676,-4.90787410736084,1.8300000000000014
-6.629307270050049,5.050792694091797,-3.633975028991699,1.8400000000000014
-8.110699653625488,3.3626317977905273,-0.9550739526748657,1.8500000000000014
-6.993513107299805,1.397435188293457,0.7726171016693115,1.8600000000000014
-4.424995422363281,-0.21422195434570312,1.52305269241333,1.8700000000000014
-2.531432867050171,-1.1956181526184082,1.0504097938537598,1.8800000000000014
-1.1705102920532227,-1.944023609161377,-0.29103970527648926,1.8900000000000015
-0.13698625564575195,-2.302107334136963,-2.0396804809570312,1.9000000000000015
0.7935075759887695,-2.3275656700134277,-3.7014646530151367,1.9100000000000015
1.3292737007141113,-2.0184903144836426,-4.639490127563477,1.9200000000000015
1.8531255722045898,-1.1093931198120117,-6.058629989624023,1.9300000000000015
2.3186564445495605,-0.004718780517578125,-6.652710437774658,1.9400000000000015
2.7086338996887207,0.3493070602416992,-5.378087043762207,1.9500000000000015
2.700709819793701,0.27901268005371094,-3.4766154289245605,1.9600000000000015
2.3197855949401855,-0.21010208129882812,-1.0959019660949707,1.9700000000000015
1.323209285736084,-0.6424970626831055,0.46420562267303467,1.9800000000000015
-0.08458518981933594,-0.3222923278808594,1.9511570930480957,1.9900000000000015
-0.8338799476623535,-0.02357196807861328,2.4661715030670166,2.0000000000000013
-1.1748535633087158,0.2250347137451172,1.7745718955993652,2.010000000000001
-1.3676979541778564,0.5520668029785156,0.45636749267578125,2.020000000000001
-1.2624380588531494,0.7035980224609375,-1.1751198768615723,2.0300000000000007
-1.1094529628753662,0.691166877746582,-2.1154773235321045,2.0400000000000005
-0.8313760757446289,0.4260549545288086,-2.7755327224731445,2.0500000000000003
-0.5578217506408691,-0.11005496978759766,-3.106511354446411,2.06
-0.23840856552124023,-0.689661979675293,-2.985064744949341,2.07
0.34705209732055664,-1.226590633392334,-2.2776360511779785,2.0799999999999996
1.1028704643249512,-1.7379422187805176,-0.9593371152877808,2.0899999999999994
1.3535985946655273,-2.052886486053467,0.22384098172187805,2.099999999999999
1.327768325805664,-2.1810269355773926,1.1593929529190063,2.109999999999999
1.3019213676452637,-2.0734500885009766,1.3857026100158691,2.1199999999999988
1.2330312728881836,-1.901899814605713,0.9419517517089844,2.1299999999999986
1.04107666015625,-1.842787742614746,0.09579947590827942,2.1399999999999983
0.5777797698974609,-1.457061767578125,-0.5949954986572266,2.149999999999998
0.23000812530517578,-0.6666173934936523,-0.8077735304832458,2.159999999999998
-0.0011563301086425781,0.14497089385986328,-0.5465482473373413,2.1699999999999977
-0.13067913055419922,0.49239063262939453,0.11439292132854462,2.1799999999999975
-0.13721799850463867,0.32613372802734375,0.9525765180587769,2.1899999999999973
0.046234130859375,-0.03285980224609375,1.6871668100357056,2.199999999999997
0.3499116897583008,-0.3971891403198242,1.8526962995529175,2.209999999999997
0.4361386299133301,-0.5268030166625977,1.3337246179580688,2.2199999999999966
0.4864025115966797,-0.6125402450561523,0.3354392647743225,2.2299999999999964
0.6725997924804688,-0.5667343139648438,-0.5213075876235962,2.239999999999996
1.1889939308166504,-0.6322154998779297,-0.7455899119377136,2.249999999999996
1.7722043991088867,-0.7457056045532227,-0.33584707975387573,2.259999999999996
2.202486753463745,-0.79986572265625,0.19115066528320312,2.2699999999999956
2.4604225158691406,-0.7266101837158203,0.48202377557754517,2.2799999999999954
2.641944408416748,-0.5290737152099609,0.6595132350921631,2.289999999999995
2.9997541904449463,-0.40119457244873047,0.6461086869239807,2.299999999999995
3.0827274322509766,-0.16980648040771484,0.6099512577056885,2.3099999999999947
3.1198630332946777,0.15774822235107422,0.7296398878097534,2.3199999999999945
2.8422250747680664,0.7272224426269531,0.9624607563018799,2.3299999999999943
2.4340920448303223,1.1934270858764648,1.1372305154800415,2.339999999999994
2.032715082168579,1.7088088989257812,1.3511302471160889,2.349999999999994
2.0416693687438965,1.699005126953125,1.3017024993896484,2.3599999999999937
2.4356794357299805,2.749812126159668,0.4420521855354309,2.3699999999999934
2.8081016540527344,2.729506492614746,0.00503087043762207,2.3799999999999932
3.061983346939087,1.6909637451171875,-0.395036518573761,2.389999999999993
2.889091968536377,0.8207292556762695,-0.556059718132019,2.399999999999993
2.372725486755371,-0.06228160858154297,-0.549272894859314,2.4099999999999926
1.5252087116241455,-0.903254508972168,-0.4448712468147278,2.4199999999999924
0.5520758628845215,-1.8409924507141113,-0.44732916355133057,2.429999999999992
-0.09357118606567383,-2.5178751945495605,-0.5334427952766418,2.439999999999992
-0.2387094497680664,-2.670243740081787,-0.563177227973938,2.4499999999999917
-0.1626296043395996,-2.1795878410339355,-0.552669882774353,2.4599999999999915
0.12656116485595703,-1.1962389945983887,-0.4089689552783966,2.4699999999999913
0.45678091049194336,-0.1957988739013672,-0.15951097011566162,2.479999999999991
0.34586095809936523,0.8744716644287109,-0.025865554809570312,2.489999999999991
0.18479013442993164,1.87542724609375,-0.0761955976486206,2.4999999999999907
-0.002257823944091797,3.1716766357421875,-0.4849779009819031,2.5099999999999905
-0.20918655395507812,4.1649675369262695,-1.1478302478790283,2.5199999999999902
-0.6235771179199219,4.821088790893555,-1.7958495616912842,2.52999999999999
-1.3841993808746338,5.109223365783691,-2.091848373413086,2.53999999999999
-2.318375825881958,4.503957748413086,-1.8250881433486938,2.5499999999999896
-3.450159788131714,3.144839286804199,-0.5901927947998047,2.5599999999999894
-3.140592098236084,1.1739864349365234,1.437016248703003,2.569999999999989
-3.108236789703369,1.236109733581543,1.1814916133880615,2.579999999999989
-1.2225794792175293,-0.3663363456726074,2.409339427947998,2.5899999999999888
-0.755692720413208,-0.38423967361450195,0.821012020111084,2.5999999999999885
-0.6282398700714111,-0.43129444122314453,-0.7722969055175781,2.6099999999999883
-0.6498763561248779,-0.36386728286743164,-0.9017128944396973,2.619999999999988
-0.6631805896759033,-0.46009063720703125,-2.0993189811706543,2.629999999999988
-0.677396297454834,-0.31699085235595703,-2.5554397106170654,2.6399999999999877
-0.8907818794250488,-0.20525026321411133,-1.8311070203781128,2.6499999999999875
-1.1521916389465332,-0.24701356887817383,-0.7620303630828857,2.6599999999999873
-1.1678540706634521,-0.4681968688964844,-0.28176212310791016,2.669999999999987
-1.0647447109222412,-0.7783927917480469,-0.3445432186126709,2.679999999999987
-1.1140925884246826,-1.1868705749511719,-0.684173583984375,2.6899999999999866
-1.344606637954712,-1.4043121337890625,-0.9239592552185059,2.6999999999999864
-1.752547025680542,-1.7216520309448242,-0.9786155223846436,2.709999999999986
-2.2879772186279297,-1.8931264877319336,-0.8955376148223877,2.719999999999986
-2.7983436584472656,-1.9114480018615723,-0.8472542762756348,2.7299999999999858
-3.1049814224243164,-1.852513313293457,-0.9227657318115234,2.7399999999999856
-3.307689666748047,-1.717851161956787,-1.1936650276184082,2.7499999999999853
-3.2618956565856934,-1.5595722198486328,-1.3981213569641113,2.759999999999985
-2.9303977489471436,-1.6127638816833496,-1.1426444053649902,2.769999999999985
-2.506141185760498,-1.9282417297363281,-0.6221249103546143,2.7799999999999847
-1.9175596237182617,-2.3493471145629883,-0.055809974670410156,2.7899999999999845
-1.889096736907959,-2.420156478881836,0.03952598571777344,2.7999999999999843
-0.8926107883453369,-3.318988800048828,1.365786075592041,2.809999999999984
-0.39789342880249023,-3.405395030975342,2.0858771800994873,2.819999999999984
-0.05937623977661133,-2.906996726989746,2.509410858154297,2.8299999999999836
0.29334449768066406,-1.8633613586425781,2.2233259677886963,2.8399999999999834
1.118729591369629,0.008084297180175781,1.6839115619659424,2.849999999999983
2.4078431129455566,2.402751922607422,1.308872938156128,2.859999999999983
4.169368267059326,4.988363265991211,1.3547518253326416,2.869999999999983
5.655166149139404,5.839064598083496,1.553675651550293,2.8799999999999826
6.247158050537109,5.190549850463867,2.2893199920654297,2.8899999999999824
5.512111186981201,3.576046943664551,4.405148983001709,2.899999999999982
3.737292766571045,1.118910789489746,5.486896514892578,2.909999999999982
2.5800628662109375,0.8806390762329102,4.80430269241333,2.9199999999999817
2.152576446533203,1.4684333801269531,2.303433418273926,2.9299999999999815
2.056004047393799,1.5242576599121094,2.3080084323883057,2.9399999999999813
-0.06735801696777344,1.346442699432373,-3.531125783920288,2.949999999999981
-0.08222293853759766,1.330805778503418,-3.4611668586730957,2.959999999999981
-4.650524139404297,4.32773494720459,-5.608019828796387,2.9699999999999807
-8.198139190673828,4.83781623840332,-5.439845085144043,2.9799999999999804
-10.351408004760742,3.433131217956543,-0.7387348413467407,2.9899999999999802
-8.2531156539917,1.8938541412353516,2.0661823749542236,2.99999999999998
-5.049069404602051,0.5932521820068359,1.8379969596862793,3.00999999999998
-2.703080654144287,-0.41190433502197266,0.40464019775390625,3.0199999999999796
-0.8661925792694092,-1.4078707695007324,-1.6302356719970703,3.0299999999999794
0.8868646621704102,-2.1046953201293945,-3.829944133758545,3.039999999999979
2.727564811706543,-2.341594696044922,-5.551294326782227,3.049999999999979
3.6342215538024902,-2.177170753479004,-6.221057415008545,3.0599999999999787
4.198972702026367,-1.366903305053711,-7.3275146484375,3.0699999999999785
4.171692848205566,-0.6837248802185059,-6.327949523925781,3.0799999999999783
3.4266982078552246,-0.5357065200805664,-2.93239164352417,3.089999999999978
1.5791878700256348,-0.5439743995666504,0.23411333560943604,3.099999999999978
-0.619861364364624,-0.5984148979187012,3.288168430328369,3.1099999999999777
-1.4625942707061768,-0.6590070724487305,4.448427677154541,3.1199999999999775
-2.0305938720703125,-0.4755744934082031,3.4519543647766113,3.1299999999999772
-2.107621431350708,-0.22236347198486328,1.2413880825042725,3.139999999999977
-2.0690228939056396,0.10630226135253906,-1.0481150150299072,3.149999999999977
-1.5845108032226562,0.30597877502441406,-2.907595157623291,3.1599999999999766
-0.5168447494506836,0.18520259857177734,-4.069010257720947,3.1699999999999764
0.11656618118286133,-0.12814807891845703,-4.122936248779297,3.179999999999976
0.3517913818359375,-0.51812744140625,-3.729736804962158,3.189999999999976
0.31340885162353516,-1.067455768585205,-2.775268316268921,3.1999999999999758
0.38659000396728516,-1.2751622200012207,-1.119152307510376,3.2099999999999755
0.5483665466308594,-1.0692224502563477,0.9307811856269836,3.2199999999999753
0.41248512268066406,-0.6810579299926758,2.681647777557373,3.229999999999975
-0.1133427619934082,-0.35174083709716797,2.774868965148926,3.239999999999975
-0.627474308013916,-0.0845193862915039,1.6231422424316406,3.2499999999999747
-1.018117904663086,0.08622169494628906,0.11970701813697815,3.2599999999999745
-1.0052576065063477,0.07691383361816406,0.24121451377868652,3.2699999999999743
-1.1203184127807617,-0.1349468231201172,-0.8268114328384399,3.279999999999974
-0.6475756168365479,-0.5115156173706055,-1.7451560497283936,3.289999999999974
-0.3313484191894531,-0.7303199768066406,-1.4359863996505737,3.2999999999999736
0.07021379470825195,-1.0951848030090332,-0.6946823596954346,3.3099999999999734
0.3052234649658203,-1.4434833526611328,0.27163535356521606,3.319999999999973
0.49439287185668945,-1.6354689598083496,1.1861083507537842,3.329999999999973
0.5162396430969238,-1.6803584098815918,1.7845430374145508,3.3399999999999728
0.5948529243469238,-1.452265739440918,1.828179121017456,3.3499999999999726
0.7850966453552246,-1.0737800598144531,1.4986443519592285,3.3599999999999723
0.9901299476623535,-0.46780872344970703,0.7080422639846802,3.369999999999972
1.128993034362793,-0.05354118347167969,-0.15207898616790771,3.379999999999972
1.3504629135131836,0.22928619384765625,-0.5832889080047607,3.3899999999999717
1.8256025314331055,0.46601104736328125,-0.37488090991973877,3.3999999999999715
2.664426565170288,0.3447761535644531,0.032297611236572266,3.4099999999999713
3.428805351257324,0.21433258056640625,0.5233541131019592,3.419999999999971
4.387082576751709,-0.23716354370117188,1.18038010597229,3.429999999999971
4.993960380554199,-0.45433521270751953,1.6588259935379028,3.4399999999999706
4.945121765136719,-0.3260774612426758,1.6593091487884521,3.4499999999999704
3.9133729934692383,0.2783184051513672,1.0880231857299805,3.45999999999997
2.57902455329895,1.3550796508789062,0.21884214878082275,3.46999999999997
2.499300241470337,2.2763595581054688,-0.24165832996368408,3.47999999999997
3.119825601577759,3.2644500732421875,-0.3062080144882202,3.4899999999999696
3.9092915058135986,3.432943344116211,-0.2173072099685669,3.4999999999999694
4.289722919464111,2.856882095336914,-0.44195330142974854,3.509999999999969
4.198052406311035,1.8089103698730469,-0.6289247274398804,3.519999999999969
3.6232738494873047,0.39966869354248047,-0.6086529493331909,3.5299999999999687
2.69405460357666,-0.7437343597412109,-0.5229557752609253,3.5399999999999685
1.3553051948547363,-1.8586149215698242,-0.4305993914604187,3.5499999999999683
0.30877161026000977,-2.3412017822265625,-0.5233781337738037,3.559999999999968
-0.3069283962249756,-2.4987120628356934,-0.7256631851196289,3.569999999999968
-0.9007349014282227,-2.1912078857421875,-0.47353219985961914,3.5799999999999677
-1.5363833904266357,-1.1257176399230957,0.551154375076294,3.5899999999999674
-1.9898943901062012,-0.09426116943359375,1.330289363861084,3.5999999999999672
-2.1996512413024902,0.39708423614501953,1.8137428760528564,3.609999999999967
-1.6988146305084229,0.5214576721191406,1.6544744968414307,3.619999999999967
-0.9370653629302979,0.7705135345458984,0.9092572927474976,3.6299999999999666
-0.5285582542419434,1.737691879272461,-0.0025637149810791016,3.6399999999999664
-0.3630962371826172,3.3715286254882812,-1.545966625213623,3.649999999999966
-0.4504532814025879,4.549422264099121,-2.4173898696899414,3.659999999999966
-0.4145188331604004,5.020622253417969,-2.1295690536499023,3.6699999999999657
-0.9873802661895752,4.383517265319824,-0.9203299283981323,3.6799999999999655
-1.3561599254608154,2.978520393371582,0.8522646427154541,3.6899999999999653
-1.1453533172607422,1.2756128311157227,1.5901968479156494,3.699999999999965
-1.1387314796447754,1.3488225936889648,1.3578789234161377,3.709999999999965
-0.33789968490600586,-0.06761598587036133,-0.042999267578125,3.7199999999999647
-0.0652461051940918,-0.3698711395263672,-1.1425793170928955,3.7299999999999645
-0.23123455047607422,-0.6211910247802734,-1.7281484603881836,3.7399999999999642
-0.758634090423584,-0.5905065536499023,-1.95919668674469,3.749999999999964
-1.218144416809082,-0.2829856872558594,-1.5946288108825684,3.759999999999964
-1.393115758895874,-0.005054950714111328,-0.7213332653045654,3.7699999999999636
-1.8748104572296143,0.3328423500061035,-0.5529029369354248,3.7799999999999634
-2.374641180038452,0.3647193908691406,-0.7141473293304443,3.789999999999963
-2.6941885948181152,0.13605308532714844,-1.0291810035705566,3.799999999999963
-2.738621711730957,-0.3123512268066406,-1.1792902946472168,3.8099999999999627
-2.7231385707855225,-0.8824338912963867,-1.1742711067199707,3.8199999999999625
-2.7583634853363037,-1.5481743812561035,-0.9408535957336426,3.8299999999999623
-2.8648505210876465,-2.101532459259033,-0.852379322052002,3.839999999999962
-3.0350003242492676,-2.64825439453125,-0.8314707279205322,3.849999999999962
-3.2945566177368164,-3.0058717727661133,-0.9076519012451172,3.8599999999999617
-3.3909101486206055,-2.885667324066162,-1.0929532051086426,3.8699999999999615
-3.2752466201782227,-2.770358085632324,-0.9332466125488281,3.8799999999999613
-3.0844764709472656,-2.8426218032836914,-0.8287672996520996,3.889999999999961
-2.823885679244995,-3.0259838104248047,-0.5504543781280518,3.899999999999961
-2.495121717453003,-3.2853550910949707,-0.02740764617919922,3.9099999999999606
-2.276014804840088,-3.6311490535736084,0.5140085220336914,3.9199999999999604
-2.099813938140869,-3.90561580657959,1.079096794128418,3.92999999999996
-1.9844961166381836,-3.932304859161377,1.7216100692749023,3.93999999999996
-1.5668385028839111,-3.246471405029297,1.9687073230743408,3.9499999999999598
-0.5369529724121094,-1.8223066329956055,1.8595683574676514,3.9599999999999596
1.2648706436157227,1.3387041091918945,1.5925891399383545,3.9699999999999593
2.8584351539611816,4.865571022033691,1.123934030532837,3.979999999999959
2.8724021911621094,4.801975250244141,1.267453670501709,3.989999999999959
7.26154899597168,7.419207572937012,2.7919182777404785,3.9999999999999587
9.500934600830078,4.789752960205078,7.018725872039795,4.009999999999959
9.253623008728027,1.7582101821899414,8.619382858276367,4.019999999999959
4.762213230133057,-0.8346529006958008,7.8180131912231445,4.0299999999999585
1.325169563293457,-1.0110163688659668,4.453787803649902,4.039999999999958
0.0857076644897461,-0.03568840026855469,0.07958149909973145,4.049999999999958
-0.20565557479858398,0.955564022064209,-2.8573060035705566,4.059999999999958
-0.7774019241333008,0.8442826271057129,-5.580844402313232,4.069999999999958
-1.4384679794311523,1.5822477340698242,-6.597354888916016,4.079999999999957
-3.265388011932373,3.6992173194885254,-7.899186134338379,4.089999999999957
-6.436968803405762,6.591452598571777,-9.831573486328125,4.099999999999957
-10.028533935546875,6.692374229431152,-4.774087429046631,4.109999999999957
-9.692378997802734,6.551936149597168,-4.946663856506348,4.119999999999957
-7.212431907653809,2.963865280151367,7.630659580230713,4.129999999999956
-5.01138162612915,0.9336767196655273,5.626947402954102,4.139999999999956
-3.7635483741760254,-1.1239938735961914,1.6505029201507568,4.149999999999956
-1.9068577289581299,-2.3127236366271973,-2.1842658519744873,4.159999999999956
-0.10764884948730469,-2.8453421592712402,-5.015680313110352,4.1699999999999555
1.2794699668884277,-2.8578686714172363,-6.541542053222656,4.179999999999955
1.988837718963623,-2.060548782348633,-8.135047912597656,4.189999999999955
2.1226978302001953,-0.6545162200927734,-11.125139236450195,4.199999999999955
2.75814151763916,0.17831039428710938,-8.854607582092285,4.209999999999955
2.775467872619629,0.2197408676147461,-4.736567974090576,4.2199999999999545
2.4561972618103027,-0.02602100372314453,-0.7083302140235901,4.229999999999954
1.9204955101013184,-0.8957424163818359,3.3286197185516357,4.239999999999954
0.6874284744262695,-1.676496982574463,6.793877601623535,4.249999999999954
-0.33196020126342773,-1.5153956413269043,6.576577186584473,4.259999999999954
-0.6877965927124023,-0.9627747535705566,3.305227041244507,4.269999999999953
-0.3725152015686035,-0.6776161193847656,0.038533687591552734,4.279999999999953
-0.14325857162475586,-0.6646981239318848,-2.3683271408081055,4.289999999999953
-0.08417224884033203,-0.8711366653442383,-3.930850028991699,4.299999999999953
-0.0655055046081543,-1.1718344688415527,-4.656691074371338,4.3099999999999525
0.013488292694091797,-1.305715560913086,-4.363332748413086,4.319999999999952
0.2844376564025879,-1.3452658653259277,-2.8291378021240234,4.329999999999952
0.5010862350463867,-1.1487336158752441,-0.2073795199394226,4.339999999999952
0.545586109161377,-0.9966416358947754,2.567425012588501,4.349999999999952
0.48453330993652344,-1.0183415412902832,4.303565502166748,4.3599999999999515
0.39670276641845703,-1.1446146965026855,3.9399070739746094,4.369999999999951
0.21209287643432617,-0.9802908897399902,1.9932653903961182,4.379999999999951
0.14769601821899414,-0.44809436798095703,0.0026183724403381348,4.389999999999951
0.14079856872558594,-0.4602384567260742,-1.389776587486267,4.399999999999951
0.4030647277832031,-0.8223142623901367,-1.8538758754730225,4.40999999999995
0.6027727127075195,-1.093937873840332,-1.2694737911224365,4.41999999999995
0.519629955291748,-1.2645916938781738,0.2957454323768616,4.42999999999995
0.5409698486328125,-1.4124293327331543,1.7670563459396362,4.43999999999995
0.5051994323730469,-1.4305853843688965,2.8912296295166016,4.4499999999999496
0.3130922317504883,-1.1918010711669922,2.752216339111328,4.459999999999949
-0.09905099868774414,-0.6926259994506836,1.7061090469360352,4.469999999999949
-0.5333685874938965,-0.1613912582397461,0.5490189790725708,4.479999999999949
-0.5693204402923584,0.3242635726928711,-0.20658814907073975,4.489999999999949
-0.11411046981811523,0.6840095520019531,-0.2992202639579773,4.4999999999999485
0.6583476066589355,1.0263099670410156,-0.3147362470626831,4.509999999999948
1.3072547912597656,1.1008586883544922,-0.5429624319076538,4.519999999999948
1.9307565689086914,0.873377799987793,-0.8180407285690308,4.529999999999948
2.4686269760131836,0.3682594299316406,-0.8311642408370972,4.539999999999948
3.0514254570007324,-0.5216836929321289,-0.1776343584060669,4.549999999999947
3.4516472816467285,-0.8178424835205078,1.0105384588241577,4.559999999999947
3.491258144378662,-0.5065202713012695,2.174325466156006,4.569999999999947
2.5571422576904297,0.3599739074707031,2.129422426223755,4.579999999999947
1.9278244972229004,1.2407073974609375,1.5115689039230347,4.589999999999947
2.028498649597168,1.939645767211914,0.8777903914451599,4.599999999999946
2.992398738861084,2.63427734375,0.22121667861938477,4.609999999999946
3.6893935203552246,2.9190406799316406,-0.2520865797996521,4.619999999999946
4.092156887054443,2.52823543548584,-0.7614739537239075,4.629999999999946
4.250110149383545,1.4901800155639648,-1.121701717376709,4.6399999999999455
3.7525296211242676,0.08001136779785156,-1.190800666809082,4.649999999999945
2.534247398376465,-1.0914039611816406,-0.9068515300750732,4.659999999999945
1.1332693099975586,-2.06514835357666,-0.5476309061050415,4.669999999999945
0.44355010986328125,-2.45405912399292,-0.3867277503013611,4.679999999999945
0.012339591979980469,-2.36004638671875,0.0509030818939209,4.689999999999944
-0.28877949714660645,-1.6035714149475098,0.8807446360588074,4.699999999999944
-0.39998936653137207,-0.5245256423950195,1.6731359958648682,4.709999999999944
-0.18409967422485352,0.27042484283447266,2.0031697750091553,4.719999999999944
0.31541013717651367,0.6231660842895508,1.6317360401153564,4.729999999999944
0.5111360549926758,0.9833593368530273,1.014945149421692,4.739999999999943
0.5921926498413086,1.9603195190429688,0.39379608631134033,4.749999999999943
0.49988508224487305,3.11685848236084,-0.60462486743927,4.759999999999943
-0.03258371353149414,4.349849700927734,-2.1829636096954346,4.769999999999943
-0.3288002014160156,4.838681221008301,-3.6544809341430664,4.7799999999999425
-1.157689094543457,4.246593475341797,-3.6685030460357666,4.789999999999942
-1.8226053714752197,3.048809051513672,-2.4912214279174805,4.799999999999942
-2.3633131980895996,1.58642578125,-0.4572570323944092,4.809999999999942
-1.9928035736083984,0.37308597564697266,1.5567867755889893,4.819999999999942
-1.4713857173919678,-0.2640366554260254,2.1647841930389404,4.8299999999999415
-1.2374777793884277,-0.5148301124572754,1.1204729080200195,4.839999999999941
-1.0936415195465088,-0.7134418487548828,-0.5600588321685791,4.849999999999941
-1.1886286735534668,-0.7366147041320801,-1.8259625434875488,4.859999999999941
-1.3529751300811768,-0.6592473983764648,-2.7516515254974365,4.869999999999941
-1.574967861175537,-0.48001813888549805,-3.068382501602173,4.87999999999994
-1.945338249206543,-0.21487140655517578,-2.6985936164855957,4.88999999999994
-2.205308198928833,-0.05504179000854492,-1.2869656085968018,4.89999999999994
-2.3402862548828125,-0.2734861373901367,-0.3127610683441162,4.90999999999994
-2.0586159229278564,-0.6492218971252441,-0.0873098373413086,4.9199999999999395
-1.6719279289245605,-1.096189022064209,-0.32897281646728516,4.929999999999939
-1.390305995941162,-1.442622184753418,-0.7002348899841309,4.939999999999939
-1.391636848449707,-1.701270580291748,-0.9716508388519287,4.949999999999939
-1.7827746868133545,-1.897817611694336,-1.190380573272705,4.959999999999939
-2.4683101177215576,-2.0096850395202637,-1.3019263744354248,4.9699999999999385
-2.9536147117614746,-2.043379306793213,-1.3042917251586914,4.979999999999938
-3.4209275245666504,-2.104708194732666,-1.3126640319824219,4.989999999999938
-3.7676522731781006,-2.270920753479004,-1.2643258571624756,4.999999999999938
-4.096275329589844,-2.516378879547119,-1.030069351196289,5.009999999999938
-4.057459831237793,-2.834886074066162,-0.6110749244689941,5.019999999999937
-3.3597500324249268,-3.2136850357055664,-0.07171487808227539,5.029999999999937
-2.709439277648926,-3.3326163291931152,-0.13042712211608887,5.039999999999937
-1.8559298515319824,-3.105452537536621,-0.3308384418487549,5.049999999999937
-1.003986120223999,-2.3686842918395996,0.13774728775024414,5.0599999999999365
-0.39489126205444336,-1.3339214324951172,1.0915906429290771,5.069999999999936
0.32915210723876953,0.25497865676879883,2.3802614212036133,5.079999999999936
1.9512438774108887,2.9868431091308594,4.060081481933594,5.089999999999936
3.5381598472595215,5.221988677978516,4.38330078125,5.099999999999936
5.087612628936768,6.79459285736084,3.4723286628723145,5.1099999999999355
6.51734733581543,6.306304931640625,2.179168224334717,5.119999999999935
7.566646575927734,4.474160194396973,3.7536532878875732,5.129999999999935
6.540011405944824,1.087285041809082,6.909071922302246,5.139999999999935
2.170769214630127,-1.2402973175048828,7.656639099121094,5.149999999999935
0.2638254165649414,-1.6847820281982422,5.831263542175293,5.159999999999934
0.1034393310546875,-1.543541431427002,2.3891916275024414,5.169999999999934
0.1496720314025879,-0.3558235168457031,-1.018158197402954,5.179999999999934
-0.22041082382202148,0.7021336555480957,-3.806601047515869,5.189999999999934
-0.46230173110961914,0.9055042266845703,-5.894070625305176,5.199999999999934
-1.6215195655822754,2.3438897132873535,-6.389675617218018,5.209999999999933
-3.623552083969116,5.606650352478027,-9.159976959228516,5.219999999999933
-6.911329746246338,9.089792251586914,-8.703798294067383,5.229999999999933
-8.34111499786377,7.561821937561035,1.502307653427124,5.239999999999933
-4.538945198059082,2.501824378967285,9.460227966308594,5.2499999999999325
-2.506469488143921,-0.9208230972290039,7.057621955871582,5.259999999999932
-2.0491037368774414,-3.050457000732422,1.623809814453125,5.269999999999932
-1.3966283798217773,-3.9030399322509766,-1.973165512084961,5.279999999999932
-0.4482541084289551,-3.815553665161133,-5.3605756759643555,5.289999999999932
0.32080698013305664,-3.4314827919006348,-7.213611602783203,5.299999999999931
0.6468977928161621,-2.7598156929016113,-7.972529411315918,5.309999999999931
0.4186830520629883,-1.3025760650634766,-9.788922309875488,5.319999999999931
0.42982006072998047,0.539454460144043,-10.973621368408203,5.329999999999931
1.0758800506591797,0.9743986129760742,-7.708963871002197,5.339999999999931
1.8500275611877441,1.0220050811767578,-2.5578489303588867,5.34999999999993
1.998056411743164,1.078608512878418,2.945054769515991,5.35999999999993
-0.025996685028076172,1.0385942459106445,7.736138343811035,5.36999999999993
-1.3443067073822021,0.41359996795654297,8.641958236694336,5.37999999999993
-1.2995102405548096,-0.035655975341796875,4.077208995819092,5.3899999999999295
-1.1411991119384766,-0.03191375732421875,0.26657533645629883,5.399999999999929
-1.2997655868530273,0.05979442596435547,-2.761439800262451,5.409999999999929
-1.4594042301177979,-0.0035982131958007812,-4.81675386428833,5.419999999999929
-1.1865882873535156,-0.10725879669189453,-5.534694671630859,5.429999999999929
-0.7835440635681152,-0.5584516525268555,-5.281609058380127,5.4399999999999284
-0.3533058166503906,-1.156221866607666,-4.260303020477295,5.449999999999928
0.21042823791503906,-1.5408010482788086,-2.8265252113342285,5.459999999999928
0.951606273651123,-1.7787823677062988,-0.6446479558944702,5.469999999999928
1.7193317413330078,-1.8004069328308105,1.9318336248397827,5.479999999999928
2.1965975761413574,-1.6908321380615234,3.6598947048187256,5.489999999999927
1.8033537864685059,-1.4300918579101562,3.530068874359131,5.499999999999927
0.3965792655944824,-0.838320255279541,1.563385248184204,5.509999999999927
-0.4199647903442383,-0.3024749755859375,0.03183269500732422,5.519999999999927
-0.7440221309661865,0.03769683837890625,-1.2051243782043457,5.5299999999999265
-0.7265772819519043,0.11964702606201172,-1.5625710487365723,5.539999999999926
-0.6568374633789062,-0.1438455581665039,-0.9075803756713867,5.549999999999926
-0.4127540588378906,-0.4919910430908203,0.39885413646698,5.559999999999926
-0.032918453216552734,-0.9552569389343262,1.9347070455551147,5.569999999999926
0.19774103164672852,-1.101078987121582,2.6028337478637695,5.5799999999999255
0.339383602142334,-1.0994267463684082,2.3588197231292725,5.589999999999925
0.4414949417114258,-0.8719692230224609,1.4526190757751465,5.599999999999925
0.5641331672668457,-0.73297119140625,0.5099399089813232,5.609999999999925
0.8311548233032227,-0.5978193283081055,-0.056849658489227295,5.619999999999925
1.4396185874938965,-0.47111034393310547,0.019661664962768555,5.629999999999924
1.9585704803466797,-0.4217977523803711,0.31690818071365356,5.639999999999924
2.542479991912842,-0.398681640625,0.5405194163322449,5.649999999999924
3.0493500232696533,-0.4465970993041992,0.477100670337677,5.659999999999924
3.3827853202819824,-0.41964149475097656,0.18857741355895996,5.6699999999999235
3.6287412643432617,-0.565342903137207,0.1147010326385498,5.679999999999923
3.9318954944610596,-0.755345344543457,0.731754720211029,5.689999999999923
4.0867719650268555,-0.49738597869873047,1.49159574508667,5.699999999999923
3.408360004425049,0.6523494720458984,1.5793949365615845,5.709999999999923
2.6224420070648193,1.9470386505126953,1.1698415279388428,5.7199999999999225
2.659345865249634,2.9285640716552734,0.48334258794784546,5.729999999999922
3.346208333969116,3.498575210571289,-0.2410585880279541,5.739999999999922
4.091767311096191,3.4208507537841797,-0.6747124195098877,5.749999999999922
4.500918388366699,2.7755422592163086,-0.8791697025299072,5.759999999999922
4.42586612701416,1.3354425430297852,-0.6801792979240417,5.769999999999921
3.431901216506958,-0.061626434326171875,-0.32626813650131226,5.779999999999921
1.9416534900665283,-1.166518211364746,-0.17264413833618164,5.789999999999921
0.7532525062561035,-1.8915653228759766,-0.1663837432861328,5.799999999999921
0.050750732421875,-2.405853748321533,-0.19214046001434326,5.809999999999921
-0.1043858528137207,-2.3228201866149902,-0.11497443914413452,5.81999999999992
-0.24990081787109375,-1.7576603889465332,0.24997451901435852,5.82999999999992
-0.32047080993652344,-1.70737886428833,-0.01100456714630127,5.83999999999992
-0.5313754081726074,0.24767494201660156,0.7203237414360046,5.84999999999992
-0.17062997817993164,0.7937145233154297,0.6697238683700562,5.8599999999999195
-0.09416007995605469,1.5625858306884766,0.4192460775375366,5.869999999999919
-0.055428504943847656,2.343216896057129,-0.25175487995147705,5.879999999999919
-0.3458743095397949,3.2942628860473633,-1.9339948892593384,5.889999999999919
-0.6883673667907715,4.078425407409668,-4.140971660614014,5.899999999999919
-0.7394776344299316,4.264505386352539,-4.762143611907959,5.909999999999918
-0.9310898780822754,3.8352298736572266,-3.231971263885498,5.919999999999918
-2.221937417984009,2.432978630065918,1.8590495586395264,5.929999999999918
-2.585048198699951,0.9813165664672852,5.616997718811035,5.939999999999918
-1.7923803329467773,-0.05294513702392578,3.8865745067596436,5.949999999999918
-1.2160770893096924,-0.310056209564209,0.9520537853240967,5.959999999999917
-0.8656604290008545,-0.37865114212036133,-1.3377459049224854,5.969999999999917
-0.87019944190979,-0.3581414222717285,-2.8328423500061035,5.979999999999917
-1.1070835590362549,-0.13144874572753906,-3.4127843379974365,5.989999999999917
-1.296401023864746,0.0529322624206543,-2.8801188468933105,5.9999999999999165
-1.7060637474060059,0.19604873657226562,-1.5240769386291504,6.009999999999916
-2.0925302505493164,0.2720961570739746,0.33071470260620117,6.019999999999916
-2.264608144760132,0.14686298370361328,1.0789284706115723,6.029999999999916
-2.0585553646087646,-0.3091115951538086,0.597083568572998,6.039999999999916
-1.8259801864624023,-0.8914322853088379,-0.3009603023529053,6.0499999999999154
-1.7204885482788086,-1.3399066925048828,-0.774298906326294,6.059999999999915
-1.6619188785552979,-1.8981776237487793,-1.0626661777496338,6.069999999999915
-1.9155910015106201,-2.296738624572754,-1.0511786937713623,6.079999999999915
-2.4679713249206543,-2.6132922172546387,-0.9318127632141113,6.089999999999915
-3.0420303344726562,-2.9708051681518555,-0.7985453605651855,6.099999999999914
-3.7207882404327393,-2.9935202598571777,-0.8650362491607666,6.109999999999914
-3.936208963394165,-2.769012928009033,-1.0792746543884277,6.119999999999914
-3.9327869415283203,-2.632816791534424,-0.9852104187011719,6.129999999999914
-3.6211671829223633,-2.7049388885498047,-0.515902042388916,6.1399999999999135
-2.7991437911987305,-3.009983539581299,0.053847312927246094,6.149999999999913
-2.0683250427246094,-3.3353238105773926,0.4740018844604492,6.159999999999913
-1.4924988746643066,-3.4725308418273926,0.8231277465820312,6.169999999999913
-0.9838225841522217,-3.3012943267822266,1.4427292346954346,6.179999999999913
-0.27876806259155273,-2.727166175842285,2.187044382095337,6.1899999999999125
0.7278127670288086,-1.6504650115966797,2.4788057804107666,6.199999999999912
1.8875293731689453,0.21849775314331055,2.5763354301452637,6.209999999999912
3.14454984664917,2.576076030731201,2.5827672481536865,6.219999999999912
4.575534820556641,4.94697380065918,2.655911445617676,6.229999999999912
5.622345924377441,5.966461181640625,2.656574249267578,6.239999999999911
6.8535003662109375,5.630410194396973,2.740572690963745,6.249999999999911
7.5342864990234375,3.8119735717773438,3.6755995750427246,6.259999999999911
6.684129238128662,0.7038278579711914,4.367456436157227,6.269999999999911
6.601067543029785,0.785984992980957,4.284956455230713,6.2799999999999105
2.3051905632019043,2.2588772773742676,2.7255330085754395,6.28999999999991
0.9248223304748535,2.869353771209717,1.0596628189086914,6.29999999999991
-0.49382686614990234,2.501230239868164,-1.037968397140503,6.30999999999991
-1.9985101222991943,2.3335447311401367,-3.5212039947509766,6.31999999999991
-4.163213729858398,3.014148235321045,-5.4224982261657715,6.3299999999999095
-6.986507415771484,3.545095443725586,-6.067129135131836,6.339999999999909
-9.575885772705078,2.362277030944824,-2.0432825088500977,6.349999999999909
-9.991619110107422,1.201014518737793,2.1667027473449707,6.359999999999909
-7.14204740524292,-0.4947786331176758,3.286067485809326,6.369999999999909
-3.872596502304077,-1.2092986106872559,1.7960758209228516,6.379999999999908
-2.0532217025756836,-1.2176318168640137,-0.7189712524414062,6.389999999999908
-0.7514183521270752,-1.0275063514709473,-2.8690638542175293,6.399999999999908
0.30225658416748047,-0.7381110191345215,-4.703338146209717,6.409999999999908
1.1308832168579102,-0.580723762512207,-5.967074871063232,6.419999999999908
1.4792990684509277,-0.012776374816894531,-7.526091575622559,6.429999999999907
1.974581241607666,0.4551677703857422,-7.933577060699463,6.439999999999907
2.502706527709961,0.42262935638427734,-5.675448417663574,6.449999999999907
2.745965003967285,0.06502723693847656,-2.6230220794677734,6.459999999999907
2.809260845184326,-0.5074563026428223,0.7794749736785889,6.4699999999999065
2.286576747894287,-1.0546374320983887,2.9548518657684326,6.479999999999906
0.2465205192565918,-0.7072944641113281,3.642548084259033,6.489999999999906
-0.7129278182983398,-0.3149585723876953,3.018876075744629,6.499999999999906
-1.0117251873016357,-0.06978130340576172,1.5699167251586914,6.509999999999906
-1.1836895942687988,0.17856407165527344,0.11057567596435547,6.519999999999905
-1.191884994506836,0.1560192108154297,0.2646716833114624,6.529999999999905
-1.0744948387145996,0.37620067596435547,-2.6946048736572266,6.539999999999905
-0.7722463607788086,0.4752531051635742,-3.5052950382232666,6.549999999999905
-0.5285091400146484,0.34778404235839844,-3.682234764099121,6.559999999999905
-0.46144723892211914,-0.17473411560058594,-3.4153027534484863,6.569999999999904
-0.433743953704834,-0.8838720321655273,-2.7166378498077393,6.579999999999904
-0.2409687042236328,-1.5236353874206543,-1.4261982440948486,6.589999999999904
0.12210893630981445,-1.8218884468078613,-0.13859862089157104,6.599999999999904
0.5794291496276855,-1.9039840698242188,1.2582507133483887,6.6099999999999035
0.8622260093688965,-1.7573981285095215,2.007976770401001,6.619999999999903
0.7136569023132324,-1.568161964416504,1.804126262664795,6.629999999999903
0.4447970390319824,-1.2751812934875488,0.9286620616912842,6.639999999999903
0.1619434356689453,-1.14634370803833,-0.055979371070861816,6.649999999999903
0.23184776306152344,-1.2525949478149414,-0.3447178602218628,6.659999999999902
0.4009675979614258,-1.301255226135254,-0.3401317596435547,6.669999999999902
0.7752737998962402,-1.5056815147399902,0.34976014494895935,6.679999999999902
0.9575719833374023,-1.801692008972168,1.4533884525299072,6.689999999999902
0.9883503913879395,-1.740410327911377,2.3707973957061768,6.699999999999902
0.8057732582092285,-1.314415454864502,1.9343724250793457,6.709999999999901
0.5553441047668457,-0.946357250213623,0.7863519191741943,6.719999999999901
0.4265103340148926,-0.5391836166381836,-0.5802057385444641,6.729999999999901
0.6270298957824707,-0.1405487060546875,-1.133941888809204,6.739999999999901
1.1322875022888184,0.1837310791015625,-0.5091237425804138,6.7499999999999005
1.839585304260254,0.3585243225097656,0.5247382521629333,6.7599999999999
2.3263421058654785,0.30050086975097656,0.8946800827980042,6.7699999999999
2.503021717071533,0.1925363540649414,0.7031928896903992,6.7799999999999
2.760127544403076,0.05483055114746094,0.5351224541664124,6.7899999999999
3.0477800369262695,0.015048980712890625,0.632092297077179,6.7999999999998995
3.3593854904174805,0.11141777038574219,0.8558775186538696,6.809999999999899
3.551621437072754,0.4005622863769531,0.952900230884552,6.819999999999899
3.593036651611328,1.0993366241455078,0.5315526723861694,6.829999999999899
3.66469407081604,1.9724349975585938,0.05099022388458252,6.839999999999899
4.018514156341553,2.8888750076293945,-0.530238151550293,6.849999999999898
4.434892654418945,3.2088851928710938,-0.6137427687644958,6.859999999999898
4.759978294372559,2.4219799041748047,-0.17892765998840332,6.869999999999898
4.427130222320557,1.2229070663452148,0.3919987380504608,6.879999999999898
3.108492374420166,0.3369426727294922,0.7548293471336365,6.8899999999998975
2.022529125213623,-0.28421592712402344,0.40788793563842773,6.899999999999897
1.9792590141296387,-0.2702140808105469,0.20462249219417572,6.909999999999897
0.317227840423584,-1.813614845275879,-0.6012123823165894,6.919999999999897
0.027107715606689453,-2.0553340911865234,-1.120184302330017,6.929999999999897
-0.34035730361938477,-1.7751784324645996,-1.3384233713150024,6.9399999999998965
-0.7864055633544922,-0.6400384902954102,-0.9078902006149292,6.949999999999896
-0.9273190498352051,0.12315082550048828,-0.220517098903656,6.959999999999896
-0.9723081588745117,0.7601613998413086,0.7577201128005981,6.969999999999896
-0.8312702178955078,1.673323631286621,0.8089540004730225,6.979999999999896
-0.8999390602111816,2.7375993728637695,0.284182071685791,6.989999999999895
-1.0486657619476318,3.729973793029785,-0.8199480772018433,6.999999999999895
-1.0361049175262451,4.587080955505371,-1.8219764232635498,7.009999999999895
-1.0104539394378662,4.814770698547363,-1.4614453315734863,7.019999999999895
-1.4416639804840088,4.211480140686035,0.39258670806884766,7.0299999999998946
-1.5537292957305908,2.802366256713867,2.4011099338531494,7.039999999999894
-0.9310321807861328,1.2831487655639648,2.2969107627868652,7.049999999999894
-0.4662141799926758,0.47669124603271484,1.090954065322876,7.059999999999894
-0.23866033554077148,0.03985595703125,-0.5170385837554932,7.069999999999894
-0.17102336883544922,-0.2906346321105957,-1.5462737083435059,7.0799999999998935
-0.1235952377319336,-0.7007527351379395,-2.218554973602295,7.089999999999893
-0.42163896560668945,-1.0887227058410645,-2.2964015007019043,7.099999999999893
-0.9555952548980713,-1.220510482788086,-1.611921787261963,7.109999999999893
-1.6045575141906738,-1.2606005668640137,-0.7784860134124756,7.119999999999893
-1.9139609336853027,-1.3493032455444336,-0.07724380493164062,7.129999999999892
-1.7141876220703125,-1.4464073181152344,-0.16855430603027344,7.139999999999892
-1.3374309539794922,-1.5968332290649414,-0.5008261203765869,7.149999999999892
-1.0895586013793945,-1.6725797653198242,-0.9480493068695068,7.159999999999892
-1.0429420471191406,-1.722520351409912,-1.4005541801452637,7.169999999999892
-1.3525512218475342,-1.7196083068847656,-1.6232049465179443,7.179999999999891
-2.06785249710083,-1.6948161125183105,-1.534304141998291,7.189999999999891
-2.6770670413970947,-1.7348952293395996,-1.309093952178955,7.199999999999891
-3.2920761108398438,-1.8953948020935059,-1.1647326946258545,7.209999999999891
-3.594583511352539,-2.0449719429016113,-1.196669101715088,7.2199999999998905
-3.4842708110809326,-2.27085018157959,-1.1374101638793945,7.22999999999989
-3.231203556060791,-2.51865291595459,-0.8677232265472412,7.23999999999989
-2.9347195625305176,-2.751779079437256,-0.5736560821533203,7.24999999999989
-2.6030867099761963,-2.8911943435668945,-0.5849971771240234,7.25999999999989
-2.0959885120391846,-2.9243297576904297,-0.898073673248291,7.269999999999889
-1.568645715713501,-2.738739490509033,-0.9313347339630127,7.279999999999889
-0.9950149059295654,-2.4263386726379395,-0.4288628101348877,7.289999999999889
-0.36872005462646484,-1.8237380981445312,0.5891308784484863,7.299999999999889
0.6557097434997559,-0.7710680961608887,2.3328495025634766,7.309999999999889
1.3782382011413574,0.8410954475402832,3.6164309978485107,7.319999999999888
2.2055087089538574,2.8250603675842285,3.702033281326294,7.329999999999888
3.1293630599975586,4.5659942626953125,2.734612464904785,7.339999999999888
4.4488444328308105,5.197419166564941,2.4476499557495117,7.349999999999888
5.77643346786499,3.926595687866211,2.9269840717315674,7.3599999999998875
6.462985038757324,1.8132343292236328,4.20091438293457,7.369999999999887
5.683823585510254,0.08970355987548828,5.056000709533691,7.379999999999887
2.7282986640930176,-1.4838824272155762,5.26953125,7.389999999999887
0.1658787727355957,-2.7764806747436523,4.0887451171875,7.399999999999887
-1.4732542037963867,-3.4715323448181152,1.8111011981964111,7.4099999999998865
-1.782170057296753,-2.5288376808166504,-0.7712218761444092,7.419999999999886
-0.8495273590087891,0.825958251953125,-2.342278003692627,7.429999999999886
-0.10796165466308594,2.590177536010742,-3.4180054664611816,7.439999999999886
-0.2603020668029785,3.5523014068603516,-4.6258134841918945,7.449999999999886
-1.524831771850586,5.188602924346924,-5.243256568908691,7.459999999999885
-3.8715434074401855,8.215423583984375,-7.028260231018066,7.469999999999885
-6.680346488952637,9.883499145507812,-6.763555526733398,7.479999999999885
-6.533166885375977,5.358911514282227,3.0251352787017822,7.489999999999885
-3.2824203968048096,0.710693359375,7.622719764709473,7.4999999999998845
-1.6343276500701904,-2.179154396057129,5.498743057250977,7.509999999999884
-0.8953003883361816,-3.497722625732422,1.0463557243347168,7.519999999999884
-0.4004020690917969,-3.6431708335876465,-3.256474256515503,7.529999999999884
-0.06690740585327148,-2.761162281036377,-6.380302429199219,7.539999999999884
0.11026477813720703,-1.4351091384887695,-7.79263973236084,7.5499999999998835
0.03640317916870117,-1.4858112335205078,-7.477520942687988,7.559999999999883
0.1826343536376953,1.5064115524291992,-9.369996070861816,7.569999999999883
1.1693639755249023,3.0489797592163086,-8.656997680664062,7.579999999999883
2.367035388946533,2.812742233276367,-2.9994192123413086,7.589999999999883
1.8496956825256348,1.6103315353393555,1.8281069993972778,7.599999999999882
-0.46670055389404297,0.2496480941772461,5.924402236938477,7.609999999999882
-1.858503818511963,-0.43121767044067383,6.975635051727295,7.619999999999882
-2.4282522201538086,-0.5087389945983887,4.43220329284668,7.629999999999882
-2.4127449989318848,-0.22274494171142578,0.9361927509307861,7.6399999999998816
-2.378087282180786,0.029456138610839844,-1.8019160032272339,7.649999999999881
-2.507793664932251,0.038544654846191406,-4.021475791931152,7.659999999999881
-2.003514289855957,-0.17888259887695312,-5.236946105957031,7.669999999999881
-1.2242915630340576,-0.27454376220703125,-5.288618087768555,7.679999999999881
-0.22381353378295898,-0.4779186248779297,-4.575475215911865,7.6899999999998805
0.7077879905700684,-0.7983274459838867,-3.266688823699951,7.69999999999988
1.3939628601074219,-1.1546497344970703,-1.5888350009918213,7.70999999999988
1.9620819091796875,-1.6188693046569824,0.4459809958934784,7.71999999999988
2.076751232147217,-1.8414487838745117,2.595937967300415,7.72999999999988
1.8824834823608398,-1.953056812286377,3.4543991088867188,7.739999999999879
1.3372607231140137,-1.7610459327697754,2.7854857444763184,7.749999999999879
0.7104301452636719,-1.405268669128418,1.2812156677246094,7.759999999999879
0.20674562454223633,-0.920496940612793,-0.2339865267276764,7.769999999999879
0.09306478500366211,-0.5405359268188477,-1.2486660480499268,7.779999999999879
0.3103623390197754,-0.47776126861572266,-1.3222419023513794,7.789999999999878
0.5749320983886719,-0.529301643371582,-0.5561820268630981,7.799999999999878
0.7334322929382324,-0.7403216361999512,0.7339569330215454,7.809999999999878
0.7235007286071777,-0.854060173034668,1.8362927436828613,7.819999999999878
0.709627628326416,-0.8723902702331543,2.140820026397705,7.8299999999998775
0.5986547470092773,-0.7768363952636719,1.6747907400131226,7.839999999999877
0.568450927734375,-0.8292417526245117,0.7814240455627441,7.849999999999877
0.640871524810791,-0.7001791000366211,0.09081462025642395,7.859999999999877
0.7469034194946289,-0.6500616073608398,-0.5057289600372314,7.869999999999877
1.1273870468139648,-0.6698465347290039,-0.8156997561454773,7.879999999999876
1.1528849601745605,-0.6780109405517578,-0.7525015473365784,7.889999999999876
1.9169297218322754,-1.35927152633667,-0.5754420161247253,7.899999999999876
2.378744602203369,-1.7896575927734375,0.044348835945129395,7.909999999999876
2.7916274070739746,-1.847701072692871,0.6642617583274841,7.919999999999876
3.08419132232666,-1.4149823188781738,0.9633990526199341,7.929999999999875
2.5669913291931152,-0.7250099182128906,0.5875065326690674,7.939999999999875
1.12568998336792,0.1087646484375,0.08814829587936401,7.949999999999875
0.4673027992248535,0.5511093139648438,0.16260278224945068,7.959999999999875
0.5278301239013672,1.057246208190918,0.8857585191726685,7.9699999999998745
1.018871784210205,1.480276107788086,1.0044355392456055,7.979999999999874
1.6736693382263184,2.0343399047851562,0.54532790184021,7.989999999999874
