AccX,AccY,AccZ,SampleRate
3.4425275325775146,3.3923540115356445,2.2647299766540527,0
3.3340041637420654,4.36647891998291,1.6535744667053223,0.01
2.7524867057800293,5.36092472076416,0.5972018241882324,0.02
2.7040605545043945,5.452777862548828,-0.185593843460083,0.03
2.801692008972168,4.613243103027344,-0.773087739944458,0.04
3.096456527709961,2.9608545303344727,-1.0965217351913452,0.05
3.1171491146087646,1.2352514266967773,-0.9632017016410828,0.060000000000000005
2.8316636085510254,-0.1506519317626953,-0.7148749232292175,0.07
2.2069976329803467,-1.438985824584961,-0.40860146284103394,0.08
1.6648013591766357,-2.3452582359313965,-0.334134966135025,0.09
1.1786030530929565,-2.7890214920043945,-0.2116992324590683,0.09999999999999999
0.7451435327529907,-2.7408227920532227,-0.11174436658620834,0.10999999999999999
0.23946243524551392,-2.0882463455200195,0.16902443766593933,0.11999999999999998
-0.3489842414855957,-1.3684091567993164,0.415635883808136,0.12999999999999998
-0.5850757956504822,-0.5678043365478516,0.6870726943016052,0.13999999999999999
-0.43954741954803467,0.11631584167480469,0.8335930109024048,0.15
-0.28821954131126404,1.3641862869262695,0.7260951995849609,0.16
-0.3618343770503998,2.82051944732666,-0.04232633113861084,0.17
-0.8969981670379639,4.5831804275512695,-1.6349698305130005,0.18000000000000002
-1.645045518875122,5.740594863891602,-2.825122833251953,0.19000000000000003
-2.2707979679107666,5.261252403259277,-2.82724928855896,0.20000000000000004
-2.6346402168273926,4.186775207519531,-2.5825767517089844,0.21000000000000005
-2.8895516395568848,3.012078285217285,-2.3042726516723633,0.22000000000000006
-2.8174381256103516,1.8127050399780273,-2.048396348953247,0.23000000000000007
-2.6054627895355225,0.6500930786132812,-1.7604258060455322,0.24000000000000007
-2.354627847671509,-0.28022289276123047,-1.5175310373306274,0.25000000000000006
-2.048182487487793,-1.1880016326904297,-1.4915590286254883,0.26000000000000006
-1.8249783515930176,-1.8069605827331543,-1.6908197402954102,0.2700000000000001
-1.5304855108261108,-2.365090847015381,-2.0841798782348633,0.2800000000000001
-1.2303969860076904,-2.956997871398926,-2.419355869293213,0.2900000000000001
-1.0564384460449219,-3.4173097610473633,-2.571791410446167,0.3000000000000001
-1.0104235410690308,-3.8055100440979004,-2.4831957817077637,0.3100000000000001
-1.174190640449524,-3.913806915283203,-2.133653402328491,0.3200000000000001
-1.4069856405258179,-3.9016284942626953,-1.9383982419967651,0.3300000000000001
-1.7110334634780884,-3.9285244941711426,-1.5400669574737549,0.34000000000000014
-1.932750940322876,-4.001091480255127,-0.8942286968231201,0.35000000000000014
-2.1716742515563965,-4.011398792266846,-0.1686105728149414,0.36000000000000015
-2.2980117797851562,-3.979640007019043,0.47579097747802734,0.37000000000000016
-2.2364845275878906,-4.0294013023376465,0.775993824005127,0.38000000000000017
-2.166001796722412,-4.2003865242004395,0.884821891784668,0.3900000000000002
-2.0337820053100586,-4.484939098358154,0.934298038482666,0.4000000000000002
-1.8328958749771118,-4.723056793212891,0.9676318168640137,0.4100000000000002
-1.5621461868286133,-4.85142707824707,0.9301719665527344,0.4200000000000002
-1.2972798347473145,-4.89245080947876,0.9322175979614258,0.4300000000000002
-1.153982162475586,-4.678774356842041,1.0237274169921875,0.4400000000000002
-0.8709868788719177,-4.39163064956665,1.3202886581420898,0.45000000000000023
-0.8221608400344849,-4.46829080581665,1.4850728511810303,0.46000000000000024
0.26210522651672363,-1.9079480171203613,2.854832172393799,0.47000000000000025
0.8752021789550781,2.118671417236328,3.6299638748168945,0.48000000000000026
0.9186328649520874,7.141180992126465,3.851566791534424,0.49000000000000027
1.0009887218475342,12.187568664550781,3.9775335788726807,0.5000000000000002
1.8513480424880981,13.974116325378418,2.589674949645996,0.5100000000000002
3.533668041229248,13.105316162109375,0.3976724147796631,0.5200000000000002
5.090713977813721,8.442290306091309,1.4072670936584473,0.5300000000000002
4.938410758972168,1.445500373840332,3.995908498764038,0.5400000000000003
3.6737592220306396,-2.9325833320617676,6.251425743103027,0.5500000000000003
2.4548134803771973,-4.560214519500732,6.898489952087402,0.5600000000000003
1.5644068717956543,-3.5495500564575195,4.685179233551025,0.5700000000000003
0.8848713636398315,-1.749600887298584,1.087965726852417,0.5800000000000003
-0.1360013484954834,-1.733633041381836,-2.1126792430877686,0.5900000000000003
-2.0585694313049316,-2.2339320182800293,-4.406322479248047,0.6000000000000003
-4.229896545410156,-1.993919849395752,-10.685155868530273,0.6100000000000003
-7.442018508911133,-0.09703826904296875,-7.377500534057617,0.6200000000000003
-8.33724594116211,1.262211799621582,-2.5200390815734863,0.6300000000000003
-8.195184707641602,2.1072072982788086,0.10182380676269531,0.6400000000000003
-7.342297554016113,2.1886444091796875,0.8898570537567139,0.6500000000000004
-5.549099922180176,1.497544288635254,0.4349222183227539,0.6600000000000004
-3.581751585006714,0.6440038681030273,-1.0544390678405762,0.6700000000000004
-2.048593521118164,0.016534805297851562,-2.3357150554656982,0.6800000000000004
-1.2634787559509277,-0.13701534271240234,-3.110426187515259,0.6900000000000004
-0.5631125569343567,0.4647235870361328,-4.245743751525879,0.7000000000000004
0.2572428286075592,1.4631156921386719,-5.362678050994873,0.7100000000000004
1.3138468265533447,1.6772384643554688,-5.24346923828125,0.7200000000000004
2.28658390045166,1.0350971221923828,-4.4352874755859375,0.7300000000000004
2.3755722045898438,0.3147716522216797,-3.702636241912842,0.7400000000000004
2.119582176208496,-0.17603015899658203,-3.3309803009033203,0.7500000000000004
1.5084078311920166,-0.5968799591064453,-2.9812991619110107,0.7600000000000005
0.8510569930076599,-1.0477447509765625,-2.6781606674194336,0.7700000000000005
0.11229655146598816,-1.481287956237793,-2.3654775619506836,0.7800000000000005
-0.5125634074211121,-1.7153949737548828,-2.0840823650360107,0.7900000000000005
-0.8834366202354431,-1.7618646621704102,-1.8288507461547852,0.8000000000000005
-1.0197309255599976,-1.6445159912109375,-1.3016691207885742,0.8100000000000005
-0.9159512519836426,-1.135965347290039,-0.6452293992042542,0.8200000000000005
-0.6097304224967957,-0.7680416107177734,-0.20212408900260925,0.8300000000000005
-0.18708887696266174,-0.6586437225341797,0.2277318835258484,0.8400000000000005
0.13567163050174713,-0.666865348815918,0.5868743062019348,0.8500000000000005
0.7591562867164612,-0.6704463958740234,1.189723253250122,0.8600000000000005
0.9932419657707214,-0.7193355560302734,1.5321884155273438,0.8700000000000006
1.239558219909668,-0.6624813079833984,1.683119535446167,0.8800000000000006
1.371584177017212,-0.6982975006103516,1.6447697877883911,0.8900000000000006
1.4067931175231934,-0.8455104827880859,1.4198198318481445,0.9000000000000006
1.3163155317306519,-0.9792146682739258,1.042508602142334,0.9100000000000006
1.185754418373108,-1.359823226928711,0.584303081035614,0.9200000000000006
1.2153135538101196,-1.608778953552246,0.3416602909564972,0.9300000000000006
1.2858130931854248,-1.7264766693115234,0.233793705701828,0.9400000000000006
1.3962814807891846,-1.67803955078125,0.48479515314102173,0.9500000000000006
1.356492042541504,-1.610525131225586,0.9559441208839417,0.9600000000000006
1.3136882781982422,-1.4405326843261719,1.445566177368164,0.9700000000000006
1.2753238677978516,-1.0914316177368164,1.9469923973083496,0.9800000000000006
1.296974778175354,-0.65399169921875,2.103459358215332,0.9900000000000007
1.3409311771392822,0.10441970825195312,2.059177875518799,1.0000000000000007
1.4651137590408325,1.0164794921875,1.7944786548614502,1.0100000000000007
1.697028636932373,1.840378761291504,1.3888658285140991,1.0200000000000007
1.982149600982666,2.2976198196411133,0.954155445098877,1.0300000000000007
2.2624757289886475,2.502016067504883,0.4619629383087158,1.0400000000000007
2.4929888248443604,2.6156272888183594,0.1072167158126831,1.0500000000000007
2.9735889434814453,2.4898757934570312,-0.10057902336120605,1.0600000000000007
3.5918078422546387,2.4475955963134766,0.09486103057861328,1.0700000000000007
4.212586879730225,2.5981149673461914,0.6135708093643188,1.0800000000000007
4.555805206298828,3.1848201751708984,0.9468321204185486,1.0900000000000007
4.49570369720459,4.377933502197266,0.7265591025352478,1.1000000000000008
4.395016670227051,5.264084815979004,0.10487806797027588,1.1100000000000008
4.488893985748291,5.543170928955078,-0.6597551107406616,1.1200000000000008
4.626859188079834,4.507758140563965,-1.0973927974700928,1.1300000000000008
4.542817115783691,2.6824493408203125,-0.9516651630401611,1.1400000000000008
3.546588182449341,0.5131349563598633,-0.5835800766944885,1.1500000000000008
1.8876394033432007,-1.3405075073242188,-0.3884444832801819,1.1600000000000008
1.0652105808258057,-2.259517192840576,-0.28309643268585205,1.1700000000000008
0.6114394664764404,-2.678403854370117,0.10837116837501526,1.1800000000000008
0.18886518478393555,-2.3471450805664062,0.4993084669113159,1.1900000000000008
-0.263777494430542,-1.2176017761230469,0.7662779688835144,1.2000000000000008
-0.7061208486557007,-0.243499755859375,0.8045245409011841,1.2100000000000009
-1.0672619342803955,0.6026086807250977,0.5927214622497559,1.2200000000000009
-1.1521018743515015,1.527897834777832,0.23345798254013062,1.2300000000000009
-1.1141161918640137,2.9589710235595703,0.1018986701965332,1.2400000000000009
-1.1704353094100952,4.639350891113281,-0.7274991273880005,1.2500000000000009
-1.7093497514724731,5.796672821044922,-1.6953036785125732,1.260000000000001
-2.7547433376312256,5.934086799621582,-2.175536870956421,1.270000000000001
-3.475562334060669,4.455759048461914,-2.2400259971618652,1.280000000000001
-3.778416395187378,3.082427978515625,-1.9728201627731323,1.290000000000001
-3.5346202850341797,1.550694465637207,-1.7186715602874756,1.300000000000001
-3.0626745223999023,0.4684906005859375,-1.4428644180297852,1.310000000000001
-2.639951229095459,-0.3456592559814453,-1.2815080881118774,1.320000000000001
-2.3671631813049316,-0.9998455047607422,-1.5084023475646973,1.330000000000001
-2.1584572792053223,-1.6767430305480957,-2.0438756942749023,1.340000000000001
-1.9604666233062744,-2.2534689903259277,-2.5209527015686035,1.350000000000001
-1.741046667098999,-2.7896251678466797,-2.878974199295044,1.360000000000001
-1.4459363222122192,-3.1779303550720215,-3.018245220184326,1.370000000000001
-1.1580647230148315,-3.3956780433654785,-3.0468053817749023,1.380000000000001
-1.186859130859375,-3.3455071449279785,-3.1830201148986816,1.390000000000001
-0.9997994899749756,-3.9198946952819824,-2.877896308898926,1.400000000000001
-1.0228561162948608,-3.9342241287231445,-2.8098392486572266,1.410000000000001
-1.023221492767334,-3.928755283355713,-2.51583194732666,1.420000000000001
-1.0338218212127686,-4.001251220703125,-1.9441816806793213,1.430000000000001
-1.0189025402069092,-3.9503917694091797,-2.0606799125671387,1.440000000000001
-1.3776108026504517,-4.190526008605957,-0.28679800033569336,1.450000000000001
-1.679871678352356,-4.4282026290893555,0.4727649688720703,1.460000000000001
-1.8301018476486206,-4.741501808166504,1.1470980644226074,1.470000000000001
-1.8491290807724,-5.190972328186035,1.72249174118042,1.480000000000001
-1.7113896608352661,-5.642902374267578,2.0486855506896973,1.490000000000001
-1.3300390243530273,-6.069993019104004,2.2394461631774902,1.500000000000001
-0.8787484169006348,-6.1982011795043945,2.191638469696045,1.5100000000000011
-0.4962174594402313,-5.6387481689453125,2.0549705028533936,1.5200000000000011
-0.4637593626976013,-4.644664287567139,1.9346928596496582,1.5300000000000011
-0.39708662033081055,-2.5684752464294434,1.8442771434783936,1.5400000000000011
-0.4728926718235016,0.9713582992553711,1.6903259754180908,1.5500000000000012
-0.5603806972503662,6.003228187561035,1.2163395881652832,1.5600000000000012
-0.5451181530952454,12.925698280334473,-1.3570756912231445,1.5700000000000012
-0.08332958817481995,16.602684020996094,0.10588788986206055,1.5800000000000012
1.3934797048568726,16.01300811767578,4.543610095977783,1.5900000000000012
4.06352424621582,12.213555335998535,10.314146041870117,1.6000000000000012
5.213882923126221,3.4633073806762695,13.246232986450195,1.6100000000000012
3.132817268371582,-1.6384758949279785,12.800891876220703,1.6200000000000012
1.4609369039535522,-3.531461715698242,9.143664360046387,1.6300000000000012
0.13172370195388794,-4.1651411056518555,2.7674334049224854,1.6400000000000012
-0.7956201434135437,-4.042444229125977,-0.6694881916046143,1.6500000000000012
-1.7945551872253418,-3.8806447982788086,-3.8301236629486084,1.6600000000000013
-2.9493072032928467,-3.9364876747131348,-5.405204772949219,1.6700000000000013
-4.103405475616455,-3.739943504333496,-8.683869361877441,1.6800000000000013
-4.762045383453369,-0.6814136505126953,-15.084124565124512,1.6900000000000013
-5.9255828857421875,1.2701101303100586,-6.659344673156738,1.7000000000000013
-5.767426490783691,1.4660911560058594,-2.5220956802368164,1.7100000000000013
-5.270379543304443,1.3021230697631836,-1.3030803203582764,1.7200000000000013
-4.309878349304199,0.8629560470581055,-1.5343613624572754,1.7300000000000013
-3.3120296001434326,0.1312723159790039,-1.9923062324523926,1.7400000000000013
-2.1815717220306396,-0.6549949645996094,-2.568448781967163,1.7500000000000013
-1.1811375617980957,-0.9067115783691406,-3.091724395751953,1.7600000000000013
-0.7635241150856018,-0.27576446533203125,-3.7255642414093018,1.7700000000000014
-0.41266515851020813,1.0237817764282227,-4.296194076538086,1.7800000000000014
0.09652268886566162,1.9448070526123047,-4.047794342041016,1.7900000000000014
0.5970278382301331,2.100348472595215,-3.232882261276245,1.8000000000000014
0.8219875693321228,1.7473487854003906,-2.714888334274292,1.8100000000000014
0.5278393626213074,1.1361684799194336,-2.499032974243164,1.8200000000000014
0.14748364686965942,0.8437347412109375,-2.302528142929077,1.8300000000000014
-0.190146803855896,0.3033905029296875,-1.9710299968719482,1.8400000000000014
-0.29439330101013184,-0.37316322326660156,-1.5661559104919434,1.8500000000000014
-0.16398651897907257,-1.2581138610839844,-1.2248001098632812,1.8600000000000014
0.1235925555229187,-1.8942937850952148,-0.5504275560379028,1.8700000000000014
0.6151576042175293,-2.1810855865478516,0.026259899139404297,1.8800000000000014
0.7350053787231445,-2.2621774673461914,0.47757861018180847,1.8900000000000015
0.7853397727012634,-2.2646541595458984,0.9099664688110352,1.9000000000000015
0.9331551194190979,-2.174027919769287,1.3650591373443604,1.9100000000000015
1.127785563468933,-1.8078255653381348,1.4610228538513184,1.9200000000000015
0.9916524887084961,-1.270930290222168,1.0680559873580933,1.9300000000000015
0.9885526895523071,-0.8979263305664062,0.3288421630859375,1.9400000000000015
0.9021991491317749,-0.8273181915283203,-0.21756036579608917,1.9500000000000015
0.9897676706314087,-0.9223842620849609,-0.69084233045578,1.9600000000000015
1.0450748205184937,-1.204676628112793,-0.8020154237747192,1.9700000000000015
1.0940196514129639,-1.4566612243652344,-0.5637339949607849,1.9800000000000015
1.2096624374389648,-1.7407646179199219,-0.1332768201828003,1.9900000000000015
1.3327348232269287,-2.035515785217285,0.4982959032058716,2.0000000000000013
1.338758111000061,-2.025252342224121,0.6146923303604126,2.010000000000001
1.7392902374267578,-1.8735685348510742,2.0948069095611572,2.020000000000001
1.79838228225708,-1.2576866149902344,2.8834686279296875,2.0300000000000007
1.4351779222488403,-0.24199581146240234,3.2177863121032715,2.0400000000000005
0.9374186992645264,0.7078561782836914,2.917612075805664,2.0500000000000003
0.5640737414360046,1.406203269958496,1.9459543228149414,2.06
0.5304807424545288,1.8767318725585938,1.1306235790252686,2.07
0.793472409248352,2.426828384399414,0.29483306407928467,2.0799999999999996
1.2151907682418823,2.731660842895508,-0.31070375442504883,2.0899999999999994
1.7345316410064697,2.777857780456543,-0.684859037399292,2.099999999999999
2.429342746734619,2.5954713821411133,-0.8446471691131592,2.109999999999999
3.2425642013549805,2.38259220123291,-0.4480874538421631,2.1199999999999988
3.861821174621582,2.43332576751709,0.27513980865478516,2.1299999999999986
4.424866199493408,2.7783946990966797,1.3343490362167358,2.1399999999999983
4.365777492523193,2.768918037414551,1.2932403087615967,2.149999999999998
4.714693069458008,4.319307327270508,2.7169220447540283,2.159999999999998
4.567617893218994,5.252253532409668,2.1466851234436035,2.1699999999999977
4.3249711990356445,5.374706268310547,0.766447126865387,2.1799999999999975
4.049941539764404,4.577142715454102,-0.3488197326660156,2.1899999999999973
3.6649415493011475,2.8475723266601562,-1.1103622913360596,2.199999999999997
3.039825916290283,1.0932674407958984,-1.091513991355896,2.209999999999997
2.255250930786133,-0.24959754943847656,-0.7373132109642029,2.2199999999999966
1.54000723361969,-1.4280614852905273,-0.4449821710586548,2.2299999999999964
1.0151567459106445,-2.4851670265197754,-0.28671836853027344,2.239999999999996
0.8222013711929321,-2.9524946212768555,-0.18141615390777588,2.249999999999996
0.6707191467285156,-2.678826332092285,0.053717561066150665,2.259999999999996
0.33009347319602966,-1.6047649383544922,0.1955709308385849,2.2699999999999956
-0.028823763132095337,-0.6602191925048828,0.19205644726753235,2.2799999999999954
-0.3772294819355011,0.08705615997314453,0.1792200207710266,2.289999999999995
-0.42130210995674133,0.10259532928466797,-0.015995919704437256,2.299999999999995
-0.4530339241027832,2.5629329681396484,0.2880440354347229,2.3099999999999947
-0.48441916704177856,4.111912727355957,-0.3695685863494873,2.3199999999999945
-0.907112717628479,5.773819923400879,-1.8408836126327515,2.3299999999999943
-2.261148452758789,6.721555709838867,-2.688231945037842,2.339999999999994
-3.4089713096618652,5.481904029846191,-2.3958237171173096,2.349999999999994
-3.9264562129974365,3.4119606018066406,-1.976325273513794,2.3599999999999937
-3.776930570602417,2.0335960388183594,-1.729430913925171,2.3699999999999934
-3.2720980644226074,0.6483383178710938,-1.5856237411499023,2.3799999999999932
-2.7013769149780273,-0.5257015228271484,-1.6369781494140625,2.389999999999993
-2.205878257751465,-1.3344812393188477,-1.8475310802459717,2.399999999999993
-1.8716847896575928,-2.0036120414733887,-2.1262400150299072,2.4099999999999926
-1.6197657585144043,-2.6158671379089355,-2.3433427810668945,2.4199999999999924
-1.3911644220352173,-3.0577659606933594,-2.6256744861602783,2.429999999999992
-1.0469629764556885,-3.5495853424072266,-2.8627970218658447,2.439999999999992
-0.8758108615875244,-3.974587917327881,-2.872501850128174,2.4499999999999917
-0.939887523651123,-4.175530910491943,-2.7177255153656006,2.4599999999999915
-1.075075626373291,-4.269818305969238,-2.6398253440856934,2.4699999999999913
-1.318693995475769,-4.378910064697266,-2.3731439113616943,2.479999999999991
-1.510178804397583,-4.277516841888428,-1.9279847145080566,2.489999999999991
-1.7207207679748535,-4.002058982849121,-1.1222808361053467,2.4999999999999907
-1.896206021308899,-3.7369160652160645,-0.06429433822631836,2.5099999999999905
-1.9354240894317627,-3.7112178802490234,0.7822299003601074,2.5199999999999902
-1.7963107824325562,-3.8985815048217773,1.3232579231262207,2.52999999999999
-1.6164687871932983,-4.396035194396973,1.6033568382263184,2.53999999999999
-1.4633442163467407,-4.8778581619262695,1.6381268501281738,2.5499999999999896
-1.2910943031311035,-5.45952033996582,1.5912775993347168,2.5599999999999894
-1.1422063112258911,-5.914468765258789,1.6477246284484863,2.569999999999989
-1.1217093467712402,-6.201413154602051,1.853973388671875,2.579999999999989
-1.0907893180847168,-6.062751293182373,2.1192591190338135,2.5899999999999888
-0.8220117688179016,-5.030449390411377,2.255838632583618,2.5999999999999885
-0.20962488651275635,-3.2327370643615723,2.315969228744507,2.6099999999999883
0.6135923862457275,1.3090744018554688,2.5653088092803955,2.619999999999988
0.5036479234695435,7.348043441772461,2.6019139289855957,2.629999999999988
0.35777735710144043,14.388069152832031,0.0896005630493164,2.6399999999999877
0.34278813004493713,18.157793045043945,-2.5500993728637695,2.6499999999999875
1.7801495790481567,15.494148254394531,2.6612510681152344,2.6599999999999873
4.216799736022949,9.924860954284668,8.718158721923828,2.669999999999987
5.250799655914307,-0.314849853515625,15.544113159179688,2.679999999999987
2.8714075088500977,-5.436552047729492,12.74170970916748,2.6899999999999866
1.09834623336792,-6.079460144042969,5.5035295486450195,2.6999999999999864
0.18467998504638672,-5.582930088043213,0.3772766590118408,2.709999999999986
-0.09989547729492188,-4.218771934509277,-2.520669460296631,2.719999999999986
-0.9105222821235657,-3.3875341415405273,-3.4263792037963867,2.7299999999999858
-2.6171247959136963,-2.896836757659912,-4.762341499328613,2.7399999999999856
-4.312957763671875,-0.8035411834716797,-17.422534942626953,2.7499999999999853
-6.504931926727295,2.878385543823242,-7.932939529418945,2.759999999999985
-7.543883800506592,3.1470346450805664,-2.9949045181274414,2.769999999999985
-7.69886589050293,3.447998046875,-2.7285268306732178,2.7799999999999847
-6.983271598815918,3.043421745300293,-3.241135597229004,2.7899999999999845
-5.31516695022583,1.9076805114746094,-3.9370369911193848,2.7999999999999843
-5.24635648727417,1.8670940399169922,-3.709298610687256,2.809999999999984
-1.6073124408721924,-0.6030607223510742,-5.257067680358887,2.819999999999984
-0.6056623458862305,-0.5991764068603516,-5.517385005950928,2.8299999999999836
-0.013189733028411865,0.42633724212646484,-5.25379753112793,2.8399999999999834
0.11296901106834412,1.1112031936645508,-5.153233528137207,2.849999999999983
0.2928164601325989,1.4585151672363281,-4.96586799621582,2.859999999999983
0.40735924243927,1.347294807434082,-4.4900593757629395,2.869999999999983
0.144346222281456,1.1856365203857422,-3.740323543548584,2.8799999999999826
-0.1728171408176422,0.5865726470947266,-2.8291971683502197,2.8899999999999824
-0.3430110216140747,-0.6019773483276367,-1.8574578762054443,2.899999999999982
-0.3633579611778259,-0.6018714904785156,-1.864113211631775,2.909999999999982
-0.6625189781188965,-1.6378288269042969,-0.4070092439651489,2.9199999999999817
-0.6772160530090332,-2.0223846435546875,0.09076625108718872,2.9299999999999815
-0.4044511914253235,-2.2781476974487305,0.3556910753250122,2.9399999999999813
-0.23982137441635132,-2.2810616493225098,0.6010190844535828,2.949999999999981
0.12658464908599854,-2.423900604248047,0.8227875232696533,2.959999999999981
0.55564945936203,-2.311189651489258,1.0990756750106812,2.9699999999999807
1.0239602327346802,-1.9852957725524902,1.4037401676177979,2.9799999999999804
1.3733497858047485,-1.5724163055419922,1.4477511644363403,2.9899999999999802
1.6847248077392578,-1.2133140563964844,1.100844144821167,2.99999999999998
1.689581274986267,-0.9697427749633789,0.5707280039787292,3.00999999999998
1.825595498085022,-0.8941841125488281,-0.10158407688140869,3.0199999999999796
1.8825844526290894,-0.9413070678710938,-0.3201587200164795,3.0299999999999794
2.067160129547119,-1.1021385192871094,-0.4246712923049927,3.039999999999979
2.1951770782470703,-1.3818693161010742,-0.3939554691314697,3.049999999999979
2.4531452655792236,-1.6800556182861328,-0.12367045879364014,3.0599999999999787
2.607052803039551,-1.8720736503601074,0.40453046560287476,3.0699999999999785
2.900515556335449,-1.9792914390563965,1.2243402004241943,3.0799999999999783
3.184354305267334,-1.836343765258789,2.106943130493164,3.089999999999978
3.333094596862793,-1.4290037155151367,3.0127034187316895,3.099999999999978
2.936605453491211,-0.42258358001708984,3.377924919128418,3.1099999999999777
1.572293758392334,0.7365531921386719,2.9186854362487793,3.1199999999999775
0.5513980984687805,1.4706754684448242,1.9261224269866943,3.1299999999999772
0.2924286425113678,2.295389175415039,0.6175867319107056,3.139999999999977
0.7265373468399048,2.871492385864258,-0.2087327241897583,3.149999999999977
1.444766879081726,3.2915687561035156,-0.6973170042037964,3.1599999999999766
2.0114550590515137,3.3185997009277344,-0.7168370485305786,3.1699999999999764
2.4660654067993164,3.1012115478515625,-0.367811918258667,3.179999999999976
3.0495338439941406,3.0866384506225586,0.08552670478820801,3.189999999999976
3.5183908939361572,3.833470344543457,0.3922247886657715,3.1999999999999758
3.6563832759857178,4.878302574157715,0.2822331190109253,3.2099999999999755
4.005909442901611,5.904115676879883,0.11610972881317139,3.2199999999999753
4.457033157348633,6.0693359375,-0.0856558084487915,3.229999999999975
4.781895160675049,5.129752159118652,-0.562935471534729,3.239999999999975
4.6265482902526855,3.2808990478515625,-0.8087791204452515,3.2499999999999747
3.666381359100342,1.1438980102539062,-0.32282960414886475,3.2599999999999745
2.608701467514038,-0.3212718963623047,0.006030023097991943,3.2699999999999743
2.512531042098999,-0.3346090316772461,-0.1928424835205078,3.279999999999974
1.125938892364502,-2.192107677459717,0.22765205800533295,3.289999999999974
0.814130425453186,-2.275352954864502,0.3399046063423157,3.2999999999999736
0.3260650634765625,-1.675898551940918,0.6074182987213135,3.3099999999999734
-0.37994158267974854,-0.9124259948730469,0.566924512386322,3.319999999999973
-0.8652938008308411,-0.5622262954711914,0.341810405254364,3.329999999999973
-1.2153197526931763,0.054035186767578125,0.13787585496902466,3.3399999999999728
-1.4439239501953125,1.0843753814697266,-0.4601987898349762,3.3499999999999726
-1.5340309143066406,2.2363691329956055,-1.5255627632141113,3.3599999999999723
-2.2841334342956543,3.3353652954101562,-1.944730281829834,3.369999999999972
-3.388319253921509,4.090780258178711,-1.5480823516845703,3.379999999999972
-4.009349822998047,3.970378875732422,-1.5041890144348145,3.3899999999999717
-4.622247695922852,3.621321678161621,-1.4029417037963867,3.3999999999999715
-4.651374816894531,3.0311107635498047,-1.1713201999664307,3.4099999999999713
-4.447455883026123,2.4914846420288086,-1.0903759002685547,3.419999999999971
-3.8152077198028564,1.8319721221923828,-1.1079069375991821,3.429999999999971
-2.714416742324829,0.9890956878662109,-1.3803539276123047,3.4399999999999706
-1.8306231498718262,-0.04801177978515625,-1.9867457151412964,3.4499999999999704
-1.0411804914474487,-1.4288716316223145,-2.4560256004333496,3.45999999999997
-0.48033446073532104,-2.657439708709717,-2.6991665363311768,3.46999999999997
-0.1349962055683136,-3.653256893157959,-2.6927196979522705,3.47999999999997
0.031550899147987366,-4.417787075042725,-2.472590208053589,3.4899999999999696
-0.01028507947921753,-4.963461875915527,-2.1663265228271484,3.4999999999999694
-0.12103620171546936,-5.151208877563477,-2.057145833969116,3.509999999999969
-0.4914519786834717,-5.1985859870910645,-1.743551254272461,3.519999999999969
-0.9810837507247925,-4.8636155128479,-1.2909393310546875,3.5299999999999687
-1.622775673866272,-4.3767571449279785,-0.7464966773986816,3.5399999999999685
-2.0039925575256348,-4.0140380859375,-0.17914104461669922,3.5499999999999683
-2.020867347717285,-4.0384297370910645,0.011674880981445312,3.559999999999968
-1.8103537559509277,-4.3440022468566895,-0.20057916641235352,3.569999999999968
-1.584223985671997,-4.851118087768555,-0.5379023551940918,3.5799999999999677
-1.417790412902832,-5.460912704467773,-0.7238867282867432,3.5899999999999674
-1.2444965839385986,-5.936786651611328,-0.7349445819854736,3.5999999999999672
-1.2154676914215088,-6.238163948059082,-0.6165635585784912,3.609999999999967
-1.4020475149154663,-6.093379020690918,-0.4042825698852539,3.619999999999967
-1.5238664150238037,-5.478662490844727,0.06986141204833984,3.6299999999999666
-1.286072015762329,-4.078797340393066,0.8645174503326416,3.6399999999999664
-0.6763401031494141,-1.4833054542541504,2.3640377521514893,3.649999999999966
0.20972412824630737,3.336216926574707,4.591479778289795,3.659999999999966
1.0708216428756714,9.223618507385254,6.570890426635742,3.6699999999999657
1.4872833490371704,15.701913833618164,6.51483154296875,3.6799999999999655
1.9807970523834229,16.965578079223633,5.673542022705078,3.6899999999999653
3.4453911781311035,14.13178825378418,7.212053298950195,3.699999999999965
4.952166557312012,8.549728393554688,9.69033145904541,3.709999999999965
3.7304584980010986,0.9435815811157227,10.721575736999512,3.7199999999999647
2.7935636043548584,-1.6063404083251953,8.748821258544922,3.7299999999999645
1.675976276397705,-2.0816588401794434,3.2362570762634277,3.7399999999999642
0.7622390389442444,-3.2835640907287598,-0.7540915012359619,3.749999999999964
-0.8594506978988647,-4.764454364776611,-2.9132847785949707,3.759999999999964
-2.8518664836883545,-5.126767635345459,-4.276009559631348,3.7699999999999636
-5.022511005401611,-5.970415115356445,-15.925817489624023,3.7799999999999634
-7.679408073425293,-3.7956457138061523,-12.438684463500977,3.789999999999963
-7.41654109954834,-1.462331771850586,-4.973931789398193,3.799999999999963
-7.227684020996094,-0.2055959701538086,-2.723968744277954,3.8099999999999627
-6.215036392211914,0.5725593566894531,-1.8823957443237305,3.8199999999999625
-4.894097328186035,0.8699836730957031,-2.4693808555603027,3.8299999999999623
-3.1634209156036377,0.7235240936279297,-3.793299913406372,3.839999999999962
-1.6548118591308594,0.967529296875,-4.743434429168701,3.849999999999962
-0.751516580581665,2.4011640548706055,-5.629894256591797,3.8599999999999617
-0.22813540697097778,3.7024364471435547,-6.067878723144531,3.8699999999999615
0.6395195722579956,3.9940271377563477,-5.305981159210205,3.8799999999999613
1.3650710582733154,3.051358222961426,-3.88761568069458,3.889999999999961
1.3672432899475098,1.542283058166504,-3.193108558654785,3.899999999999961
0.9039390087127686,0.35473060607910156,-3.00972318649292,3.9099999999999606
0.11978182196617126,-0.5132064819335938,-2.683537006378174,3.9199999999999604
-0.487099826335907,-0.991053581237793,-2.242074728012085,3.92999999999996
-0.9053072929382324,-1.36480712890625,-1.613943099975586,3.93999999999996
-1.0419501066207886,-1.647294044494629,-0.9659358859062195,3.9499999999999598
-0.997516393661499,-1.8392400741577148,-0.7123745083808899,3.9599999999999596
-0.854694128036499,-2.067877769470215,-0.7476094961166382,3.9699999999999593
-0.5639587640762329,-2.0769295692443848,-0.5810805559158325,3.979999999999959
-0.23869287967681885,-1.8298296928405762,-0.22215113043785095,3.989999999999959
0.12226977944374084,-1.4722881317138672,0.21502646803855896,3.9999999999999587
0.4873894453048706,-1.0692529678344727,0.6168462038040161,4.009999999999959
0.6538372039794922,-0.5608730316162109,0.681692361831665,4.019999999999959
0.9756712913513184,-0.38034915924072266,0.6485229730606079,4.0299999999999585
1.1404790878295898,-0.4721803665161133,0.7137783169746399,4.039999999999958
1.3436167240142822,-0.6419105529785156,0.9011325836181641,4.049999999999958
1.6660703420639038,-0.8845109939575195,1.1607626676559448,4.059999999999958
1.8467905521392822,-1.1950340270996094,1.18146812915802,4.069999999999958
1.9689124822616577,-1.5875158309936523,1.22028648853302,4.079999999999957
2.0445287227630615,-2.0808777809143066,1.121851921081543,4.089999999999957
2.154538869857788,-2.5340538024902344,1.1280360221862793,4.099999999999957
2.165027379989624,-2.5240249633789062,1.2469019889831543,4.109999999999957
2.129293203353882,-2.300446033477783,1.5943626165390015,4.119999999999957
1.9518357515335083,-1.7051801681518555,1.9076571464538574,4.129999999999956
1.6715764999389648,-0.9150896072387695,2.1879026889801025,4.139999999999956
1.3795912265777588,0.12469863891601562,2.294174909591675,4.149999999999956
1.2845443487167358,1.2315349578857422,2.042473554611206,4.159999999999956
1.380187749862671,1.8852739334106445,1.5131975412368774,4.1699999999999555
1.5888031721115112,2.267489433288574,0.7581327557563782,4.179999999999955
1.9119088649749756,2.351515769958496,0.03874671459197998,4.189999999999955
2.4001612663269043,2.110255241394043,-0.49734270572662354,4.199999999999955
3.0560038089752197,1.817840576171875,-0.6094166040420532,4.209999999999955
3.828112840652466,1.7028732299804688,-0.07181763648986816,4.2199999999999545
4.271392822265625,1.999502182006836,0.7673793435096741,4.229999999999954
4.591261386871338,2.815974235534668,1.8982720375061035,4.239999999999954
4.5593061447143555,3.955063819885254,2.3982553482055664,4.249999999999954
4.321127891540527,5.13802433013916,2.1518614292144775,4.259999999999954
3.9669132232666016,5.791408538818359,1.1468802690505981,4.269999999999953
3.5241940021514893,5.295741081237793,-0.29576539993286133,4.279999999999953
3.351357936859131,4.033993721008301,-1.1040728092193604,4.289999999999953
2.97725510597229,1.8791847229003906,-1.2531774044036865,4.299999999999953
2.0474026203155518,-0.024148941040039062,-0.9750552177429199,4.3099999999999525
1.3078533411026,-1.5242204666137695,-0.6780474185943604,4.319999999999952
0.8653728365898132,-2.5474843978881836,-0.2992716431617737,4.329999999999952
0.5834149122238159,-2.577385425567627,0.23256519436836243,4.339999999999952
0.29584407806396484,-2.0079545974731445,0.40747517347335815,4.349999999999952
-0.1792755126953125,-0.9687213897705078,0.33843132853507996,4.3599999999999515
-0.6413609981536865,0.009799957275390625,0.0683741569519043,4.369999999999951
-0.8351291418075562,0.9552402496337891,-0.010505139827728271,4.379999999999951
-0.9488157629966736,2.240525245666504,-0.14363610744476318,4.389999999999951
-0.9660297632217407,4.094799995422363,-0.18436437845230103,4.399999999999951
-1.0702236890792847,5.499122619628906,-1.2341879606246948,4.40999999999995
-1.4984407424926758,6.767733573913574,-2.8524692058563232,4.41999999999995
-2.420757293701172,6.660280227661133,-3.587592124938965,4.42999999999995
-3.257718563079834,4.906658172607422,-3.295478343963623,4.43999999999995
-3.561647415161133,2.7904787063598633,-2.444939136505127,4.4499999999999496
-3.2838735580444336,0.767578125,-1.4608230590820312,4.459999999999949
-2.7526094913482666,-0.3689117431640625,-0.9878523349761963,4.469999999999949
-2.104060411453247,-1.2983818054199219,-0.6017874479293823,4.479999999999949
-1.519319772720337,-1.8648896217346191,-0.675568699836731,4.489999999999949
-1.1263692378997803,-2.19150447845459,-1.1308817863464355,4.4999999999999485
-0.8480207324028015,-2.502671241760254,-1.7799582481384277,4.509999999999948
-0.6291348338127136,-2.8847084045410156,-2.3654134273529053,4.519999999999948
-0.5691426992416382,-3.1696524620056152,-2.536129951477051,4.529999999999948
-0.5177218914031982,-3.4538092613220215,-2.4520554542541504,4.539999999999948
-0.6322516202926636,-3.664855480194092,-2.289768695831299,4.549999999999947
-0.8825971484184265,-3.729990005493164,-2.1634340286254883,4.559999999999947
-1.2877801656723022,-3.6153922080993652,-2.0810046195983887,4.569999999999947
-1.6851917505264282,-3.6276726722717285,-1.4911887645721436,4.579999999999947
-2.0143280029296875,-3.7220563888549805,-0.9069986343383789,4.589999999999947
-2.3682873249053955,-3.862201690673828,0.015983104705810547,4.599999999999946
-2.4862239360809326,-4.077573299407959,1.0257635116577148,4.609999999999946
-2.4462718963623047,-4.051210880279541,0.9639208316802979,4.619999999999946
-2.2346370220184326,-4.692596435546875,2.0873281955718994,4.629999999999946
-1.9446313381195068,-5.033016204833984,2.003462314605713,4.6399999999999455
-1.7313307523727417,-5.214752197265625,1.7014210224151611,4.649999999999945
-1.6406950950622559,-5.353900909423828,1.2116096019744873,4.659999999999945
-1.419778823852539,-5.342089653015137,0.8799402713775635,4.669999999999945
-1.042396903038025,-4.925837993621826,0.781191349029541,4.679999999999945
-0.6968755722045898,-3.9732837677001953,0.8372747898101807,4.689999999999944
-0.6422936320304871,-2.1073718070983887,0.8461759090423584,4.699999999999944
-0.6295017600059509,0.3262662887573242,0.9233224391937256,4.709999999999944
-0.5884495377540588,4.329949378967285,0.6647517681121826,4.719999999999944
-0.5407493710517883,4.287008285522461,0.8248066902160645,4.729999999999944
0.5994762182235718,13.612377166748047,0.5447714328765869,4.739999999999943
2.1501381397247314,13.314698219299316,2.4601669311523438,4.749999999999943
3.9694671630859375,9.499982833862305,8.061086654663086,4.759999999999943
4.481311798095703,2.5949573516845703,11.653432846069336,4.769999999999943
2.568108320236206,-2.670720100402832,12.884664535522461,4.7799999999999425
1.2928869724273682,-4.624035358428955,10.007814407348633,4.789999999999942
0.7883912920951843,-4.439655303955078,5.497476577758789,4.799999999999942
0.31186047196388245,-2.8312339782714844,1.4426593780517578,4.809999999999942
-0.635002851486206,-2.3711609840393066,-2.171863555908203,4.819999999999942
-2.3981711864471436,-2.260708808898926,-3.8399977684020996,4.8299999999999415
-4.2596893310546875,-1.510793685913086,-11.487930297851562,4.839999999999941
-5.865283489227295,2.977062225341797,-15.432536125183105,4.849999999999941
-7.405929088592529,2.4808855056762695,-6.628986835479736,4.859999999999941
-7.3595662117004395,1.6961336135864258,-3.039472818374634,4.869999999999941
-6.075801372528076,0.7482662200927734,-2.1821799278259277,4.87999999999994
-4.542431831359863,0.15705013275146484,-2.3729093074798584,4.88999999999994
-2.779938220977783,-0.5491514205932617,-2.810004234313965,4.89999999999994
-1.3619439601898193,-0.631709098815918,-3.3631114959716797,4.90999999999994
-0.526984453201294,-0.1739978790283203,-3.7999439239501953,4.9199999999999395
-0.18802815675735474,0.8203144073486328,-4.586104869842529,4.929999999999939
0.046296387910842896,1.9933042526245117,-5.711460113525391,4.939999999999939
0.5941809415817261,2.1643543243408203,-5.710015773773193,4.949999999999939
1.1036505699157715,1.5858850479125977,-4.6597676277160645,4.959999999999939
0.6530881524085999,1.2937736511230469,-3.6737136840820312,4.9699999999999385
-0.10833457112312317,1.0447216033935547,-2.895756244659424,4.979999999999938
-0.8877384662628174,0.5846900939941406,-2.1798410415649414,4.989999999999938
-1.2923473119735718,-0.2580394744873047,-1.6133487224578857,4.999999999999938
-1.277562141418457,-1.0775938034057617,-1.5415489673614502,5.009999999999938
-1.2770652770996094,-1.0793447494506836,-1.4851824045181274,5.019999999999937
-1.0310890674591064,-2.465357780456543,-1.96623694896698,5.029999999999937
-0.8036549091339111,-2.4645285606384277,-1.5271371603012085,5.039999999999937
-0.7704338431358337,-1.7899131774902344,-0.6091405153274536,5.049999999999937
-0.7588421702384949,-1.7897224426269531,-0.5564698576927185,5.0599999999999365
-0.274840384721756,-0.07972240447998047,0.31244874000549316,5.069999999999936
0.08502784371376038,0.38059139251708984,0.3347477316856384,5.079999999999936
0.4942519962787628,0.45314598083496094,0.3279363512992859,5.089999999999936
0.9427165985107422,0.16436004638671875,0.5290024280548096,5.099999999999936
1.2587809562683105,-0.37079334259033203,0.8428951501846313,5.1099999999999355
1.4700031280517578,-0.8767423629760742,1.197190523147583,5.119999999999935
1.6506500244140625,-1.2021493911743164,1.3548747301101685,5.129999999999935
1.8844839334487915,-1.6339988708496094,1.5764026641845703,5.139999999999935
2.123926877975464,-1.9948863983154297,1.8058712482452393,5.149999999999935
2.4200243949890137,-2.263218879699707,1.9016473293304443,5.159999999999934
2.7086658477783203,-2.3051862716674805,1.918870449066162,5.169999999999934
2.602597951889038,-2.0733156204223633,1.7856683731079102,5.179999999999934
2.2999141216278076,-1.7570409774780273,1.6315996646881104,5.189999999999934
1.8843923807144165,-1.2055912017822266,1.3601818084716797,5.199999999999934
1.510509967803955,-0.48143959045410156,1.153183937072754,5.209999999999933
1.3041377067565918,0.2616844177246094,1.0113412141799927,5.219999999999933
1.5500775575637817,0.771728515625,0.8275096416473389,5.229999999999933
1.8838846683502197,1.1368885040283203,0.6697067618370056,5.239999999999933
2.368534564971924,1.1029653549194336,0.5927554965019226,5.2499999999999325
3.011770248413086,0.9185152053833008,0.633171021938324,5.259999999999932
3.5954151153564453,0.8250179290771484,0.9004204273223877,5.269999999999932
4.06928825378418,0.9371747970581055,1.2477467060089111,5.279999999999932
4.384008407592773,1.1953372955322266,1.447367787361145,5.289999999999932
4.410353660583496,1.6551036834716797,1.4191313982009888,5.299999999999931
4.115054607391357,2.2520885467529297,1.0174839496612549,5.309999999999931
3.6531729698181152,3.35990047454834,0.27586638927459717,5.319999999999931
3.3755805492401123,4.530892372131348,-0.38664138317108154,5.329999999999931
3.2799534797668457,5.178445816040039,-1.000490427017212,5.339999999999931
3.2471487522125244,5.165838241577148,-1.0987560749053955,5.34999999999993
2.9433791637420654,4.186821937561035,-1.1965886354446411,5.35999999999993
2.2955334186553955,2.2784461975097656,-0.682817816734314,5.36999999999993
1.497176170349121,0.47426700592041016,-0.18412470817565918,5.37999999999993
1.0737065076828003,-0.7409791946411133,0.06331786513328552,5.3899999999999295
0.8210426568984985,-1.2010793685913086,0.27463555335998535,5.399999999999929
0.45465555787086487,-0.9225091934204102,0.442473441362381,5.409999999999929
-0.08089250326156616,-0.058875083923339844,0.38829755783081055,5.419999999999929
-0.5035867094993591,0.5365915298461914,0.1194320023059845,5.429999999999929
-0.7917232513427734,1.1362829208374023,-0.2818286120891571,5.4399999999999284
-0.9898421764373779,2.058588981628418,-0.8035776615142822,5.449999999999928
-0.9877533912658691,2.065962791442871,-0.9432970285415649,5.459999999999928
-1.399550437927246,3.8285484313964844,-2.032623767852783,5.469999999999928
-2.2610695362091064,4.032625198364258,-2.588460922241211,5.479999999999928
-3.0921266078948975,3.6335391998291016,-2.715517997741699,5.489999999999927
-3.7221131324768066,2.7078628540039062,-2.6569321155548096,5.499999999999927
-3.6792211532592773,1.6033363342285156,-2.19464111328125,5.509999999999927
-3.2577919960021973,0.7348651885986328,-1.606730580329895,5.519999999999927
-2.754650592803955,0.1316537857055664,-1.2782726287841797,5.5299999999999265
-2.10404372215271,-0.3737525939941406,-1.1610915660858154,5.539999999999926
-1.7048323154449463,-0.6711616516113281,-1.2804373502731323,5.549999999999926
-1.3555314540863037,-0.9380455017089844,-1.530360221862793,5.559999999999926
-1.120229959487915,-1.276127815246582,-1.8022291660308838,5.569999999999926
-0.9879573583602905,-1.5927467346191406,-2.2010622024536133,5.5799999999999255
-0.9522964954376221,-2.028717517852783,-2.5488474369049072,5.589999999999925
-1.038350224494934,-2.8030896186828613,-2.631333351135254,5.599999999999925
-1.215994119644165,-3.1425247192382812,-2.6082677841186523,5.609999999999925
-1.476666808128357,-3.3214216232299805,-2.284275531768799,5.619999999999925
-1.712441086769104,-3.4059534072875977,-1.859316349029541,5.629999999999924
-1.958036184310913,-3.381436347961426,-1.288355827331543,5.639999999999924
-2.045281410217285,-3.4489660263061523,-0.6387925148010254,5.649999999999924
-1.978700041770935,-3.696911334991455,0.020627975463867188,5.659999999999924
-1.8337595462799072,-3.9313712120056152,0.33147525787353516,5.6699999999999235
-1.606575608253479,-4.229055881500244,0.47635793685913086,5.679999999999923
-1.4854648113250732,-4.479865074157715,0.5064558982849121,5.689999999999923
-1.3631157875061035,-4.781233787536621,0.4195108413696289,5.699999999999923
-1.2529942989349365,-5.1605329513549805,0.30620288848876953,5.709999999999923
-1.0713720321655273,-5.610666275024414,0.32584428787231445,5.7199999999999225
-0.9428327083587646,-5.83796501159668,0.39802050590515137,5.729999999999922
-0.8362152576446533,-5.678623199462891,0.6089925765991211,5.739999999999922
-0.7362252473831177,-5.025877952575684,0.8930501937866211,5.749999999999922
-0.6517012119293213,-3.907945156097412,1.0616421699523926,5.759999999999922
-0.44843652844429016,-2.0900278091430664,1.5224599838256836,5.769999999999921
-0.1392805278301239,2.220555305480957,2.686669111251831,5.779999999999921
0.02825126051902771,6.7547712326049805,2.9274675846099854,5.789999999999921
0.22635388374328613,13.08399486541748,2.3574187755584717,5.799999999999921
1.2172162532806396,14.463603973388672,4.120966911315918,5.809999999999921
3.30755615234375,12.94702434539795,8.06826114654541,5.81999999999992
5.528618812561035,8.503573417663574,11.722160339355469,5.82999999999992
5.183892250061035,1.4902734756469727,12.974100112915039,5.83999999999992
3.244518280029297,-0.6018342971801758,11.684316635131836,5.84999999999992
2.1651759147644043,-0.7880239486694336,6.849647521972656,5.8599999999999195
1.0024396181106567,-1.4991040229797363,0.5063726902008057,5.869999999999919
-0.28485754132270813,-3.499739170074463,-2.7855522632598877,5.879999999999919
-1.8895723819732666,-4.498558044433594,-4.045185089111328,5.889999999999919
-3.122500419616699,-6.052743911743164,-11.723780632019043,5.899999999999919
-4.851985454559326,-5.864731788635254,-13.817211151123047,5.909999999999918
-6.616561412811279,-4.382411003112793,-7.962942123413086,5.919999999999918
-6.951963901519775,-2.7128095626831055,-3.862308979034424,5.929999999999918
-6.537499904632568,-1.0055646896362305,-1.7626897096633911,5.939999999999918
-5.875422954559326,0.22399234771728516,-1.2968952655792236,5.949999999999918
-5.64453125,0.21502971649169922,-1.1644985675811768,5.959999999999917
-3.6352880001068115,2.424337387084961,-3.1235716342926025,5.969999999999917
-2.6947152614593506,3.1671457290649414,-4.7945966720581055,5.979999999999917
-1.4888783693313599,4.120763778686523,-5.959364891052246,5.989999999999917
-0.051409244537353516,4.096286773681641,-6.003523826599121,5.9999999999999165
1.2511491775512695,3.0241737365722656,-4.8716583251953125,6.009999999999916
1.8317800760269165,1.4083194732666016,-3.748711109161377,6.019999999999916
1.6375958919525146,0.2951650619506836,-3.4563260078430176,6.029999999999916
1.0462043285369873,-0.5696344375610352,-3.329394817352295,6.039999999999916
0.4574989676475525,-1.0184106826782227,-2.976484775543213,6.0499999999999154
-0.133400559425354,-1.2778396606445312,-2.4108312129974365,6.059999999999915
-0.5477157831192017,-1.5645132064819336,-1.7760252952575684,6.069999999999915
-0.8313467502593994,-1.7257776260375977,-1.1556529998779297,6.079999999999915
-0.8350925445556641,-1.9015474319458008,-0.9519366025924683,6.089999999999915
-0.6133323311805725,-1.8979897499084473,-0.6998929381370544,6.099999999999914
-0.2452886700630188,-1.5041790008544922,-0.20711354911327362,6.109999999999914
0.19683773815631866,-1.0361156463623047,0.2848539650440216,6.119999999999914
0.5897153615951538,-0.6305408477783203,0.5656405687332153,6.129999999999914
1.016156554222107,-0.45995140075683594,0.6925041079521179,6.1399999999999135
1.218433141708374,-0.4666566848754883,0.7009409666061401,6.149999999999913
1.398804783821106,-0.5304670333862305,0.5769595503807068,6.159999999999913
1.447798490524292,-0.6004467010498047,0.5160803198814392,6.169999999999913
1.4327183961868286,-0.5994119644165039,0.641778826713562,6.179999999999913
1.2356561422348022,-0.7927799224853516,1.0065345764160156,6.1899999999999125
1.1289019584655762,-0.8594818115234375,0.9506407976150513,6.199999999999912
1.0632877349853516,-1.1154546737670898,0.8854660987854004,6.209999999999912
1.0924643278121948,-1.450887680053711,0.8481186032295227,6.219999999999912
1.1022696495056152,-1.7227706909179688,0.769182562828064,6.229999999999912
1.1422650814056396,-1.8767786026000977,0.8472251892089844,6.239999999999911
1.2555538415908813,-1.6906909942626953,1.1274733543395996,6.249999999999911
1.3729673624038696,-1.0185270309448242,1.7110357284545898,6.259999999999911
1.5361766815185547,-0.39153480529785156,2.1020069122314453,6.269999999999911
1.658139944076538,0.3269491195678711,2.3562731742858887,6.2799999999999105
1.6086065769195557,0.9931669235229492,2.167541980743408,6.28999999999991
1.6441688537597656,1.611684799194336,1.5686795711517334,6.29999999999991
1.6516036987304688,2.0694713592529297,0.6363424062728882,6.30999999999991
1.812716007232666,2.3658437728881836,-0.11703205108642578,6.31999999999991
2.2290146350860596,2.2695302963256836,-0.4493943452835083,6.3299999999999095
2.7449193000793457,2.023252487182617,-0.5466667413711548,6.339999999999909
3.249983310699463,1.7531766891479492,-0.22304093837738037,6.349999999999909
3.7428650856018066,1.7227983474731445,0.456487774848938,6.359999999999909
3.952805757522583,2.1456050872802734,1.2800593376159668,6.369999999999909
3.951737642288208,3.228261947631836,1.9483962059020996,6.379999999999908
3.8139448165893555,4.380231857299805,1.9734137058258057,6.389999999999908
3.556945323944092,5.4085540771484375,1.524326205253601,6.399999999999908
3.267451286315918,5.480993270874023,0.5609225034713745,6.409999999999908
3.0632832050323486,4.5857343673706055,-0.3820767402648926,6.419999999999908
2.7374978065490723,3.0820627212524414,-0.6511123180389404,6.429999999999907
1.9877541065216064,1.0112171173095703,-0.5401025414466858,6.439999999999907
1.3898794651031494,-0.5099925994873047,-0.5044481754302979,6.449999999999907
0.9566793441772461,-1.892411708831787,-0.5241609811782837,6.459999999999907
0.6803618669509888,-2.6993002891540527,-0.44049975275993347,6.4699999999999065
0.36948126554489136,-2.6375350952148438,-0.11672062426805496,6.479999999999906
-0.23489028215408325,-1.698744773864746,0.31506913900375366,6.489999999999906
-0.6180168986320496,-0.9381952285766602,0.505388617515564,6.499999999999906
-0.9224957823753357,-0.4114837646484375,0.47203272581100464,6.509999999999906
-1.1680188179016113,0.5267467498779297,0.35947173833847046,6.519999999999905
-1.3111129999160767,1.9634408950805664,0.2513585090637207,6.529999999999905
-1.5161066055297852,3.554234504699707,-0.1559767723083496,6.539999999999905
-2.090604066848755,5.292266845703125,-1.4372267723083496,6.549999999999905
-3.183699607849121,5.834259986877441,-2.389791965484619,6.559999999999905
-3.666656017303467,4.916424751281738,-2.3526453971862793,6.569999999999904
-3.616335153579712,4.944286346435547,-2.5112786293029785,6.579999999999904
-3.2041614055633545,1.9743566513061523,-1.2490851879119873,6.589999999999904
-2.411489963531494,0.8857297897338867,-0.9146816730499268,6.599999999999904
-1.5673342943191528,0.12008476257324219,-0.7238197326660156,6.6099999999999035
-0.7982184886932373,-0.5912952423095703,-0.8428187370300293,6.619999999999903
-0.3478359282016754,-1.322342872619629,-1.1844240427017212,6.629999999999903
-0.10341507941484451,-2.0252790451049805,-1.6163277626037598,6.639999999999903
-0.053358446806669235,-2.561833381652832,-2.0958826541900635,6.649999999999903
-0.056253574788570404,-2.9970169067382812,-2.627810001373291,6.659999999999902
-0.2920224070549011,-3.2538886070251465,-2.7095561027526855,6.669999999999902
-0.5755200982093811,-3.40620756149292,-2.6842782497406006,6.679999999999902
-0.5850343704223633,-3.3537449836730957,-2.8228812217712402,6.689999999999902
-1.3643465042114258,-3.3269004821777344,-1.9224358797073364,6.699999999999902
-1.7891860008239746,-3.2279129028320312,-1.3439037799835205,6.709999999999901
-2.148305654525757,-3.135134696960449,-0.6134166717529297,6.719999999999901
-2.3963005542755127,-3.1273374557495117,0.16135263442993164,6.729999999999901
-2.445972204208374,-3.2985939979553223,1.0316352844238281,6.739999999999901
-2.233030319213867,-3.6174278259277344,1.3778705596923828,6.7499999999999005
-1.848706841468811,-4.217633247375488,1.4685497283935547,6.7599999999999
-1.8312486410140991,-4.231183052062988,1.4974379539489746,6.7699999999999
-1.3612481355667114,-5.400811195373535,1.1021332740783691,6.7799999999999
-1.2876640558242798,-5.902180194854736,0.8932595252990723,6.7899999999999
-1.2572886943817139,-6.207727909088135,0.7385966777801514,6.7999999999998995
-1.33034086227417,-6.155244827270508,0.6371636390686035,6.809999999999899
-1.3999245166778564,-5.530064582824707,0.6863470077514648,6.819999999999899
-1.2613158226013184,-4.323971748352051,0.5625979900360107,6.829999999999899
-0.8964532613754272,-1.3103117942810059,0.8442263603210449,6.839999999999899
-0.6091921329498291,3.170988082885742,1.2998592853546143,6.849999999999898
-0.4497179090976715,10.071542739868164,0.49574828147888184,6.859999999999898
0.15353921055793762,14.341289520263672,0.06507086753845215,6.869999999999898
1.2178101539611816,15.29464054107666,1.9137036800384521,6.879999999999898
3.10992431640625,12.426566123962402,6.668603897094727,6.8899999999998975
5.368137359619141,5.997163772583008,10.632118225097656,6.899999999999897
5.152598857879639,-0.838719367980957,11.90153980255127,6.909999999999897
3.0077710151672363,-3.039306640625,8.63107681274414,6.919999999999897
1.8358643054962158,-2.966526508331299,4.233891487121582,6.929999999999897
0.8163151144981384,-3.275017738342285,-0.08361697196960449,6.9399999999998965
-0.1732058823108673,-4.014922142028809,-2.203062057495117,6.949999999999896
-1.7222284078598022,-4.203521728515625,-3.5536792278289795,6.959999999999896
-3.5401365756988525,-3.2159690856933594,-15.715670585632324,6.969999999999896
-6.472903251647949,-0.05684947967529297,-8.862571716308594,6.979999999999896
-7.476820468902588,1.116267204284668,-3.2241177558898926,6.989999999999895
-7.491981506347656,1.5844144821166992,-0.9171202182769775,6.999999999999895
-6.808668613433838,1.460693359375,-0.7161865234375,7.009999999999895
-5.494579792022705,1.0168495178222656,-1.6375732421875,7.019999999999895
-3.3643975257873535,0.047104835510253906,-2.974424362182617,7.0299999999998946
-1.534993290901184,-0.14899921417236328,-4.169616222381592,7.039999999999894
-0.7928080558776855,0.6509599685668945,-4.811634063720703,7.049999999999894
-0.22060096263885498,2.041762351989746,-5.625906944274902,7.059999999999894
0.6488408446311951,2.8450021743774414,-5.3727922439575195,7.069999999999894
1.2023367881774902,2.664597511291504,-4.595281600952148,7.0799999999998935
1.3300583362579346,2.0087461471557617,-3.786005973815918,7.089999999999893
0.9190417528152466,0.9267435073852539,-3.2870266437530518,7.099999999999893
0.3221283257007599,0.3181943893432617,-3.1088860034942627,7.109999999999893
-0.33667922019958496,-0.23729896545410156,-2.682298183441162,7.119999999999893
-0.8323023915290833,-0.6948728561401367,-2.039527654647827,7.129999999999892
-1.2429529428482056,-1.3738946914672852,-1.2032872438430786,7.139999999999892
-1.360958456993103,-1.9593329429626465,-0.7815157175064087,7.149999999999892
-1.3654212951660156,-2.5524916648864746,-0.7617112994194031,7.159999999999892
-1.3683602809906006,-2.5547118186950684,-0.7261361479759216,7.169999999999892
-0.9616752862930298,-2.307614803314209,-0.23589351773262024,7.179999999999891
-0.6204737424850464,-1.4803485870361328,0.23567575216293335,7.189999999999891
-0.2584351897239685,-0.7340869903564453,0.565527081489563,7.199999999999891
0.07591396570205688,-0.2443065643310547,0.734134316444397,7.209999999999891
0.46424153447151184,0.086639404296875,0.7392564415931702,7.2199999999998905
0.7879326939582825,0.1771707534790039,0.6255977153778076,7.22999999999989
1.1452672481536865,0.09207344055175781,0.5119558572769165,7.23999999999989
1.4672191143035889,-0.3044281005859375,0.6076458096504211,7.24999999999989
1.6647552251815796,-0.6978731155395508,0.788284182548523,7.25999999999989
1.8641220331192017,-0.9728012084960938,0.9887984991073608,7.269999999999889
2.0451529026031494,-1.306142807006836,0.9910597205162048,7.279999999999889
2.1893470287323,-1.5277881622314453,0.9945306181907654,7.289999999999889
2.2905619144439697,-1.7763986587524414,0.8907740116119385,7.299999999999889
2.4108386039733887,-1.97285795211792,0.6673536896705627,7.309999999999889
2.477372407913208,-2.146026611328125,0.5203257203102112,7.319999999999888
2.4665446281433105,-2.1358561515808105,0.4308927059173584,7.329999999999888
2.217020273208618,-1.9355964660644531,0.31620126962661743,7.339999999999888
1.921159267425537,-1.3951139450073242,0.36272168159484863,7.349999999999888
1.5526357889175415,-0.5225200653076172,0.5690330862998962,7.3599999999998875
1.4161744117736816,0.557377815246582,0.6147977113723755,7.369999999999887
1.4863840341567993,1.2919015884399414,0.5972833633422852,7.379999999999887
1.811774730682373,1.5927314758300781,0.4839264154434204,7.389999999999887
2.1268458366394043,1.591385841369629,0.35783886909484863,7.399999999999887
2.2347359657287598,1.541086196899414,0.4318290948867798,7.4099999999998865
2.0138278007507324,1.5848283767700195,0.6220518946647644,7.419999999999886
1.4134548902511597,1.6099834442138672,0.7160768508911133,7.429999999999886
0.9158323407173157,1.7726774215698242,0.9332641363143921,7.439999999999886
0.568880021572113,2.140033721923828,1.261999487876892,7.449999999999886
0.3974781036376953,2.982150077819824,1.4998524188995361,7.459999999999885
0.5210772752761841,3.9570817947387695,1.2382071018218994,7.469999999999885
0.7214972376823425,4.846419334411621,0.5470167994499207,7.479999999999885
0.9337749481201172,4.951869010925293,-0.1304926872253418,7.489999999999885
1.2416024208068848,4.225666046142578,-0.7760154008865356,7.4999999999998845
1.552710771560669,3.1080589294433594,-1.223082184791565,7.509999999999884
1.5367119312286377,1.410501480102539,-0.9875051379203796,7.519999999999884
1.1121718883514404,0.26560020446777344,-0.696950376033783,7.529999999999884
0.6525014638900757,-0.7644290924072266,-0.38389652967453003,7.539999999999884
0.41518324613571167,-1.2835636138916016,-0.23478323221206665,7.5499999999998835
0.3053584694862366,-1.4697189331054688,-0.16244855523109436,7.559999999999883
0.24537038803100586,-1.4825611114501953,-0.284906804561615,7.569999999999883
0.1554245948791504,-1.2975130081176758,-0.4820675551891327,7.579999999999883
0.048149630427360535,-0.8104982376098633,-0.5182427167892456,7.589999999999883
0.09306443482637405,-7.877349853515625E-4,-0.6198987364768982,7.599999999999882
0.18445895612239838,1.2122936248779297,-0.9646317958831787,7.609999999999882
0.0622633695602417,2.6296205520629883,-1.8395743370056152,7.619999999999882
-0.3552221357822418,3.844883918762207,-2.7488715648651123,7.629999999999882
-1.3329585790634155,4.812432289123535,-2.977907657623291,7.6399999999998816
-2.2846477031707764,4.762821197509766,-2.9013991355895996,7.649999999999881
-2.828235149383545,4.05125617980957,-2.807582378387451,7.659999999999881
-2.7750401496887207,3.0489139556884766,-2.5879130363464355,7.669999999999881
-2.173335075378418,1.920989990234375,-2.234191417694092,7.679999999999881
-1.29004967212677,0.6507129669189453,-2.022458553314209,7.6899999999998805
-0.7549857497215271,-0.6811046600341797,-1.9576599597930908,7.69999999999988
-0.635315477848053,-1.3406810760498047,-2.117992401123047,7.70999999999988
-0.6990740299224854,-1.827531337738037,-2.3281805515289307,7.71999999999988
-0.8759402632713318,-2.188910484313965,-2.523599147796631,7.72999999999988
-1.081524133682251,-2.4230966567993164,-2.6415493488311768,7.739999999999879
-1.308026671409607,-2.5653185844421387,-2.657463312149048,7.749999999999879
-1.2907092571258545,-2.5398802757263184,-2.7519195079803467,7.759999999999879
-1.6845965385437012,-2.6570167541503906,-2.483226776123047,7.769999999999879
-1.9150077104568481,-2.6245737075805664,-2.2605626583099365,7.779999999999879
-2.2074155807495117,-2.529770851135254,-1.8386390209197998,7.789999999999878
-2.4937920570373535,-2.5247440338134766,-1.3688877820968628,7.799999999999878
-2.5692219734191895,-2.730959415435791,-0.7789897918701172,7.809999999999878
-2.2894420623779297,-3.0117034912109375,0.013340234756469727,7.819999999999878
-1.8351671695709229,-3.1776371002197266,0.6878628730773926,7.8299999999998775
-1.3688397407531738,-3.3169984817504883,1.2660877704620361,7.839999999999877
-1.2102011442184448,-3.3517966270446777,1.6933534145355225,7.849999999999877
-1.4868358373641968,-3.345860004425049,1.6739623546600342,7.859999999999877
-2.0357182025909424,-3.0293779373168945,1.514176368713379,7.869999999999877
-2.464970827102661,-2.3356757164001465,1.0406725406646729,7.879999999999876
-2.377689838409424,-1.3611583709716797,0.8373277187347412,7.889999999999876
-1.834568738937378,-0.17531776428222656,0.5387706756591797,7.899999999999876
-1.4649511575698853,1.8272600173950195,0.3075602054595947,7.909999999999876
-0.7870916724205017,3.5320873260498047,0.24200701713562012,7.919999999999876
-0.26071691513061523,4.663124084472656,0.2685408592224121,7.929999999999875
0.39314204454421997,4.773210525512695,0.7310082912445068,7.939999999999875
1.2994301319122314,3.873244285583496,1.051949381828308,7.949999999999875
2.148883581161499,2.3931570053100586,1.129459023475647,7.959999999999875
2.704829454421997,0.9665346145629883,0.9892444610595703,7.9699999999998745
2.7534067630767822,-0.26703929901123047,0.5294945240020752,7.979999999999874
2.520252227783203,-1.4038047790527344,-0.10051703453063965,7.989999999999874
