AccX,AccY,AccZ,SampleRate
0.031030654907226562,2.501527786254883,-0.18116939067840576,0
0.25324177742004395,3.6687936782836914,-1.1240880489349365,0.01
0.20913004875183105,3.7019386291503906,-1.2061097621917725,0.02
-0.18410158157348633,4.629769325256348,-1.8746392726898193,0.03
-0.11091923713684082,3.6036930084228516,-1.690664529800415,0.04
-0.13749098777770996,3.6545419692993164,-1.846747636795044,0.05
0.1307525634765625,1.2420406341552734,-0.6522486209869385,0.060000000000000005
-0.04842257499694824,0.32345008850097656,-0.5206203460693359,0.07
-0.3662877082824707,-0.2587165832519531,-0.6596012115478516,0.08
-0.7892804145812988,-0.6528024673461914,-0.9110064506530762,0.09
-1.3662915229797363,-0.7113504409790039,-1.0774292945861816,0.09999999999999999
-2.0158557891845703,-0.6457982063293457,-1.3343212604522705,0.10999999999999999
-2.428760051727295,-0.5091762542724609,-1.9158868789672852,0.11999999999999998
-2.466130495071411,-0.45442962646484375,-2.0101704597473145,0.12999999999999998
-2.836615562438965,-0.4893932342529297,-1.8414212465286255,0.13999999999999999
-2.836699962615967,-0.7578539848327637,-1.1952018737792969,0.15
-2.703193187713623,-1.1795058250427246,-0.47641706466674805,0.16
-2.3610644340515137,-1.6867632865905762,-0.0016984939575195312,0.17
-2.121885299682617,-2.0768003463745117,-0.041597843170166016,0.18000000000000002
-1.9989937543869019,-2.517700672149658,-0.39174509048461914,0.19000000000000003
-2.1386375427246094,-2.869905471801758,-0.9653816223144531,0.20000000000000004
-2.3162364959716797,-3.1741528511047363,-1.328815221786499,0.21000000000000005
-2.5418314933776855,-3.3792853355407715,-1.1909658908843994,0.22000000000000006
-2.6747286319732666,-3.5706958770751953,-0.6073482036590576,0.23000000000000007
-2.571197986602783,-3.805964469909668,-0.06817102432250977,0.24000000000000007
-2.299119472503662,-4.083757400512695,0.4756183624267578,0.25000000000000006
-2.0877737998962402,-4.261598587036133,0.8046517372131348,0.26000000000000006
-2.012606143951416,-4.315551280975342,1.01810622215271,0.2700000000000001
-1.9839061498641968,-3.9761786460876465,1.2849640846252441,0.2800000000000001
-1.7149182558059692,-2.8867764472961426,1.5341577529907227,0.2900000000000001
-0.8804492950439453,-1.1780362129211426,1.5885555744171143,0.3000000000000001
0.11193656921386719,2.2638559341430664,1.535900592803955,0.3100000000000001
1.0464177131652832,5.554515838623047,0.824662446975708,0.3200000000000001
2.4589552879333496,8.488502502441406,-0.5987265110015869,0.3300000000000001
4.624943733215332,9.018500328063965,-0.2982299327850342,0.34000000000000014
7.490228652954102,6.131645202636719,4.388729572296143,0.35000000000000014
8.361948013305664,2.4760255813598633,7.636364936828613,0.36000000000000015
6.4856743812561035,-1.4638028144836426,8.276345252990723,0.37000000000000016
3.310370445251465,-3.8192601203918457,5.974000453948975,0.38000000000000017
0.9874851703643799,-4.819086074829102,2.4842469692230225,0.3900000000000002
-0.4009420871734619,-4.316252708435059,-0.9832329750061035,0.4000000000000002
-0.18293261528015137,-1.9385628700256348,-2.8536834716796875,0.4100000000000002
0.23310422897338867,-0.2891359329223633,-3.8538565635681152,0.4200000000000002
-0.20593953132629395,1.5439691543579102,-5.184659957885742,0.4300000000000002
-1.6218953132629395,4.6479597091674805,-9.41971492767334,0.4400000000000002
-4.307763576507568,7.611787796020508,-10.06450366973877,0.45000000000000023
-7.288605690002441,7.8128509521484375,-4.661855697631836,0.46000000000000024
-8.514814376831055,6.3331708908081055,0.8680791854858398,0.47000000000000025
-7.6908674240112305,3.232278823852539,3.6227729320526123,0.48000000000000026
-5.964115142822266,-0.24994754791259766,4.822390556335449,0.49000000000000027
-4.362105369567871,-2.3248987197875977,3.0719916820526123,0.5000000000000002
-3.096050262451172,-2.8487629890441895,0.41703152656555176,0.5100000000000002
-2.036708116531372,-2.3068714141845703,-1.8139252662658691,0.5200000000000002
-1.1850279569625854,-1.3643512725830078,-3.677886962890625,0.5300000000000002
-0.7734148502349854,-0.5132989883422852,-5.059783935546875,0.5400000000000003
-0.2260723114013672,0.859126091003418,-7.428343772888184,0.5500000000000003
0.6956417560577393,1.704092025756836,-8.635042190551758,0.5600000000000003
1.867936611175537,1.0532560348510742,-6.314374923706055,0.5700000000000003
2.226163387298584,0.5106058120727539,-4.0651936531066895,0.5800000000000003
1.798525094985962,0.13220882415771484,-2.306901216506958,0.5900000000000003
1.0925955772399902,-0.01526641845703125,-1.1382464170455933,0.6000000000000003
0.34636712074279785,-0.5356006622314453,0.5160629153251648,0.6100000000000003
-0.18669486045837402,-0.813960075378418,1.873608112335205,0.6200000000000003
-0.7952477931976318,-0.7299385070800781,2.234743356704712,0.6300000000000003
-0.9106378555297852,-0.8024024963378906,1.5395920276641846,0.6400000000000003
-0.7553374767303467,-0.9778614044189453,0.09942615032196045,0.6500000000000004
-0.652571439743042,-1.1291561126708984,-0.8108794093132019,0.6600000000000004
-0.39703893661499023,-1.5044808387756348,-1.7793532609939575,0.6700000000000004
0.029317378997802734,-1.5684361457824707,-2.3982954025268555,0.6800000000000004
0.7229571342468262,-1.4833550453186035,-2.353928565979004,0.6900000000000004
1.222822904586792,-1.427358627319336,-1.71286940574646,0.7000000000000004
1.6984984874725342,-1.3995709419250488,-0.5974494814872742,0.7100000000000004
1.8446238040924072,-1.3866009712219238,0.270742803812027,0.7200000000000004
1.695673942565918,-1.3913817405700684,0.9384328722953796,0.7300000000000004
1.2022416591644287,-1.3039703369140625,1.2174431085586548,0.7400000000000004
0.6970102787017822,-1.3946003913879395,1.300311803817749,0.7500000000000004
0.4758427143096924,-1.4320001602172852,1.2687709331512451,0.7600000000000005
0.47469139099121094,-1.5111160278320312,1.2610480785369873,0.7700000000000005
0.5875790119171143,-1.292546272277832,1.3408019542694092,0.7800000000000005
0.6840064525604248,-0.9284687042236328,1.5159645080566406,0.7900000000000005
0.6474177837371826,-0.6018667221069336,1.6052420139312744,0.8000000000000005
0.5130727291107178,-0.44477176666259766,1.3618884086608887,0.8100000000000005
0.4868631362915039,-0.22711563110351562,0.7251640558242798,0.8200000000000005
0.7525787353515625,0.1213216781616211,0.19545447826385498,0.8300000000000005
1.1850004196166992,0.3500099182128906,0.08062225580215454,0.8400000000000005
1.6820073127746582,0.5841035842895508,0.19950979948043823,0.8500000000000005
2.0952250957489014,0.7090215682983398,0.3997794985771179,0.8600000000000005
2.5259716510772705,0.6746454238891602,0.41045480966567993,0.8700000000000006
2.9059674739837646,0.5176076889038086,0.27322137355804443,0.8800000000000006
3.454477071762085,0.3486013412475586,0.5260579586029053,0.8900000000000006
3.9042580127716064,0.46689891815185547,0.9132344722747803,0.9000000000000006
4.198933124542236,0.8525962829589844,1.3614009618759155,0.9100000000000006
4.219286918640137,1.542494773864746,1.237464427947998,0.9200000000000006
4.032020568847656,2.484992027282715,0.4755089282989502,0.9300000000000006
3.8962907791137695,3.3062515258789062,-0.4134887456893921,0.9400000000000006
4.088888168334961,3.691865921020508,-0.8261212110519409,0.9500000000000006
4.306410789489746,3.3305091857910156,-0.887771487236023,0.9600000000000006
4.256170272827148,3.333362579345703,-1.0087709426879883,0.9700000000000006
3.170621395111084,0.8874759674072266,0.7026224136352539,0.9800000000000006
1.468717098236084,-0.2560739517211914,1.3177037239074707,0.9900000000000007
0.47511744499206543,-1.4855494499206543,1.23150634765625,1.0000000000000007
-0.05806779861450195,-1.9093704223632812,0.7542541027069092,1.0100000000000007
-0.3490602970123291,-1.7097768783569336,0.24494296312332153,1.0200000000000007
-0.5233237743377686,-1.0740060806274414,-0.23524588346481323,1.0300000000000007
-0.9327764511108398,-0.19345474243164062,-0.5939181447029114,1.0400000000000007
-1.3544262647628784,0.4272298812866211,-0.8119189143180847,1.0500000000000007
-1.5797711610794067,0.9302196502685547,-0.7182278633117676,1.0600000000000007
-1.5321558713912964,1.4953927993774414,-0.656437873840332,1.0700000000000007
-1.496156930923462,2.2004852294921875,-0.8380911350250244,1.0800000000000007
-1.5073894262313843,3.34346866607666,-1.0047534704208374,1.0900000000000007
-1.9079760313034058,4.155900955200195,-1.87995445728302,1.1000000000000008
-2.0995702743530273,4.249485015869141,-2.7149314880371094,1.1100000000000008
-2.0265867710113525,3.6744680404663086,-2.6907997131347656,1.1200000000000008
-1.5970282554626465,2.6637344360351562,-1.7715775966644287,1.1300000000000008
-1.0716229677200317,2.0181169509887695,-0.9916490316390991,1.1400000000000008
-0.4168260097503662,1.539036750793457,0.05021476745605469,1.1500000000000008
0.19008183479309082,1.105269432067871,1.039060115814209,1.1600000000000008
0.1972503662109375,0.3993415832519531,1.552370309829712,1.1700000000000008
-0.44169139862060547,-0.47429656982421875,1.1699326038360596,1.1800000000000008
-1.1679177284240723,-1.3675365447998047,0.3495800495147705,1.1900000000000008
-1.7101649045944214,-1.6290240287780762,-0.3536715507507324,1.2000000000000008
-2.2441532611846924,-1.7498822212219238,-0.5242557525634766,1.2100000000000009
-2.521487236022949,-1.759037971496582,-1.56563401222229,1.2200000000000009
-2.517695903778076,-1.7144989967346191,-2.224003314971924,1.2300000000000009
-2.3779706954956055,-1.6625370979309082,-2.5502712726593018,1.2400000000000009
-2.1633076667785645,-1.6354637145996094,-2.5324199199676514,1.2500000000000009
-2.0553674697875977,-1.742722988128662,-2.422457218170166,1.260000000000001
-2.038733959197998,-1.8720879554748535,-2.185960531234741,1.270000000000001
-2.0373647212982178,-1.8407931327819824,-2.2530276775360107,1.280000000000001
-2.403517961502075,-2.438669204711914,-1.7787082195281982,1.290000000000001
-2.6600117683410645,-2.8321590423583984,-1.4633278846740723,1.300000000000001
-2.8002536296844482,-3.379072666168213,-0.8067545890808105,1.310000000000001
-2.714233875274658,-3.8044047355651855,-0.10356283187866211,1.320000000000001
-2.3637962341308594,-4.211852550506592,0.7357549667358398,1.330000000000001
-1.9329978227615356,-4.418582916259766,1.1511359214782715,1.340000000000001
-1.6890300512313843,-4.301447868347168,1.018242359161377,1.350000000000001
-1.594077467918396,-4.039661884307861,0.8445141315460205,1.360000000000001
-1.3187777996063232,-3.3598814010620117,0.9422142505645752,1.370000000000001
-0.8877902030944824,-2.298823833465576,1.1769013404846191,1.380000000000001
0.08116006851196289,-0.22205162048339844,1.5899529457092285,1.390000000000001
1.0866198539733887,2.3145675659179688,1.9544498920440674,1.400000000000001
2.38956356048584,4.687737464904785,2.0146446228027344,1.410000000000001
4.080033302307129,6.105964660644531,1.939035415649414,1.420000000000001
6.238119125366211,5.715688705444336,3.3514926433563232,1.430000000000001
7.452945709228516,4.323694229125977,5.566020965576172,1.440000000000001
7.309333801269531,4.390519142150879,5.52410364151001,1.450000000000001
4.422732353210449,-0.8567562103271484,5.8344526290893555,1.460000000000001
1.6672379970550537,-2.308295249938965,3.2386884689331055,1.470000000000001
0.1738114356994629,-2.1974101066589355,0.46274495124816895,1.480000000000001
0.10053324699401855,0.5143833160400391,-1.0945340394973755,1.490000000000001
0.24042248725891113,1.6718721389770508,-1.773345947265625,1.500000000000001
0.2129521369934082,1.6459388732910156,-1.6619758605957031,1.5100000000000011
-1.927768349647522,4.520454406738281,-5.735533714294434,1.5200000000000011
-4.795527458190918,5.246262550354004,-7.054471015930176,1.5300000000000011
-7.612622261047363,4.67232608795166,-4.818881034851074,1.5400000000000011
-8.403840065002441,3.177859306335449,-0.5185859203338623,1.5500000000000012
-7.490175247192383,1.3965530395507812,1.4776487350463867,1.5600000000000012
-7.268778324127197,1.3694572448730469,1.340766429901123,1.5700000000000012
-3.3375492095947266,-1.54362154006958,0.5454380512237549,1.5800000000000012
-3.3507401943206787,-1.551872730255127,0.5830917358398438,1.5900000000000012
-1.1216055154800415,-1.6016197204589844,-2.765932559967041,1.6000000000000012
-0.20482230186462402,-1.0386762619018555,-3.956879138946533,1.6100000000000012
0.347259521484375,-0.3204212188720703,-4.885165214538574,1.6200000000000012
0.95406174659729,1.0704994201660156,-6.423830032348633,1.6300000000000012
1.6701912879943848,1.988302230834961,-6.002039909362793,1.6400000000000012
2.079227924346924,1.917947769165039,-4.006920337677002,1.6500000000000012
1.874953031539917,1.3298254013061523,-2.28125,1.6600000000000013
1.323533535003662,0.4234790802001953,-0.6123638153076172,1.6700000000000013
0.8034706115722656,-0.29499053955078125,0.9730361700057983,1.6800000000000013
0.150892972946167,-0.7602357864379883,2.0985705852508545,1.6900000000000013
-0.6455450057983398,-0.5302619934082031,1.9243183135986328,1.7000000000000013
-1.1503489017486572,-0.1555337905883789,0.7485929727554321,1.7100000000000013
-1.3885291814804077,0.07979106903076172,-0.7192029356956482,1.7200000000000013
-1.4242734909057617,-0.16475582122802734,-2.2089362144470215,1.7300000000000013
-1.2078626155853271,-0.7502765655517578,-2.962409019470215,1.7400000000000013
-0.8973708152770996,-1.3019466400146484,-3.3514773845672607,1.7500000000000013
-0.4455888271331787,-1.5171818733215332,-3.0896546840667725,1.7600000000000013
0.25354838371276855,-1.3853468894958496,-2.0781726837158203,1.7700000000000014
0.7820894718170166,-1.2554149627685547,-0.7516601085662842,1.7800000000000014
1.2096326351165771,-1.3857569694519043,0.6139193177223206,1.7900000000000014
1.261667013168335,-1.520493507385254,1.3790674209594727,1.8000000000000014
1.0867469310760498,-1.643134593963623,1.7404154539108276,1.8100000000000014
0.7467577457427979,-1.513960838317871,1.5399589538574219,1.8200000000000014
0.5573635101318359,-1.4166274070739746,1.047839879989624,1.8300000000000014
0.5076086521148682,-1.3565778732299805,0.5783286690711975,1.8400000000000014
0.6875169277191162,-1.5295672416687012,0.5173707008361816,1.8500000000000014
0.8886988162994385,-1.5771875381469727,0.8576366901397705,1.8600000000000014
1.1619982719421387,-1.7081198692321777,1.3163597583770752,1.8700000000000014
1.4190165996551514,-1.723820686340332,1.7441082000732422,1.8800000000000014
1.4340760707855225,-1.4978318214416504,1.7583627700805664,1.8900000000000015
1.478745698928833,-1.2478218078613281,1.2014071941375732,1.9000000000000015
1.4974703788757324,-1.0708093643188477,0.3142319917678833,1.9100000000000015
1.6408932209014893,-0.8133630752563477,-0.1941314935684204,1.9200000000000015
1.9643306732177734,-0.40201854705810547,-0.19278991222381592,1.9300000000000015
2.4412379264831543,0.34125614166259766,0.2084815502166748,1.9400000000000015
2.852125644683838,0.9894027709960938,0.5966705083847046,1.9500000000000015
3.0130386352539062,1.2626781463623047,0.769864559173584,1.9600000000000015
3.298091173171997,1.301137924194336,0.6966559886932373,1.9700000000000015
3.5412495136260986,1.3619699478149414,0.7173668742179871,1.9800000000000015
3.5806844234466553,1.353994369506836,0.7260528206825256,1.9900000000000015
3.195988655090332,2.198026657104492,0.17049360275268555,2.0000000000000013
2.982412576675415,3.59171199798584,-0.3303736448287964,2.010000000000001
3.24006724357605,4.937321662902832,-0.7638194561004639,2.020000000000001
3.7189648151397705,5.428882598876953,-1.0793991088867188,2.0300000000000007
4.22528600692749,4.743782043457031,-0.8913768529891968,2.0400000000000005
4.452637672424316,2.987156867980957,-0.5636168718338013,2.0500000000000003
3.5087339878082275,0.9871435165405273,-0.016367852687835693,2.06
1.780163049697876,-0.2158527374267578,0.3765921890735626,2.07
0.6540606021881104,-1.0736474990844727,0.25593262910842896,2.0799999999999996
0.10277104377746582,-1.677947998046875,0.060776978731155396,2.0899999999999994
-0.21935749053955078,-1.6535634994506836,0.09983626753091812,2.099999999999999
-0.7243883609771729,-0.948944091796875,0.43700993061065674,2.109999999999999
-1.2449127435684204,0.07668685913085938,0.8259329795837402,2.1199999999999988
-1.6012388467788696,0.5456075668334961,0.9718761444091797,2.1299999999999986
-1.6460484266281128,0.5760869979858398,0.76075679063797,2.1399999999999983
-1.4167722463607788,1.0690622329711914,-0.04138040542602539,2.149999999999998
-1.2207789421081543,1.7501001358032227,-0.9147211909294128,2.159999999999998
-1.2908978462219238,2.4756546020507812,-2.0466086864471436,2.1699999999999977
-1.3002606630325317,2.833083152770996,-2.6665868759155273,2.1799999999999975
-1.722980260848999,2.937716484069824,-2.6715002059936523,2.1899999999999973
-1.880514144897461,2.6123409271240234,-1.851978063583374,2.199999999999997
-1.680954098701477,2.013578414916992,-0.5971639156341553,2.209999999999997
-1.304323673248291,1.7787914276123047,0.31439924240112305,2.2199999999999966
-0.7549619674682617,1.3788318634033203,0.9293811321258545,2.2299999999999964
-0.36150670051574707,0.909947395324707,1.0435125827789307,2.239999999999996
-0.3030056953430176,0.33507442474365234,0.5047876834869385,2.249999999999996
-0.6534290313720703,-0.5026006698608398,-0.48673224449157715,2.259999999999996
-1.0538735389709473,-1.2420125007629395,-1.472137451171875,2.2699999999999956
-1.4292696714401245,-1.4633903503417969,-1.9670721292495728,2.2799999999999954
-1.7750608921051025,-1.528982162475586,-2.2246451377868652,2.289999999999995
-2.0314087867736816,-1.5347423553466797,-2.039172887802124,2.299999999999995
-2.3407983779907227,-1.4856748580932617,-1.6246848106384277,2.3099999999999947
-2.455036163330078,-1.4162826538085938,-1.579554557800293,2.3199999999999945
-2.4744153022766113,-1.4829721450805664,-1.2904047966003418,2.3299999999999943
-2.422793388366699,-1.6911683082580566,-0.9844624996185303,2.339999999999994
-2.345341682434082,-2.0799126625061035,-0.7412898540496826,2.349999999999994
-2.333725929260254,-2.4930572509765625,-0.9992952346801758,2.3599999999999937
-2.478703022003174,-2.912400722503662,-1.392637014389038,2.3699999999999934
-2.6218299865722656,-3.3709306716918945,-1.5382158756256104,2.3799999999999932
-2.7163028717041016,-3.7510814666748047,-1.2939815521240234,2.389999999999993
-2.723212242126465,-4.004266738891602,-0.7307295799255371,2.399999999999993
-2.6974880695343018,-4.161049842834473,-0.04097414016723633,2.4099999999999926
-2.5763907432556152,-4.22206974029541,0.37384033203125,2.4199999999999924
-2.3192572593688965,-4.197636604309082,0.4436659812927246,2.429999999999992
-1.915297031402588,-4.142496109008789,0.4768385887145996,2.439999999999992
-1.3471171855926514,-3.796271800994873,0.8113927841186523,2.4499999999999917
-0.9117059707641602,-3.1202898025512695,1.4326164722442627,2.4599999999999915
-0.8721027374267578,-3.200611114501953,1.576655626296997,2.4699999999999913
0.7867040634155273,1.4354572296142578,2.6776649951934814,2.479999999999991
1.7969636917114258,4.629385948181152,2.811041831970215,2.489999999999991
3.0928468704223633,7.184676170349121,2.7452609539031982,2.4999999999999907
5.114416122436523,7.920445442199707,3.0853686332702637,2.5099999999999905
6.7183918952941895,7.129308700561523,4.372709274291992,2.5199999999999902
7.908745765686035,4.878426551818848,6.037683486938477,2.52999999999999
7.766453742980957,4.959059715270996,5.977555274963379,2.53999999999999
4.285886764526367,0.5407772064208984,4.870521545410156,2.5499999999999896
2.437201976776123,2.099882125854492,2.311021327972412,2.5599999999999894
0.9754965305328369,1.2589950561523438,-1.6288291215896606,2.569999999999989
0.0269925594329834,0.714747428894043,-4.0545830726623535,2.579999999999989
-1.3246088027954102,1.229909896850586,-6.100919723510742,2.5899999999999888
-3.4017107486724854,2.4426956176757812,-7.920427322387695,2.5999999999999885
-6.631411075592041,2.3037614822387695,-6.119993209838867,2.6099999999999883
-8.90041732788086,1.125208854675293,-1.380535364151001,2.619999999999988
-9.607152938842773,0.31780529022216797,2.6787655353546143,2.629999999999988
-8.787187576293945,-0.28446006774902344,3.1750540733337402,2.6399999999999877
-6.6749114990234375,-0.596954345703125,2.0889410972595215,2.6499999999999875
-6.58830451965332,-0.626434326171875,2.105403423309326,2.6599999999999873
-3.0132131576538086,-0.5766229629516602,-2.109069347381592,2.669999999999987
-1.3085919618606567,-0.841242790222168,-3.594207763671875,2.679999999999987
0.36973047256469727,-1.0765175819396973,-4.826811790466309,2.6899999999999866
1.2341928482055664,-0.7217273712158203,-6.6330342292785645,2.6999999999999864
2.0344929695129395,0.8440036773681641,-9.551307678222656,2.709999999999986
2.9927101135253906,1.3684368133544922,-7.177852630615234,2.719999999999986
3.1025428771972656,1.0051689147949219,-4.209136962890625,2.7299999999999858
2.4568068981170654,0.618830680847168,-2.4552974700927734,2.7399999999999856
1.5173141956329346,0.059533119201660156,-1.2913178205490112,2.7499999999999853
0.6544520854949951,-0.4273862838745117,0.09846746921539307,2.759999999999985
-0.4408717155456543,-0.7754487991333008,1.9541738033294678,2.769999999999985
-1.153657078742981,-0.6408214569091797,2.998290538787842,2.7799999999999847
-1.3589121103286743,-0.15375328063964844,2.4957427978515625,2.7899999999999845
-1.0625602006912231,0.3953514099121094,0.7613883018493652,2.7999999999999843
-0.3716917037963867,0.4698982238769531,-1.2754454612731934,2.809999999999984
0.18569016456604004,0.27235889434814453,-2.3512980937957764,2.819999999999984
0.2232968807220459,-0.23217010498046875,-3.3909871578216553,2.8299999999999836
0.3383464813232422,-1.021871566772461,-3.85695219039917,2.8399999999999834
0.16766881942749023,-1.6192588806152344,-3.4732730388641357,2.849999999999983
0.06848454475402832,-1.831641674041748,-2.3698172569274902,2.859999999999983
0.15214967727661133,-1.894768238067627,-0.6673912405967712,2.869999999999983
0.11053729057312012,-1.8550167083740234,0.5337628126144409,2.8799999999999826
0.0577390193939209,-1.8158202171325684,1.6171776056289673,2.8899999999999824
0.20403623580932617,-1.7766046524047852,1.9900193214416504,2.899999999999982
0.33176684379577637,-1.73659086227417,1.9349545240402222,2.909999999999982
0.5964517593383789,-1.5397272109985352,1.4825462102890015,2.9199999999999817
0.7419297695159912,-1.2627296447753906,0.7376656532287598,2.9299999999999815
0.9195444583892822,-1.0312767028808594,0.3576766848564148,2.9399999999999813
1.050851821899414,-0.8607234954833984,0.28467342257499695,2.949999999999981
1.0717833042144775,-0.7757291793823242,0.5565735101699829,2.959999999999981
1.0548286437988281,-0.7642002105712891,1.0451891422271729,2.9699999999999807
1.1790993213653564,-0.6337690353393555,1.4567832946777344,2.9799999999999804
1.4501605033874512,-0.37597084045410156,1.5158989429473877,2.9899999999999802
1.7444851398468018,-0.07644844055175781,1.3165971040725708,2.99999999999998
2.0541839599609375,0.31046485900878906,0.9671593308448792,3.00999999999998
2.4287126064300537,0.6337947845458984,0.6903630495071411,3.0199999999999796
2.680626153945923,0.8525228500366211,0.48032140731811523,3.0299999999999794
2.8951306343078613,1.0091686248779297,0.4158959984779358,3.039999999999979
3.1074109077453613,1.2946977615356445,0.21782004833221436,3.049999999999979
3.3014609813690186,1.2928552627563477,0.02172398567199707,3.0599999999999787
3.475238800048828,1.1481294631958008,0.10949063301086426,3.0699999999999785
3.7127606868743896,0.8132820129394531,0.277432382106781,3.0799999999999783
3.947268009185791,0.8438091278076172,0.7092350721359253,3.089999999999978
4.241458892822266,1.5523147583007812,0.9156873226165771,3.099999999999978
4.262075424194336,3.126638412475586,0.0999521017074585,3.1099999999999777
4.075935363769531,3.909722328186035,-0.6165330410003662,3.1199999999999775
4.060309410095215,3.4604339599609375,-1.0104784965515137,3.1299999999999772
3.852688789367676,1.9445409774780273,-0.9239534735679626,3.139999999999977
2.8009746074676514,0.605128288269043,-0.6646431088447571,3.149999999999977
1.2885401248931885,-0.31850147247314453,-0.3873629570007324,3.1599999999999766
0.11206960678100586,-1.247849464416504,-0.12112078070640564,3.1699999999999764
-0.5006167888641357,-1.7376594543457031,0.09011099487543106,3.179999999999976
-0.6845450401306152,-1.797769546508789,0.16781586408615112,3.189999999999976
-0.8997702598571777,-1.218719482421875,0.1672266125679016,3.1999999999999758
-1.119760274887085,-0.19029521942138672,0.24994492530822754,3.2099999999999755
-1.1905360221862793,0.42196178436279297,0.36575424671173096,3.2199999999999753
-0.9216651916503906,0.7262840270996094,0.17759299278259277,3.229999999999975
-0.7442708015441895,1.4234657287597656,-0.3143886923789978,3.239999999999975
-0.6133217811584473,2.481891632080078,-1.2097387313842773,3.2499999999999747
-0.3691897392272949,3.221141815185547,-2.4855966567993164,3.2599999999999745
-0.6228017807006836,3.841952323913574,-3.5114612579345703,3.2699999999999743
-1.1605803966522217,3.9517621994018555,-3.476423740386963,3.279999999999974
-1.2497103214263916,3.0790176391601562,-1.840543508529663,3.289999999999974
-1.0443480014801025,2.186337471008301,-0.23640191555023193,3.2999999999999736
-0.605726957321167,1.3124322891235352,1.5202991962432861,3.3099999999999734
-0.17777395248413086,0.5446043014526367,2.4567365646362305,3.319999999999973
-0.14124631881713867,0.041667938232421875,2.1237409114837646,3.329999999999973
-0.43185973167419434,-0.3715486526489258,0.7810854911804199,3.3399999999999728
-0.8879845142364502,-0.7142734527587891,-0.9092490673065186,3.3499999999999726
-1.231628179550171,-0.7484350204467773,-1.9586129188537598,3.3599999999999723
-1.5984495878219604,-0.7168822288513184,-2.668156862258911,3.369999999999972
-2.1056151390075684,-0.7410445213317871,-2.539051055908203,3.379999999999972
-2.7376487255096436,-0.8009724617004395,-2.3427071571350098,3.3899999999999717
-3.0572147369384766,-0.9989051818847656,-2.3304595947265625,3.3999999999999715
-3.3134047985076904,-1.3308663368225098,-1.7318909168243408,3.4099999999999713
-3.312633514404297,-1.6439766883850098,-1.1949665546417236,3.419999999999971
-3.057004451751709,-2.181051731109619,-0.6977181434631348,3.429999999999971
-2.825822591781616,-2.736384391784668,-0.781287670135498,3.4399999999999706
-2.675046443939209,-3.1757750511169434,-1.3056094646453857,3.4499999999999704
-2.559903144836426,-3.468526840209961,-1.8436965942382812,3.45999999999997
-2.3784549236297607,-3.5836129188537598,-1.9772214889526367,3.46999999999997
-2.3126399517059326,-3.529571533203125,-1.5277528762817383,3.47999999999997
-2.278975248336792,-3.4879074096679688,-0.5644991397857666,3.4899999999999696
-2.220367908477783,-3.6475391387939453,0.28759002685546875,3.4999999999999694
-1.974001169204712,-3.8512277603149414,0.7235350608825684,3.509999999999969
-1.8666232824325562,-3.9902143478393555,0.8096728324890137,3.519999999999969
-1.6548539400100708,-3.9309277534484863,0.8579840660095215,3.5299999999999687
-1.3037410974502563,-3.4792542457580566,1.1655335426330566,3.5399999999999685
-0.5632901191711426,-1.9970078468322754,1.5722825527191162,3.5499999999999683
0.34133410453796387,0.6033487319946289,1.7938084602355957,3.559999999999968
1.4388127326965332,3.6409692764282227,1.4180524349212646,3.569999999999968
3.254155158996582,6.689455986022949,1.1180012226104736,3.5799999999999677
5.333031177520752,8.1796236038208,2.3315367698669434,3.5899999999999674
6.9954071044921875,7.485655784606934,4.490209579467773,3.5999999999999672
7.679649829864502,4.694709777832031,7.050137519836426,3.609999999999967
5.620272636413574,0.14481258392333984,7.683440208435059,3.619999999999967
2.4453935623168945,-2.40397310256958,6.758004188537598,3.6299999999999666
0.5439460277557373,-2.9240946769714355,4.0205888748168945,3.6399999999999664
0.0327455997467041,-0.2764120101928711,0.7970335483551025,3.649999999999966
0.013156414031982422,1.3772706985473633,-1.5201942920684814,3.659999999999966
0.0025472640991210938,1.4588756561279297,-4.428438663482666,3.6699999999999657
-0.5605251789093018,2.520186424255371,-6.4291229248046875,3.6799999999999655
-2.235863208770752,4.713539123535156,-9.025248527526855,3.6899999999999653
-4.9215312004089355,5.7072248458862305,-8.836174011230469,3.699999999999965
-4.6830291748046875,5.5920305252075195,-8.776427268981934,3.709999999999965
-7.84204626083374,1.7837438583374023,1.2945327758789062,3.7199999999999647
-7.1910200119018555,-0.4405956268310547,4.7883381843566895,3.7299999999999645
-5.383089065551758,-1.7992348670959473,4.505709648132324,3.7399999999999642
-3.6563096046447754,-2.0654397010803223,1.9785130023956299,3.749999999999964
-2.4534599781036377,-1.5845417976379395,-0.9125872850418091,3.759999999999964
-1.2073544263839722,-1.1332135200500488,-3.4177346229553223,3.7699999999999636
-0.3120121955871582,-0.932769775390625,-4.655028343200684,3.7799999999999634
0.39962077140808105,-0.49164581298828125,-6.043499946594238,3.789999999999963
0.9253783226013184,0.7786197662353516,-8.516313552856445,3.799999999999963
1.8853495121002197,1.5599374771118164,-7.685843467712402,3.8099999999999627
2.5829474925994873,1.0975961685180664,-4.5335893630981445,3.8199999999999625
2.6862874031066895,0.32547855377197266,-2.245810031890869,3.8299999999999623
2.2212815284729004,-0.2288064956665039,-0.9429062604904175,3.839999999999962
1.466750144958496,-0.9710359573364258,0.9916045665740967,3.849999999999962
0.14655470848083496,-1.3737139701843262,2.73221492767334,3.8599999999999617
-1.017535924911499,-1.071929931640625,3.356196641921997,3.8699999999999615
-0.9662108421325684,-1.0960350036621094,3.4027647972106934,3.8799999999999613
-1.658170223236084,0.37926483154296875,0.32092416286468506,3.889999999999961
-1.3998527526855469,0.5240278244018555,-1.0458052158355713,3.899999999999961
-0.768312931060791,0.24279403686523438,-2.3217201232910156,3.9099999999999606
-0.09077692031860352,-0.20143699645996094,-3.1191282272338867,3.9199999999999604
0.43170762062072754,-0.7595233917236328,-3.529367446899414,3.92999999999996
0.9426672458648682,-1.0978355407714844,-2.9904658794403076,3.93999999999996
1.414855718612671,-1.228363037109375,-1.7280582189559937,3.9499999999999598
1.4620170593261719,-1.369232177734375,-0.4206007719039917,3.9599999999999596
1.1614255905151367,-1.4958934783935547,1.0435817241668701,3.9699999999999593
0.7033908367156982,-1.6009149551391602,2.086786985397339,3.979999999999959
0.23721766471862793,-1.6278181076049805,2.507157564163208,3.989999999999959
-0.16587495803833008,-1.2519502639770508,2.211385726928711,3.9999999999999587
-0.35207319259643555,-0.6979846954345703,1.3360098600387573,4.009999999999959
-0.24933099746704102,-0.3565349578857422,0.6816619634628296,4.019999999999959
-0.04504990577697754,-0.1571483612060547,0.3094351589679718,4.0299999999999585
0.24338269233703613,-0.08173942565917969,0.2820841073989868,4.039999999999958
0.5555992126464844,-0.20418643951416016,0.5541388988494873,4.049999999999958
0.9223349094390869,-0.4202089309692383,1.2369582653045654,4.059999999999958
1.4083871841430664,-0.6358060836791992,1.776207447052002,4.069999999999958
1.516160011291504,-0.5853261947631836,1.8461930751800537,4.079999999999957
1.6038036346435547,-0.39835357666015625,1.3488290309906006,4.089999999999957
1.7770824432373047,-0.36133575439453125,0.502835750579834,4.099999999999957
2.160750389099121,-0.530787467956543,0.32480430603027344,4.109999999999957
2.554640531539917,-0.7724666595458984,0.4288542866706848,4.119999999999957
2.987762451171875,-0.6944684982299805,0.5649527907371521,4.129999999999956
3.2038958072662354,-0.2716960906982422,0.6098178029060364,4.139999999999956
3.2228739261627197,0.37506580352783203,0.5984191298484802,4.149999999999956
3.1216678619384766,1.0280132293701172,0.5033800601959229,4.159999999999956
2.8529090881347656,1.7377071380615234,0.299863338470459,4.1699999999999555
2.8002326488494873,2.628706932067871,-0.1977682113647461,4.179999999999955
3.061049699783325,3.7065181732177734,-0.624711275100708,4.189999999999955
3.3021039962768555,4.086926460266113,-0.838702917098999,4.199999999999955
3.5030441284179688,3.800619125366211,-0.8793091177940369,4.209999999999955
3.556241512298584,2.737598419189453,-0.4633737802505493,4.2199999999999545
2.929058313369751,0.9906435012817383,0.41641587018966675,4.229999999999954
1.4528701305389404,-0.3201923370361328,1.239436149597168,4.239999999999954
0.21877717971801758,-1.1742401123046875,1.0694917440414429,4.249999999999954
-0.3597896099090576,-1.3266334533691406,0.5322454571723938,4.259999999999954
-0.6019059419631958,-1.0063285827636719,0.24270695447921753,4.269999999999953
-0.6777184009552002,-0.059411048889160156,0.19510555267333984,4.279999999999953
-0.7818652391433716,0.5725946426391602,0.20799660682678223,4.289999999999953
-0.8923337459564209,0.9020090103149414,0.1974889636039734,4.299999999999953
-0.9414173364639282,1.2034854888916016,0.049430787563323975,4.3099999999999525
-1.0017932653427124,1.5796642303466797,-0.1924598217010498,4.319999999999952
-1.117801308631897,2.2504453659057617,-0.8950841426849365,4.329999999999952
-1.1858984231948853,2.91805362701416,-1.7366265058517456,4.339999999999952
-1.3338062763214111,3.1491498947143555,-2.381619691848755,4.349999999999952
-1.5296558141708374,3.1870956420898438,-2.455866813659668,4.3599999999999515
-1.6475554704666138,2.648259162902832,-1.354048728942871,4.369999999999951
-1.465761423110962,1.997696876525879,-0.1464139223098755,4.379999999999951
-1.0420899391174316,1.4532890319824219,1.2966101169586182,4.389999999999951
-0.6254665851593018,0.9284467697143555,2.191671371459961,4.399999999999951
-0.47461652755737305,0.48838329315185547,1.887068748474121,4.40999999999995
-0.48616957664489746,0.5586538314819336,1.6858160495758057,4.41999999999995
-0.8661301136016846,-0.6904201507568359,-1.0630369186401367,4.42999999999995
-1.102186918258667,-1.135305404663086,-2.323216676712036,4.43999999999995
-1.4278978109359741,-1.6071467399597168,-3.0220913887023926,4.4499999999999496
-1.8181240558624268,-1.8168368339538574,-3.147360324859619,4.459999999999949
-2.134856700897217,-1.9731502532958984,-2.75541353225708,4.469999999999949
-2.5574610233306885,-2.0323047637939453,-1.8638684749603271,4.479999999999949
-2.616361618041992,-1.9718265533447266,-1.6731772422790527,4.489999999999949
-2.4317588806152344,-1.902723789215088,-1.223451852798462,4.4999999999999485
-2.3525009155273438,-1.9799537658691406,-0.5272824764251709,4.509999999999948
-2.431180000305176,-2.1726484298706055,-0.2653977870941162,4.519999999999948
-2.61000394821167,-2.4969029426574707,-0.6318845748901367,4.529999999999948
-2.7893779277801514,-2.792562961578369,-1.2259695529937744,4.539999999999948
-2.9174959659576416,-3.127586841583252,-1.7062397003173828,4.549999999999947
-2.8746461868286133,-3.3161373138427734,-1.635396957397461,4.559999999999947
-2.645993947982788,-3.545474052429199,-1.0014605522155762,4.569999999999947
-2.2559492588043213,-3.7592859268188477,-0.16730117797851562,4.579999999999947
-1.8098714351654053,-3.857595443725586,0.387969970703125,4.589999999999947
-1.397160291671753,-3.84954833984375,0.8403849601745605,4.599999999999946
-0.8460574150085449,-3.7215704917907715,1.5291123390197754,4.609999999999946
-0.4539923667907715,-3.3264336585998535,2.1598527431488037,4.619999999999946
0.22426748275756836,-1.934267520904541,2.6040658950805664,4.629999999999946
0.9685959815979004,0.6611690521240234,2.6847424507141113,4.6399999999999455
1.8133020401000977,3.6483993530273438,2.535581111907959,4.649999999999945
3.080249071121216,6.299901008605957,2.9274027347564697,4.659999999999945
4.879086017608643,7.345458984375,3.912327527999878,4.669999999999945
6.270299911499023,7.101635932922363,5.154809474945068,4.679999999999945
7.2148542404174805,5.383995056152344,6.528344631195068,4.689999999999944
6.233831882476807,1.2102117538452148,6.558469772338867,4.699999999999944
3.7070109844207764,-1.3075790405273438,5.558570861816406,4.709999999999944
2.078209400177002,-0.5686216354370117,3.3813986778259277,4.719999999999944
1.0414111614227295,1.5124893188476562,0.39339256286621094,4.729999999999944
0.42928314208984375,0.994171142578125,-2.137645959854126,4.739999999999943
-0.27823305130004883,1.0116758346557617,-4.35358190536499,4.749999999999943
-1.6345345973968506,1.8262882232666016,-6.459720611572266,4.759999999999943
-4.437318801879883,2.85113525390625,-8.33997917175293,4.769999999999943
-7.209768295288086,2.2793521881103516,-5.389922142028809,4.7799999999999425
-9.234404563903809,1.104691505432129,0.694617509841919,4.789999999999942
-8.989540100097656,0.4117469787597656,3.2480461597442627,4.799999999999942
-7.361093521118164,-0.3746623992919922,4.262821197509766,4.809999999999942
-5.057380676269531,-0.5940189361572266,2.7616305351257324,4.819999999999942
-3.6663780212402344,-0.4246997833251953,-0.06187748908996582,4.8299999999999415
-2.4734957218170166,-0.20060348510742188,-2.63073992729187,4.839999999999941
-0.9194862842559814,-0.19943714141845703,-4.3270673751831055,4.849999999999941
0.3118586540222168,-0.42226314544677734,-5.352969646453857,4.859999999999941
1.358583688735962,-0.21021270751953125,-7.6028947830200195,4.869999999999941
2.2512264251708984,0.8228559494018555,-9.752298355102539,4.87999999999994
3.4976940155029297,0.9583721160888672,-8.061563491821289,4.88999999999994
4.08939790725708,0.45319080352783203,-5.045644760131836,4.89999999999994
3.7039034366607666,-0.040551185607910156,-2.67678165435791,4.90999999999994
2.7347636222839355,-0.6103296279907227,-1.2725192308425903,4.9199999999999395
1.2401070594787598,-1.3938241004943848,1.0842751264572144,4.929999999999939
-0.366138219833374,-1.6946687698364258,3.391721487045288,4.939999999999939
-1.498320460319519,-1.3606696128845215,4.752555847167969,4.949999999999939
-2.0734615325927734,-0.8450994491577148,3.6912505626678467,4.959999999999939
-1.8960793018341064,-0.13788890838623047,0.905439019203186,4.9699999999999385
-1.4926565885543823,0.21246910095214844,-1.2333858013153076,4.979999999999938
-1.0782322883605957,0.3769197463989258,-3.0238170623779297,4.989999999999938
-0.8002669811248779,0.17627239227294922,-4.01563835144043,4.999999999999938
-0.525454044342041,-0.16310882568359375,-4.423378944396973,5.009999999999938
-0.379288911819458,-0.505009651184082,-3.936387300491333,5.019999999999937
-0.055745601654052734,-0.9852151870727539,-2.2660598754882812,5.029999999999937
0.17984366416931152,-1.2528305053710938,-0.5545057654380798,5.039999999999937
0.5018637180328369,-1.523688793182373,0.9744356274604797,5.049999999999937
0.620692253112793,-1.68278169631958,1.9149153232574463,5.0599999999999365
0.5230207443237305,-1.6707167625427246,2.1235523223876953,5.069999999999936
0.2656369209289551,-1.58599853515625,1.886232852935791,5.079999999999936
0.05649757385253906,-1.45491361618042,1.2465946674346924,5.089999999999936
0.05632591247558594,-1.5280122756958008,0.6609848141670227,5.099999999999936
0.20937323570251465,-1.3143854141235352,0.18370017409324646,5.1099999999999355
0.4798142910003662,-0.9716567993164062,0.19689422845840454,5.119999999999935
0.5377418994903564,-0.5074100494384766,0.6356822848320007,5.129999999999935
0.6117231845855713,-0.14350032806396484,1.0002789497375488,5.139999999999935
0.6761054992675781,0.05163097381591797,1.366771936416626,5.149999999999935
0.9437637329101562,0.12075328826904297,1.6099717617034912,5.159999999999934
1.3275434970855713,0.2187366485595703,1.6993178129196167,5.169999999999934
1.8523046970367432,0.52398681640625,1.217087745666504,5.179999999999934
2.4157419204711914,0.7790727615356445,0.6213759183883667,5.189999999999934
2.9375150203704834,0.622929573059082,0.14175915718078613,5.199999999999934
2.9784464836120605,0.6204891204833984,0.19538605213165283,5.209999999999933
3.9594738483428955,-0.14385128021240234,0.3000723123550415,5.219999999999933
4.376527786254883,-0.4673194885253906,0.7545225024223328,5.229999999999933
4.428997993469238,-0.46608734130859375,1.251982569694519,5.239999999999933
4.29744815826416,-0.09319877624511719,1.3574657440185547,5.2499999999999325
4.171243667602539,0.999079704284668,1.0916441679000854,5.259999999999932
3.8939015865325928,3.011331558227539,0.3517117500305176,5.269999999999932
3.70613694190979,4.29456901550293,-0.40254151821136475,5.279999999999932
3.7776761054992676,4.858613967895508,-1.0657159090042114,5.289999999999932
4.050783634185791,4.404019355773926,-1.4960782527923584,5.299999999999931
3.9411723613739014,2.923090934753418,-1.4134743213653564,5.309999999999931
2.6403441429138184,1.422938346862793,-0.6387598514556885,5.319999999999931
0.7853710651397705,-0.2528209686279297,0.2706111669540405,5.329999999999931
-0.25178074836730957,-1.3791284561157227,0.42596179246902466,5.339999999999931
-0.7480641603469849,-1.8747124671936035,0.39135363698005676,5.34999999999993
-0.8898559808731079,-1.7526702880859375,0.1019420176744461,5.35999999999993
-1.053859829902649,-0.8812074661254883,0.04712378978729248,5.36999999999993
-1.3379932641983032,0.20439624786376953,-0.02948063611984253,5.37999999999993
-1.5710538625717163,0.8554649353027344,0.04678410291671753,5.3899999999999295
-1.582613468170166,1.2313756942749023,0.18724888563156128,5.399999999999929
-1.3834408521652222,1.7355947494506836,0.22566819190979004,5.409999999999929
-1.1407268047332764,2.4315080642700195,-0.26488828659057617,5.419999999999929
-1.1968085765838623,2.473750114440918,-0.43043017387390137,5.429999999999929
-1.2100670337677002,3.804694175720215,-1.5579015016555786,5.4399999999999284
-1.5160648822784424,3.934122085571289,-2.2439284324645996,5.449999999999928
-1.7486249208450317,3.363764762878418,-1.9846361875534058,5.459999999999928
-1.803361415863037,2.4266319274902344,-0.9576499462127686,5.469999999999928
-1.456606149673462,1.4525260925292969,0.26399874687194824,5.479999999999928
-1.0920820236206055,0.8209085464477539,1.0484473705291748,5.489999999999927
-1.0925476551055908,0.890254020690918,0.8157048225402832,5.499999999999927
-0.8145864009857178,-0.41129398345947266,0.4231882095336914,5.509999999999927
-1.015209674835205,-0.8917179107666016,-0.4867880344390869,5.519999999999927
-1.287068486213684,-1.3842716217041016,-1.4397356510162354,5.5299999999999265
-1.6185468435287476,-1.6949472427368164,-1.9919441938400269,5.539999999999926
-2.033750534057617,-1.8376154899597168,-1.7672109603881836,5.549999999999926
-2.225518226623535,-1.8746709823608398,-2.2400565147399902,5.559999999999926
-2.3004870414733887,-1.916487216949463,-2.350526809692383,5.569999999999926
-2.32496976852417,-1.853865146636963,-2.465360164642334,5.5799999999999255
-2.0020551681518555,-2.131959915161133,-1.4492275714874268,5.589999999999925
-1.8840227127075195,-2.336738109588623,-0.7679548263549805,5.599999999999925
-1.904655933380127,-2.5715994834899902,-0.31372904777526855,5.609999999999925
-2.02594256401062,-2.806075096130371,-0.32728004455566406,5.619999999999925
-2.232712745666504,-3.1066198348999023,-0.7796657085418701,5.629999999999924
-2.4987916946411133,-3.2655506134033203,-1.110588788986206,5.639999999999924
-2.829936981201172,-3.473839282989502,-1.1240403652191162,5.649999999999924
-2.9982409477233887,-3.663055896759033,-0.7103517055511475,5.659999999999924
-2.88093900680542,-3.8827433586120605,-0.17737960815429688,5.6699999999999235
-2.608804702758789,-4.078247547149658,0.24364566802978516,5.679999999999923
-2.093308210372925,-4.180859565734863,0.6998105049133301,5.689999999999923
-1.6224561929702759,-4.039126873016357,1.125929355621338,5.699999999999923
-1.0628390312194824,-3.383711338043213,1.724292278289795,5.709999999999923
-0.47887587547302246,-2.0205650329589844,2.188041925430298,5.7199999999999225
0.42632389068603516,0.22891902923583984,2.305083990097046,5.729999999999922
0.4720878601074219,0.14255523681640625,2.4772140979766846,5.739999999999922
2.6719493865966797,6.861586570739746,2.062378168106079,5.749999999999922
3.972522497177124,8.541990280151367,2.248124122619629,5.759999999999922
5.828009605407715,8.578903198242188,3.335885524749756,5.769999999999921
7.348751068115234,6.803044319152832,5.579354763031006,5.779999999999921
6.891341209411621,2.250629425048828,6.895326614379883,5.789999999999921
3.7752461433410645,-1.4622392654418945,6.801098823547363,5.799999999999921
1.5156407356262207,-2.024184226989746,4.412125587463379,5.809999999999921
0.820575475692749,-0.2599353790283203,1.4250624179840088,5.81999999999992
0.10975408554077148,0.6179914474487305,-2.059445381164551,5.82999999999992
-0.3023989200592041,0.48842811584472656,-4.4026055335998535,5.83999999999992
-1.4310038089752197,1.2702445983886719,-6.009714126586914,5.84999999999992
-3.666334629058838,2.852182388305664,-9.395880699157715,5.8599999999999195
-7.06448221206665,4.015721321105957,-7.8221259117126465,5.869999999999919
-8.338260650634766,3.397653579711914,-2.848910093307495,5.879999999999919
-8.250334739685059,2.209066390991211,1.7946698665618896,5.889999999999919
-6.310341835021973,0.4678812026977539,3.994081974029541,5.899999999999919
-3.9701433181762695,-0.6937980651855469,3.6392099857330322,5.909999999999918
-2.711275577545166,-0.9241924285888672,1.270106554031372,5.919999999999918
-2.7361624240875244,-0.9407844543457031,1.3394443988800049,5.929999999999918
-0.687100887298584,-0.5225706100463867,-3.1567156314849854,5.939999999999918
0.04843711853027344,-0.20610332489013672,-4.572247505187988,5.949999999999918
0.4285256862640381,0.3490743637084961,-6.407804489135742,5.959999999999917
0.7328300476074219,1.528055191040039,-8.737720489501953,5.969999999999917
1.3942761421203613,2.09604549407959,-8.22784423828125,5.979999999999917
1.955090045928955,1.4216880798339844,-4.8693742752075195,5.989999999999917
1.8433723449707031,0.8535003662109375,-3.244022846221924,5.9999999999999165
1.0660972595214844,0.18892574310302734,-1.795670986175537,6.009999999999916
0.20096111297607422,-0.723536491394043,0.44551682472229004,6.019999999999916
-0.598900556564331,-1.088789939880371,2.5170488357543945,6.029999999999916
-1.136298418045044,-0.9882497787475586,3.5892233848571777,6.039999999999916
-1.2975807189941406,-0.5212430953979492,2.6070194244384766,6.0499999999999154
-1.0981788635253906,-0.38002872467041016,0.9014674425125122,6.059999999999915
-0.9803946018218994,-0.25394439697265625,-0.868706464767456,6.069999999999915
-0.6626832485198975,-0.4273357391357422,-2.179312229156494,6.079999999999915
-0.5735690593719482,-0.9809703826904297,-3.2364401817321777,6.089999999999915
-0.16068339347839355,-1.5088248252868652,-3.895312786102295,6.099999999999914
0.41017866134643555,-1.8669486045837402,-3.5291895866394043,6.109999999999914
0.863297700881958,-1.953859806060791,-2.60192608833313,6.119999999999914
1.1993193626403809,-2.13283109664917,-1.1090532541275024,6.129999999999914
1.3394670486450195,-2.213554859161377,0.41712599992752075,6.1399999999999135
1.3142237663269043,-2.426311492919922,1.7566533088684082,6.149999999999913
1.0147738456726074,-2.22749662399292,2.416808605194092,6.159999999999913
0.5069525241851807,-1.9070425033569336,2.1329636573791504,6.169999999999913
0.35275745391845703,-1.5959300994873047,1.7005510330200195,6.179999999999913
0.22385478019714355,-1.1794061660766602,1.0994288921356201,6.1899999999999125
0.21603918075561523,-0.887873649597168,0.5949929356575012,6.199999999999912
0.4265012741088867,-0.7187709808349609,0.47258836030960083,6.209999999999912
0.774200439453125,-0.6883687973022461,0.5156911015510559,6.219999999999912
1.1629598140716553,-0.7222681045532227,0.6526703238487244,6.229999999999912
1.4876632690429688,-0.6026754379272461,0.854640007019043,6.239999999999911
1.9544730186462402,-0.37975406646728516,0.8459072113037109,6.249999999999911
2.321316957473755,-0.053318023681640625,0.76163649559021,6.259999999999911
2.7227184772491455,0.23795032501220703,0.5175721645355225,6.269999999999911
3.050020694732666,0.3865499496459961,0.15741217136383057,6.2799999999999105
3.335023880004883,0.6436595916748047,-0.07062232494354248,6.28999999999991
3.3512449264526367,0.8291501998901367,-0.1850069761276245,6.29999999999991
3.3934428691864014,1.0382423400878906,-0.09748709201812744,6.30999999999991
3.2813456058502197,1.2395963668823242,0.23749399185180664,6.31999999999991
2.900663137435913,1.4781646728515625,0.6259656548500061,6.3299999999999095
2.3795688152313232,1.8704614639282227,1.1834962368011475,6.339999999999909
2.1183578968048096,2.6487607955932617,1.4238287210464478,6.349999999999909
2.1715989112854004,3.416293144226074,0.8170114755630493,6.359999999999909
2.368201732635498,3.9951744079589844,-0.13602852821350098,6.369999999999909
2.5155606269836426,3.4520483016967773,-0.9311370253562927,6.379999999999908
2.844395637512207,1.8708457946777344,-1.1943168640136719,6.389999999999908
2.793795585632324,0.5323591232299805,-0.9406309127807617,6.399999999999908
1.8780090808868408,-0.3908967971801758,-0.4282255172729492,6.409999999999908
0.8667304515838623,-1.0743417739868164,-0.15018610656261444,6.419999999999908
-0.04989433288574219,-1.642348289489746,0.04618270695209503,6.429999999999907
-0.5245583057403564,-1.739856243133545,0.2163521945476532,6.439999999999907
-0.6197302341461182,-1.2697505950927734,0.33835071325302124,6.449999999999907
-0.42008090019226074,-0.5226612091064453,0.23841428756713867,6.459999999999907
-0.1508350372314453,0.3816184997558594,0.0972750186920166,6.4699999999999065
0.056342124938964844,0.8514890670776367,-0.02176976203918457,6.479999999999906
0.13047504425048828,1.6348705291748047,-0.17155325412750244,6.489999999999906
0.19134950637817383,2.662679672241211,-0.5564042329788208,6.499999999999906
0.19473028182983398,3.7388668060302734,-1.2937732934951782,6.509999999999906
0.0705862045288086,4.473135948181152,-2.3549797534942627,6.519999999999905
-0.5449044704437256,4.727841377258301,-3.460613250732422,6.529999999999905
-1.1688811779022217,4.040255546569824,-3.447479724884033,6.539999999999905
-1.8409652709960938,2.738208770751953,-2.377117872238159,6.549999999999905
-2.0110158920288086,1.1892213821411133,-0.8275883197784424,6.559999999999905
-1.9873034954071045,1.2482404708862305,-1.0710008144378662,6.569999999999904
-1.6633464097976685,-0.7460956573486328,1.918639898300171,6.579999999999904
-1.6354931592941284,-1.0435762405395508,1.9147508144378662,6.589999999999904
-1.613816738128662,-1.0746841430664062,1.0299930572509766,6.599999999999904
-1.670037031173706,-1.0796799659729004,-0.24181652069091797,6.6099999999999035
-1.701622486114502,-1.112440586090088,-1.407118558883667,6.619999999999903
-1.8748812675476074,-1.0545868873596191,-2.1070456504821777,6.629999999999903
-2.0618181228637695,-0.9854960441589355,-2.266761302947998,6.639999999999903
-2.161515235900879,-1.0438122749328613,-2.5437161922454834,6.649999999999903
-2.0481104850769043,-1.2820243835449219,-2.2926087379455566,6.659999999999902
-1.7546424865722656,-1.708688735961914,-1.4599528312683105,6.669999999999902
-1.2666254043579102,-2.247828960418701,-0.40586161613464355,6.679999999999902
-0.9565949440002441,-2.7073750495910645,0.2776460647583008,6.689999999999902
-0.8937561511993408,-3.0680603981018066,0.2624540328979492,6.699999999999902
-1.1926383972167969,-3.204801082611084,-0.4167616367340088,6.709999999999901
-1.6988850831985474,-3.023693084716797,-0.9391078948974609,6.719999999999901
-2.1864728927612305,-2.6364221572875977,-1.189084529876709,6.729999999999901
-2.5862669944763184,-2.3133492469787598,-1.29740571975708,6.739999999999901
-2.954479694366455,-2.114069938659668,-1.3703601360321045,6.7499999999999005
-3.1120667457580566,-1.9852876663208008,-1.2044765949249268,6.7599999999999
-2.808270215988159,-2.0531997680664062,-0.4624488353729248,6.7699999999999
-2.070998430252075,-2.2824249267578125,0.4757564067840576,6.7799999999999
-1.2161533832550049,-2.3931074142456055,1.5441327095031738,6.7899999999999
-0.42908382415771484,-2.2784366607666016,2.188706398010254,6.7999999999998995
0.10872817039489746,-1.7615165710449219,2.051609516143799,6.809999999999899
0.5067014694213867,-0.933342456817627,2.075209856033325,6.819999999999899
1.0663378238677979,0.05397987365722656,2.4880595207214355,6.829999999999899
1.6718592643737793,1.1810674667358398,3.078134298324585,6.839999999999899
2.814368486404419,3.0007247924804688,3.822561025619507,6.849999999999898
4.148540496826172,4.290160179138184,3.8310725688934326,6.859999999999898
5.189046859741211,3.6025609970092773,2.175381660461426,6.869999999999898
5.704977989196777,1.9876394271850586,0.8049483299255371,6.879999999999898
4.816678047180176,-0.6500625610351562,1.789027214050293,6.8899999999998975
2.930257797241211,-2.3235926628112793,3.5408554077148438,6.899999999999897
1.1286020278930664,-1.6361379623413086,4.239937782287598,6.909999999999897
0.5426352024078369,0.9022636413574219,2.384037971496582,6.919999999999897
0.46471476554870605,0.9262599945068359,2.419177532196045,6.929999999999897
1.2226505279541016,2.652926445007324,-3.28261137008667,6.9399999999998965
0.5665717124938965,4.812106132507324,-5.659989356994629,6.949999999999896
-0.845308780670166,8.242884635925293,-10.963174819946289,6.959999999999896
-4.992514610290527,9.41892147064209,-9.544462203979492,6.969999999999896
-8.465007781982422,6.325099945068359,-2.3094823360443115,6.979999999999896
-9.410028457641602,2.9128379821777344,4.251734733581543,6.989999999999895
-7.747568130493164,-0.5516290664672852,7.175568103790283,6.999999999999895
-5.506618499755859,-2.638491153717041,3.847942352294922,7.009999999999895
-4.116024017333984,-3.1779775619506836,0.25186634063720703,7.019999999999895
-2.383866786956787,-2.955519199371338,-3.4813709259033203,7.0299999999998946
-2.531719923019409,-2.9846463203430176,-3.2446651458740234,7.039999999999894
-0.09087085723876953,-1.599520206451416,-6.443024635314941,7.049999999999894
0.3978919982910156,-0.41158294677734375,-7.020791053771973,7.059999999999894
0.690636396408081,1.5343008041381836,-10.255072593688965,7.069999999999894
1.2124900817871094,2.4981689453125,-9.537677764892578,7.0799999999998935
1.785599708557129,1.8579483032226562,-5.589526176452637,7.089999999999893
1.6370515823364258,0.964442253112793,-2.4728808403015137,7.099999999999893
0.8265578746795654,0.2045431137084961,0.13962054252624512,7.109999999999893
-0.4689500331878662,-0.010034561157226562,2.833500385284424,7.119999999999893
-1.9011650085449219,0.2776193618774414,4.655259609222412,7.129999999999892
-2.4003262519836426,0.4119729995727539,4.364782333374023,7.139999999999892
-2.385280132293701,0.34659290313720703,2.446143627166748,7.149999999999892
-1.9860199689865112,-0.07636737823486328,0.3344985246658325,7.159999999999892
-1.2297143936157227,-0.6002731323242188,-1.133914589881897,7.169999999999892
-0.5736815929412842,-0.969447135925293,-2.5695290565490723,7.179999999999891
0.24275708198547363,-1.0212583541870117,-3.434368371963501,7.189999999999891
0.5710964202880859,-0.8282194137573242,-3.388960123062134,7.199999999999891
0.9846866130828857,-0.7413225173950195,-2.926974058151245,7.209999999999891
1.3241393566131592,-0.8430042266845703,-2.1193268299102783,7.2199999999998905
1.3293085098266602,-0.8468494415283203,-2.078824758529663,7.22999999999989
1.688697338104248,-1.996129035949707,-0.15184885263442993,7.23999999999989
1.8516333103179932,-2.396583080291748,0.843065619468689,7.24999999999989
1.8010187149047852,-2.253380298614502,1.3542547225952148,7.25999999999989
1.4739134311676025,-1.7052502632141113,1.5319819450378418,7.269999999999889
0.7173430919647217,-1.1259336471557617,1.2386256456375122,7.279999999999889
-0.10441780090332031,-0.5369796752929688,0.548146665096283,7.289999999999889
-0.6529664993286133,-0.25997257232666016,-0.04866495728492737,7.299999999999889
-0.9359354972839355,-0.3071584701538086,-0.3244819939136505,7.309999999999889
-1.0248892307281494,-0.5508794784545898,-0.2414684146642685,7.319999999999888
-0.8848402500152588,-0.7252912521362305,-0.07182502746582031,7.329999999999888
-0.4795711040496826,-0.8034439086914062,0.11517427116632462,7.339999999999888
0.11187291145324707,-0.7526159286499023,0.2304413914680481,7.349999999999888
0.7216286659240723,-0.6956567764282227,0.2819938063621521,7.3599999999998875
1.375791072845459,-0.5191631317138672,0.1674814522266388,7.369999999999887
1.5388176441192627,-0.4078102111816406,0.04682143032550812,7.379999999999887
1.4660546779632568,-0.27185821533203125,-0.2156461775302887,7.389999999999887
1.1430511474609375,-0.12239265441894531,-0.5682511329650879,7.399999999999887
0.9447939395904541,-0.061232566833496094,-0.8061054944992065,7.4099999999998865
1.041456699371338,-0.037517547607421875,-0.8792165517807007,7.419999999999886
1.5472486019134521,-0.2962636947631836,-0.6603994369506836,7.429999999999886
1.9379990100860596,-0.4890909194946289,-0.35475802421569824,7.439999999999886
2.0652999877929688,-0.6065149307250977,0.1242680549621582,7.449999999999886
1.4867897033691406,-0.29024505615234375,0.5599571466445923,7.459999999999885
0.7626540660858154,0.38957977294921875,0.9904108047485352,7.469999999999885
0.5241475105285645,0.9184494018554688,1.3001787662506104,7.479999999999885
0.6827785968780518,1.610687255859375,1.2137782573699951,7.489999999999885
0.9341399669647217,2.2772397994995117,0.7928522825241089,7.4999999999998845
1.3445298671722412,2.968642234802246,0.13985256850719452,7.509999999999884
1.5757241249084473,3.422414779663086,-0.40419501066207886,7.519999999999884
1.5598945617675781,3.5413379669189453,-0.7769702672958374,7.529999999999884
1.6165423393249512,3.075267791748047,-0.9614624977111816,7.539999999999884
1.7739627361297607,2.0349531173706055,-1.036805272102356,7.5499999999998835
1.6574347019195557,1.2535533905029297,-0.9213050007820129,7.559999999999883
1.3863625526428223,0.12774944305419922,-0.5106422901153564,7.569999999999883
1.0171430110931396,-0.6497268676757812,-0.18414273858070374,7.579999999999883
0.6142158508300781,-0.9283227920532227,-0.08669435977935791,7.589999999999883
0.2016284465789795,-0.5528831481933594,-0.12622880935668945,7.599999999999882
0.03640317916870117,-0.19193172454833984,-0.15769237279891968,7.609999999999882
-0.1675729751586914,0.028145790100097656,-0.2163049578666687,7.619999999999882
-0.4028956890106201,0.4058856964111328,-0.28501802682876587,7.629999999999882
-0.7702441215515137,1.0508527755737305,-0.6080692410469055,7.6399999999998816
-1.0485527515411377,1.5443353652954102,-1.1232799291610718,7.649999999999881
-1.3636271953582764,1.930150032043457,-1.7343547344207764,7.659999999999881
-1.618194580078125,2.1592512130737305,-2.2202816009521484,7.669999999999881
-1.891381025314331,2.1710205078125,-2.422307014465332,7.679999999999881
-2.209306240081787,1.9333791732788086,-2.373276710510254,7.6899999999998805
-2.5313150882720947,1.3728981018066406,-2.1087076663970947,7.69999999999988
-2.5554306507110596,0.803858757019043,-1.7096866369247437,7.70999999999988
-2.4465441703796387,0.4085111618041992,-1.0416052341461182,7.71999999999988
-2.339728832244873,0.3199901580810547,-0.45100975036621094,7.72999999999988
-2.3605730533599854,0.39260387420654297,-0.19891881942749023,7.739999999999879
-2.3397350311279297,0.4665555953979492,-0.10678339004516602,7.749999999999879
-2.375110387802124,0.49771881103515625,-0.18387460708618164,7.759999999999879
-2.3970446586608887,0.5292377471923828,-0.33411478996276855,7.769999999999879
-2.4193527698516846,0.5378141403198242,-0.4521462917327881,7.779999999999879
-2.568060874938965,0.5054445266723633,-0.49146437644958496,7.789999999999878
-2.6609129905700684,0.3257131576538086,-0.44143247604370117,7.799999999999878
-2.689380645751953,-0.0017042160034179688,-0.27488088607788086,7.809999999999878
-2.4590752124786377,-0.3249235153198242,-0.23065662384033203,7.819999999999878
-2.040540933609009,-0.5044336318969727,-0.44142866134643555,7.8299999999998775
-1.753034234046936,-0.5308876037597656,-0.788348913192749,7.839999999999877
-1.760046124458313,-0.5510215759277344,-1.0701415538787842,7.849999999999877
-1.8003259897232056,-0.6386041641235352,-1.0680238008499146,7.859999999999877
-1.7040772438049316,-0.8382854461669922,-0.846316933631897,7.869999999999877
-1.5512670278549194,-0.9984092712402344,-0.5402510166168213,7.879999999999876
-1.4264863729476929,-1.1067352294921875,-0.2360069751739502,7.889999999999876
-1.3872753381729126,-1.1287240982055664,-0.2045912742614746,7.899999999999876
-1.4538719654083252,-1.132063865661621,-0.1768357753753662,7.909999999999876
-1.385061502456665,-0.9764060974121094,-0.40006446838378906,7.919999999999876
-1.0842851400375366,-0.5427436828613281,-0.7256423234939575,7.929999999999875
-0.7598558664321899,-0.010260581970214844,-0.9952489137649536,7.939999999999875
-0.3074004650115967,0.6105375289916992,-1.1492441892623901,7.949999999999875
0.18096685409545898,1.2307548522949219,-1.2050390243530273,7.959999999999875
0.6820402145385742,1.966874122619629,-1.4039661884307861,7.9699999999998745
1.0062334537506104,2.3330392837524414,-1.5610874891281128,7.979999999999874
0.989795446395874,2.25228214263916,-1.8216068744659424,7.989999999999874
