AccX,AccY,AccZ,stepCount
0.4477088749408722,2.2704153060913086,-0.5799481868743896,5.722517490386963
0.7364902496337891,4.041729927062988,-0.39031100273132324,-2.5481345653533936
0.9993114471435547,5.835232734680176,0.16991281509399414,2.5637223720550537
1.2452139854431152,7.509446144104004,0.9832763671875,-2.526484489440918
1.4241414070129395,8.989628791809082,1.9982149600982666,2.6853456497192383
1.6955139636993408,9.947380065917969,3.1667869091033936,-2.2921853065490723
2.104259967803955,10.212414741516113,4.405778884887695,3.6589455604553223
2.5559988021850586,9.428576469421387,5.44957160949707,-0.3120197057723999
2.9449899196624756,7.546595573425293,6.199292182922363,0
2.9349591732025146,5.14398193359375,6.454925537109375,0
2.6125710010528564,3.0581159591674805,6.324854850769043,0
2.0751614570617676,1.4964618682861328,5.831227779388428,0
1.4087512493133545,0.4484710693359375,5.152155876159668,0
0.8752052783966064,-0.22581195831298828,4.442582130432129,0
0.5067359209060669,-0.6137895584106445,3.7622904777526855,0
0.25465112924575806,-0.8648843765258789,3.051450252532959,0
0.08053955435752869,-1.1279373168945312,2.318629741668701,0
0.004191398620605469,-1.230712890625,1.625960350036621,0
0.026933372020721436,-1.1082487106323242,0.9358506202697754,0
0.12393656373023987,-0.721832275390625,0.24373483657836914,0
0.09305030107498169,-0.12617778778076172,-0.366161584854126,0
-0.08185768127441406,0.5114030838012695,-0.7944772243499756,0
-0.41045844554901123,1.217055320739746,-1.0314552783966064,0
-0.8669518232345581,1.887589454650879,-1.1120506525039673,0
-1.418328881263733,2.515615463256836,-1.1763250827789307,0
-1.9761087894439697,2.8571958541870117,-1.3310621976852417,0
-2.257302761077881,2.8388071060180664,-1.7246737480163574,0
-2.7168996334075928,3.2192840576171875,-2.0880236625671387,0
-3.066192626953125,3.355931282043457,-2.5942258834838867,0
-3.1919679641723633,3.4370546340942383,-2.968914747238159,0
-3.4534244537353516,3.89731502532959,-3.0548338890075684,0
-3.711649179458618,4.491822242736816,-2.8581583499908447,0
-4.055417060852051,4.936429977416992,-2.188589096069336,0
-4.232290267944336,4.581308364868164,-0.8545483350753784,0
-4.196601867675781,3.4884958267211914,0.8345589637756348,0
-3.4922983646392822,1.8232450485229492,2.1134049892425537,0
-2.3102807998657227,0.1319732666015625,2.526017665863037,0
-0.9085124135017395,-1.2438669204711914,1.7531883716583252,0
0.5855631232261658,-2.3302431106567383,-0.1647326946258545,0
1.1544476747512817,-3.154818534851074,-2.5516042709350586,0
1.3622721433639526,-4.010453224182129,-4.82417106628418,0
1.2190618515014648,-4.572995662689209,-6.560063362121582,0
0.9602652192115784,-4.810811996459961,-7.573217868804932,0
0.6996179819107056,-4.826526165008545,-7.963771820068359,0
0.43669745326042175,-4.710877895355225,-7.881244659423828,0
0.20144635438919067,-4.535412788391113,-7.482088088989258,0
-0.007835745811462402,-4.048914432525635,-6.898229122161865,0
-0.2766491770744324,-3.428609848022461,-6.150588035583496,0
-0.702643871307373,-2.660388946533203,-5.110659599304199,0
-1.1877896785736084,-1.675400733947754,-3.8564445972442627,0
-1.5717734098434448,-0.5773210525512695,-2.3514955043792725,0
-1.8879647254943848,0.5229320526123047,-0.7756434082984924,0
-2.195894241333008,1.693638801574707,0.7694065570831299,0
-2.363409996032715,2.828372001647949,1.9503495693206787,0
-2.4252090454101562,3.7012739181518555,2.907867431640625,0
-2.1618592739105225,4.206717491149902,3.2042713165283203,0
-1.7395806312561035,3.9673213958740234,2.4726386070251465,0
-1.2117552757263184,3.2404022216796875,1.1060553789138794,0
-0.5541842579841614,2.2927961349487305,-0.4540786147117615,0
0.047010719776153564,1.474660873413086,-1.7359704971313477,0
0.3724510967731476,0.8725395202636719,-2.5023133754730225,0
0.6767255067825317,0.4173135757446289,-2.9363603591918945,0
1.0544533729553223,0.12353229522705078,-3.0748658180236816,0
1.4329702854156494,-0.05656909942626953,-2.920410394668579,0
1.6631371974945068,-0.12057209014892578,-2.654616355895996,0
1.6030657291412354,-0.19291019439697266,-2.33125901222229,0
1.3499670028686523,-0.3405771255493164,-1.9982364177703857,0
0.9218313694000244,-0.558868408203125,-1.5895850658416748,0
0.5828290581703186,-0.7642879486083984,-0.9110458493232727,0
0.14202997088432312,-0.9619159698486328,-0.3685915470123291,0
-0.2112482786178589,-1.0611248016357422,-0.11948704719543457,0
-0.611319899559021,-1.136305809020996,-0.11623436212539673,0
-0.8385779857635498,-1.161229133605957,-0.4464035630226135,0
-0.9988501071929932,-1.190932273864746,-0.8443228602409363,0
-1.0183207988739014,-1.3018503189086914,-1.2866944074630737,0
-0.9501047730445862,-1.4196901321411133,-1.63083815574646,0
-0.9259213209152222,-1.7236976623535156,-1.791780948638916,0
-0.8240697383880615,-1.9099388122558594,-1.7370256185531616,0
-0.7118273377418518,-2.2224206924438477,-1.4436739683151245,0
-0.6037318110466003,-2.397963523864746,-1.0608272552490234,0
-0.4402269124984741,-2.5204391479492188,-0.6105049848556519,0
-0.2883017063140869,-2.472771644592285,-0.23628951609134674,0
-0.10698997974395752,-2.291041851043701,0.023672908544540405,0
0.12095186114311218,-1.9228038787841797,0.09547337889671326,0
0.32895222306251526,-1.4854469299316406,0.015443727374076843,0
0.5030397176742554,-1.0412158966064453,-0.12753242254257202,0
0.6624364256858826,-0.6690263748168945,-0.33058270812034607,0
0.6366516351699829,-0.2612295150756836,-0.4834117889404297,0
0.6259266138076782,0.06013679504394531,-0.5953731536865234,0
0.6226810812950134,0.26407527923583984,-0.5776129961013794,0
0.7510839700698853,0.2789936065673828,-0.46288302540779114,0
0.8027157783508301,0.06926536560058594,-0.33198437094688416,0
0.7558192014694214,-0.09463977813720703,-0.18710319697856903,0
0.7683731913566589,-0.2677440643310547,-0.006578505039215088,0
0.8813495635986328,-0.5671539306640625,0.16622282564640045,0
1.0476396083831787,-0.9328575134277344,0.28988945484161377,0
1.088248610496521,-1.3073539733886719,0.3756945729255676,0
1.0108004808425903,-1.6236658096313477,0.42520618438720703,0
0.9783532619476318,-1.922518253326416,0.4182753562927246,0
0.7660556435585022,-1.9265999794006348,0.4163832664489746,0
0.4549880027770996,-1.7511014938354492,0.553272545337677,0
0.08091676235198975,-1.5803718566894531,0.7768223285675049,0
-0.12394177913665771,-1.189589500427246,1.080660104751587,0
-0.1759001612663269,-0.6052379608154297,1.2836635112762451,0
-0.19429314136505127,-0.15983009338378906,1.4416284561157227,0
-0.19586175680160522,0.1659688949584961,1.4972407817840576,0
-0.2790314555168152,0.39618873596191406,1.4262332916259766,0
-0.3725578784942627,0.5643424987792969,1.2854044437408447,0
-0.42664074897766113,0.6321554183959961,1.1432541608810425,0
-0.4417158365249634,0.6570367813110352,1.0109258890151978,0
-0.4448133707046509,0.6173801422119141,0.8900899887084961,0
-0.4175642728805542,0.6398239135742188,0.8087486028671265,0
-0.22880768775939941,0.607025146484375,0.7712693214416504,0
0.022875308990478516,0.49505138397216797,0.8349241614341736,0
0.322834849357605,0.47612571716308594,1.0956374406814575,0
0.8048050999641418,0.5094833374023438,1.582467794418335,0
1.2891837358474731,0.7002677917480469,2.144927978515625,0
1.7636843919754028,0.9525623321533203,2.5389957427978516,0
2.266132354736328,1.1322927474975586,2.678694725036621,0
2.69288969039917,1.4474172592163086,2.5497663021087646,0
3.074165105819702,1.754164695739746,2.246145486831665,0
3.387420177459717,2.021343231201172,1.6947739124298096,0
3.56718111038208,2.3230295181274414,0.8729149103164673,0
3.627443790435791,2.283778190612793,0.09290212392807007,0
3.7479848861694336,2.0332651138305664,-0.42667728662490845,0
3.953859806060791,1.6246252059936523,-0.7282912731170654,0
4.1628336906433105,1.2663240432739258,-0.7979916930198669,0
4.328524589538574,1.0541114807128906,-0.7660043835639954,0
4.526272773742676,0.9711704254150391,-0.576054573059082,0
4.649303436279297,1.0700302124023438,-0.12132072448730469,0
4.870583534240723,1.3194646835327148,0.6216017007827759,0
5.051968574523926,1.7241582870483398,1.3821885585784912,0
5.108202934265137,2.310291290283203,2.0740389823913574,0
4.913032531738281,3.075206756591797,2.5433099269866943,0
4.586496829986572,3.748394012451172,2.642915964126587,0
3.9752798080444336,4.195845603942871,2.4069862365722656,0
3.3233351707458496,4.34113883972168,1.9553699493408203,0
2.7259607315063477,4.258640289306641,1.329341173171997,0
2.0865371227264404,4.087225914001465,0.6617670655250549,0
1.4662055969238281,3.800694465637207,0.09572970867156982,0
0.9092137813568115,3.537954330444336,-0.36842432618141174,0
0.5386675596237183,3.3469161987304688,-0.5124635696411133,0
0.24829816818237305,3.0316123962402344,-0.4218434691429138,0
0.022962331771850586,2.6713151931762695,-0.035837769508361816,0
-0.2815972566604614,2.1323862075805664,0.5340173244476318,0
-0.7853525876998901,1.5324172973632812,1.2091885805130005,0
-1.3061928749084473,0.9889440536499023,1.8335217237472534,0
-1.778820514678955,0.6146907806396484,2.259781837463379,0
-2.2785305976867676,0.5295677185058594,2.4602675437927246,0
-2.684394121170044,0.7171039581298828,2.415198802947998,0
-3.153237819671631,1.0962142944335938,2.2284483909606934,0
-3.4333395957946777,1.5283498764038086,1.885542631149292,0
-3.6200265884399414,1.7983675003051758,1.5070979595184326,0
-3.6629557609558105,1.9086999893188477,1.1518052816390991,0
-3.5499918460845947,1.8519878387451172,0.7012165784835815,0
-3.1732301712036133,1.6565351486206055,0.20899462699890137,0
-2.7863450050354004,1.326563835144043,-0.4201120138168335,0
-2.3797006607055664,1.1031503677368164,-1.1466176509857178,0
-2.156684637069702,1.0742835998535156,-1.8417043685913086,0
-2.0293540954589844,1.299363136291504,-2.5856680870056152,0
-1.9411178827285767,1.6418514251708984,-3.2272677421569824,0
-1.8273320198059082,1.9272804260253906,-3.727841377258301,0
-1.6370490789413452,2.151063919067383,-4.01439905166626,0
-1.4463099241256714,2.4066200256347656,-3.913322925567627,0
-1.1690274477005005,2.63895320892334,-3.518805980682373,0
-0.8892242312431335,2.845564842224121,-2.940915584564209,0
-0.5709753036499023,3.0189733505249023,-2.3558661937713623,0
-0.1428675502538681,3.0130796432495117,-1.767825722694397,0
0.2886417806148529,2.935535430908203,-1.229177713394165,0
0.6215171813964844,2.726578712463379,-0.7566311359405518,0
0.8712854385375977,2.465351104736328,-0.33372998237609863,0
1.0516438484191895,2.109041213989258,-0.03743886947631836,0
1.162687063217163,1.8301429748535156,0.11269855499267578,0
1.2341465950012207,1.6262712478637695,0.14528751373291016,0
1.2505309581756592,1.4733343124389648,0.1084599494934082,0
1.2755513191223145,1.3710813522338867,-0.03324103355407715,0
1.22509765625,1.2737417221069336,-0.23395276069641113,0
1.1829051971435547,1.2001266479492188,-0.534060001373291,0
1.0246058702468872,1.1046066284179688,-0.8979496955871582,0
0.8862963914871216,0.8866586685180664,-1.3356046676635742,0
0.6473783850669861,0.5892581939697266,-1.7682273387908936,0
0.3850224018096924,0.26016712188720703,-2.157724618911743,0
0.13490623235702515,-0.12691593170166016,-2.559359073638916,0
-0.13271325826644897,-0.4762287139892578,-2.951753854751587,0
-0.395406574010849,-0.7257509231567383,-3.2843551635742188,0
-0.6715290546417236,-1.1148467063903809,-3.5113396644592285,0
-0.816635251045227,-1.3325443267822266,-3.6564784049987793,0
-1.0811917781829834,-1.6205086708068848,-3.820204257965088,0
-1.428331732749939,-1.990483283996582,-3.9379982948303223,0
-1.7300493717193604,-2.2364187240600586,-4.098903179168701,0
-2.123844623565674,-2.446558952331543,-4.250906467437744,0
-2.5051610469818115,-2.6708292961120605,-4.375481128692627,0
-2.9628803730010986,-2.8252182006835938,-4.4851908683776855,0
-3.2385189533233643,-2.924088478088379,-4.472629070281982,0
-3.5372748374938965,-2.9724035263061523,-4.426311016082764,0
-3.887208938598633,-3.0083956718444824,-4.387207508087158,0
-4.177918434143066,-3.0104446411132812,-4.365151405334473,0
-4.361547946929932,-2.961862564086914,-4.271637439727783,0
-4.527070045471191,-2.941673755645752,-4.171131134033203,0
-4.366184234619141,-2.873631000518799,-4.048689365386963,0
-3.9266998767852783,-2.834853172302246,-3.807760715484619,0
-3.41644024848938,-2.7852797508239746,-3.59810209274292,0
-2.9669017791748047,-2.7781529426574707,-3.3014488220214844,0
-2.518411636352539,-2.756666660308838,-2.9741861820220947,0
-2.150308609008789,-2.745382308959961,-2.6558761596679688,0
-1.7791972160339355,-2.8573150634765625,-2.333390474319458,0
-1.5270133018493652,-3.0259203910827637,-2.0273163318634033,0
-1.2955267429351807,-3.2371935844421387,-1.7560439109802246,0
-1.1034743785858154,-3.555790424346924,-1.5575566291809082,0
-1.0842310190200806,-3.995871067047119,-1.3888216018676758,0
-1.0838714838027954,-4.504390239715576,-1.2790155410766602,0
-1.1037591695785522,-4.9829182624816895,-1.1545379161834717,0
-1.1379799842834473,-5.4241228103637695,-0.9918947219848633,0
-1.1564916372299194,-5.770537376403809,-0.8153462409973145,0
-1.2440268993377686,-5.969709396362305,-0.6129398345947266,0
-1.423283576965332,-6.045747756958008,-0.4252753257751465,0
-1.6383408308029175,-6.0920820236206055,-0.23295927047729492,0
-1.819413661956787,-6.113400459289551,-0.0980377197265625,0
-1.9668753147125244,-5.9589104652404785,-0.015375137329101562,0
-2.111783027648926,-5.977519989013672,0.07228755950927734,0
-2.289278745651245,-6.108462810516357,0.008430242538452148,0
-2.4079689979553223,-6.049279689788818,-0.1271374225616455,0
-2.530060052871704,-5.686947345733643,-0.24001717567443848,0
-2.2999167442321777,-4.915750503540039,-0.3004915714263916,0
-2.0755081176757812,-4.149056434631348,-0.37963271141052246,0
-1.810059666633606,-3.266563892364502,-0.4407942295074463,0
-1.3437224626541138,-2.0740585327148438,-0.4350564479827881,0
-0.8415530920028687,-0.5735702514648438,-0.3519256114959717,0
-0.3625326156616211,1.2783708572387695,-0.22442364692687988,0
-0.06206290423870087,3.3840866088867188,-0.03115987777709961,0
0.32785695791244507,5.619562149047852,0.34446287155151367,0
0.6593108177185059,8.25766658782959,1.0736920833587646,0
0.8708545565605164,11.07332706451416,2.2824580669403076,0
1.0403027534484863,13.858196258544922,3.9180798530578613,0
1.3637975454330444,16.006711959838867,5.880012512207031,0
1.5726398229599,16.77702522277832,8.032918930053711,0
1.8195921182632446,15.18386173248291,9.86380386352539,0
2.077296733856201,11.374350547790527,10.501559257507324,0
2.423628091812134,7.910796165466309,10.155826568603516,0
2.6490554809570312,5.6141462326049805,9.269601821899414,0
2.773848295211792,4.336153984069824,7.952018737792969,0
2.8257179260253906,3.4725780487060547,6.37962532043457,0
2.8296988010406494,2.779385566711426,4.608928203582764,0
2.6065969467163086,2.152420997619629,2.5307908058166504,0
1.9209600687026978,1.650813102722168,0.4120035171508789,0
0.9354573488235474,1.2400455474853516,-1.3270248174667358,0
-0.12655611336231232,0.9754037857055664,-2.3750758171081543,0
-1.1237595081329346,0.8247661590576172,-2.6440439224243164,0
-2.043184518814087,0.8365907669067383,-2.2584590911865234,0
-2.8059029579162598,0.8342456817626953,-1.7027857303619385,0
-3.4250407218933105,0.7347965240478516,-1.408927321434021,0
-3.934680461883545,0.48001670837402344,-1.5545001029968262,0
-4.241325855255127,0.06083393096923828,-2.3927736282348633,0
-4.370985984802246,-0.37282848358154297,-3.6572604179382324,0
-4.3892292976379395,-0.7208042144775391,-4.7593464851379395,0
-4.360981464385986,-0.9063682556152344,-5.353484153747559,0
-4.485357761383057,-0.8261327743530273,-5.396676540374756,0
-4.394691467285156,-0.5106925964355469,-4.927656173706055,0
-3.7845237255096436,-0.24782848358154297,-3.595257043838501,0
-2.5130882263183594,-0.1148080825805664,-2.2494382858276367,0
-0.983396053314209,-0.2614736557006836,-1.383913278579712,0
0.21136970818042755,-0.5681905746459961,-1.1012046337127686,0
0.7803850173950195,-0.9621658325195312,-1.6261316537857056,0
1.0494425296783447,-1.4134178161621094,-2.5039048194885254,0
1.2298966646194458,-1.9304332733154297,-3.308920383453369,0
1.1685551404953003,-2.5481204986572266,-3.9891738891601562,0
0.9473827481269836,-2.887695789337158,-4.270982265472412,0
0.7337386608123779,-3.0588440895080566,-4.12906551361084,0
0.6733328700065613,-3.1618146896362305,-3.754239320755005,0
0.5585135817527771,-3.1799983978271484,-3.2620816230773926,0
0.19524207711219788,-3.2336325645446777,-2.636880874633789,0
-0.5083856582641602,-3.239767074584961,-1.9038336277008057,0
-1.3736329078674316,-3.024608612060547,-1.1841340065002441,0
-2.3019204139709473,-2.7660980224609375,-0.5226026773452759,0
-3.080294609069824,-2.362271308898926,0.009444475173950195,0
-3.6035637855529785,-1.6729707717895508,0.22017621994018555,0
-3.9795405864715576,-0.7422866821289062,0.25680768489837646,0
-4.258362770080566,0.30931568145751953,0.2896171808242798,0
-4.396766185760498,1.5555448532104492,0.0850602388381958,0
-4.288774490356445,2.759608268737793,-0.4249774217605591,0
-4.021819591522217,3.766573905944824,-1.180687665939331,0
-3.252039909362793,4.359650611877441,-1.833500623703003,0
-2.080477237701416,4.386910438537598,-2.3273792266845703,0
-0.8255277276039124,3.8806495666503906,-2.548769950866699,0
0.33778494596481323,3.1622982025146484,-2.460526466369629,0
1.1580901145935059,2.5144901275634766,-2.2139248847961426,0
1.7549688816070557,1.7961931228637695,-2.074368715286255,0
2.1978888511657715,1.1510210037231445,-2.0432169437408447,0
2.4490749835968018,0.5071449279785156,-2.113555431365967,0
2.598196268081665,0.0032176971435546875,-2.1864993572235107,0
2.743337631225586,-0.4302549362182617,-2.399282693862915,0
2.878105640411377,-0.9200763702392578,-2.5512514114379883,0
2.9916162490844727,-1.3825759887695312,-2.271148204803467,0
3.067810535430908,-1.8131227493286133,-1.8173739910125732,0
3.001492977142334,-2.2118635177612305,-1.3244023323059082,0
2.753912925720215,-2.6195859909057617,-0.9508438110351562,0
2.3617589473724365,-2.8187222480773926,-0.6768862009048462,0
1.813094973564148,-2.9385790824890137,-0.5606430768966675,0
1.0996809005737305,-2.890688419342041,-0.5843117237091064,0
0.2674463391304016,-2.797123908996582,-0.5822068452835083,0
-0.34371066093444824,-2.629180908203125,-0.6018896102905273,0
-0.8338228464126587,-2.4658169746398926,-0.6357781887054443,0
-0.9477204084396362,-2.297456741333008,-0.5727932453155518,0
-0.8769299387931824,-2.0476112365722656,-0.4039614498615265,0
-0.6305562257766724,-1.7522926330566406,-0.23662111163139343,0
-0.35629352927207947,-1.4020462036132812,-0.10077184438705444,0
-0.20408514142036438,-1.1069660186767578,-0.0022989511489868164,0
-0.27197903394699097,-0.8670291900634766,-0.00937005877494812,0
-0.42379650473594666,-0.8137044906616211,-0.01094868779182434,0
-0.5571780204772949,-0.7172307968139648,-0.06404434144496918,0
-0.6266062259674072,-0.5752439498901367,-0.12800803780555725,0
-0.4808453917503357,-0.6938114166259766,-0.2028948813676834,0
-0.2964899241924286,-0.9075679779052734,-0.23389896750450134,0
-0.6703889966011047,-0.9175472259521484,-0.1881028264760971,0
-1.0207493305206299,-0.6165056228637695,-0.0017700174357742071,0
-0.9032302498817444,-0.3539714813232422,0.13263309001922607,0
-0.5423471927642822,-0.3594236373901367,0.21668469905853271,0
-0.15024334192276,-0.4770832061767578,0.2933400273323059,0
0.09889471530914307,-0.5776796340942383,0.41321104764938354,0
0.3559875786304474,-0.7329607009887695,0.45534050464630127,0
0.6425785422325134,-0.9786920547485352,0.5385966300964355,0
1.0018140077590942,-1.4749221801757812,0.4798998236656189,0
1.314214825630188,-1.7765388488769531,0.4498358368873596,0
1.6613699197769165,-1.902860164642334,0.38396286964416504,0
1.9450640678405762,-1.956902027130127,0.40639519691467285,0
2.1626334190368652,-1.9937572479248047,0.602644145488739,0
2.4310219287872314,-1.7241382598876953,0.9146144390106201,0
2.5586957931518555,-0.7180376052856445,1.3562664985656738,0
2.485811710357666,0.4282264709472656,1.7813937664031982,0
1.967545747756958,1.2528772354125977,2.1704583168029785,0
1.4651895761489868,1.6940221786499023,2.293107509613037,0
1.2349870204925537,1.8453435897827148,2.1197092533111572,0
1.1722595691680908,1.6449918746948242,1.720862627029419,0
1.0025031566619873,1.0766525268554688,1.301677942276001,0
0.8072355389595032,0.4754924774169922,0.8522593975067139,0
0.5692789554595947,0.018415451049804688,0.5305016040802002,0
0.3025009036064148,-0.31871700286865234,0.4037688672542572,0
0.3201587200164795,-0.5073442459106445,0.5010436177253723,0
0.5503607988357544,-0.2104511260986328,0.8323119878768921,0
0.880390465259552,0.10988903045654297,1.333219289779663,0
1.3003796339035034,0.4679422378540039,1.6949026584625244,0
1.7616431713104248,0.7750310897827148,1.9384045600891113,0
2.2127163410186768,1.3944778442382812,1.980004906654358,0
2.7023141384124756,2.053140640258789,2.042973756790161,0
3.113645315170288,2.7363080978393555,1.4598413705825806,0
3.4502506256103516,3.0253639221191406,0.8681546449661255,0
3.701735019683838,3.1861581802368164,0.28805744647979736,0
3.9303219318389893,3.0156641006469727,-0.17458319664001465,0
4.0836029052734375,2.9686737060546875,-0.577086329460144,0
4.130831718444824,2.918360710144043,-0.7285787463188171,0
4.336218357086182,2.862490653991699,-0.7519338726997375,0
4.599987030029297,3.066577911376953,-0.8708094358444214,0
4.834291458129883,3.3080148696899414,-0.961694061756134,0
4.965571403503418,3.5246925354003906,-0.896072268486023,0
5.0567097663879395,3.8052501678466797,-0.832176148891449,0
5.259038925170898,4.11870002746582,-0.5353990793228149,0
5.4248046875,4.477138519287109,-0.027058303356170654,0
5.742104530334473,4.754005432128906,0.7358652353286743,0
6.134276866912842,4.944829940795898,1.6233820915222168,0
6.228664398193359,5.133544921875,2.3756418228149414,0
5.754474639892578,5.341662406921387,2.8377602100372314,0
2.8907651901245117,5.535353660583496,3.1250388622283936,0
-0.06502330303192139,5.212281227111816,3.2862627506256104,0
-1.8228721618652344,4.313509941101074,3.150362014770508,0
-2.820284366607666,3.117574691772461,2.996748447418213,0
-3.3087384700775146,1.9936237335205078,2.9115071296691895,0
-3.5842549800872803,1.2457799911499023,2.7418899536132812,0
-3.703742504119873,0.9577445983886719,2.5100741386413574,0
-3.75643253326416,1.0982551574707031,2.214744806289673,0
-3.667304515838623,1.4495162963867188,1.888488531112671,0
-3.5794811248779297,1.755620002746582,1.5886528491973877,0
-3.3611907958984375,1.865983009338379,1.2349755764007568,0
-3.129627227783203,1.718388557434082,0.7314107418060303,0
-2.789151906967163,1.2886743545532227,0.0993267297744751,0
-2.4526686668395996,0.8011798858642578,-0.5591039061546326,0
-2.164397954940796,0.34121036529541016,-1.2695136070251465,0
-2.040388822555542,0.06103515625,-1.822350025177002,0
-1.9768775701522827,0.014973640441894531,-2.26593017578125,0
-1.9684821367263794,0.01610279083251953,-2.7169241905212402,0
-2.1966123580932617,0.15048885345458984,-3.089015483856201,0
-2.47660493850708,0.32987213134765625,-3.5793662071228027,0
-2.8269758224487305,0.3947019577026367,-4.173062801361084,0
-3.1396431922912598,0.35311126708984375,-4.783343315124512,0
-3.5002448558807373,0.3805837631225586,-5.296500205993652,0
-3.577831268310547,0.5184869766235352,-5.646093368530273,0
-3.251681327819824,0.7361326217651367,-5.4985504150390625,0
-2.556226968765259,1.1172866821289062,-4.67902135848999,0
-1.690505862236023,1.3986835479736328,-3.3992795944213867,0
-0.9102168679237366,1.7331571578979492,-1.8627598285675049,0
-0.18472059071063995,2.2107973098754883,-0.051726579666137695,0
0.6577988862991333,2.834718704223633,2.0819177627563477,0
1.4699029922485352,3.404111862182617,4.264159202575684,0
1.735225796699524,3.893143653869629,5.545162200927734,0
1.5471837520599365,3.9928579330444336,5.490627765655518,0
0.8841860890388489,3.563150405883789,4.379049777984619,0
-0.028019636869430542,2.9043960571289062,2.8923802375793457,0
-0.6196162104606628,2.323615074157715,1.5117452144622803,0
-0.8395659327507019,1.6800098419189453,0.38869667053222656,0
-1.0478448867797852,0.9641475677490234,-0.534855842590332,0
-1.2976505756378174,0.31244468688964844,-1.326404094696045,0
-1.4721193313598633,-0.2728424072265625,-1.9813849925994873,0
-1.6432456970214844,-0.8586626052856445,-2.5577244758605957,0
-1.8614461421966553,-1.3731679916381836,-3.1396172046661377,0
-2.0577213764190674,-1.8879203796386719,-3.761216163635254,0
-2.2757484912872314,-2.414459228515625,-4.330202579498291,0
-2.4777650833129883,-2.842383861541748,-4.866661548614502,0
-2.7237913608551025,-3.2335686683654785,-5.366780757904053,0
-2.9732110500335693,-3.6569418907165527,-5.788568496704102,0
-3.2140870094299316,-3.9925594329833984,-6.039586544036865,0
-3.345964193344116,-4.247496604919434,-6.12042236328125,0
-3.373459815979004,-4.4313836097717285,-6.045652389526367,0
-3.1016151905059814,-4.405930995941162,-5.757516860961914,0
-2.806413412094116,-4.234119892120361,-5.377241611480713,0
-2.5056471824645996,-3.995605945587158,-4.987640380859375,0
-2.2894790172576904,-3.6479673385620117,-4.58777379989624,0
-2.072113275527954,-3.287473201751709,-4.121681213378906,0
-1.997887372970581,-2.9768176078796387,-3.617072582244873,0
-1.9191848039627075,-2.747436046600342,-3.171196937561035,0
-1.8749374151229858,-2.6116561889648438,-2.728065252304077,0
-1.8228211402893066,-2.5649876594543457,-2.2438266277313232,0
-1.7655785083770752,-2.612419605255127,-1.813614845275879,0
-1.6600267887115479,-2.7468461990356445,-1.4586269855499268,0
-1.525086760520935,-2.8965587615966797,-1.1068768501281738,0
-1.334287166595459,-3.078404426574707,-0.7701153755187988,0
-1.1566640138626099,-3.263700008392334,-0.4817507266998291,0
-1.020474910736084,-3.464268207550049,-0.2348041534423828,0
-0.8221567869186401,-3.5412473678588867,-0.055853843688964844,0
-0.6949388980865479,-3.595008373260498,0.1265115737915039,0
-0.7410728931427002,-3.610957145690918,0.30465269088745117,0
-0.8911399841308594,-3.653413772583008,0.5116744041442871,0
-1.2336935997009277,-3.753420352935791,0.8194952011108398,0
-1.649099588394165,-3.77957820892334,1.331474781036377,0
-2.032114028930664,-4.028591632843018,1.875762939453125,0
-2.263197422027588,-4.270976543426514,2.4390978813171387,0
-2.4382033348083496,-4.710162162780762,2.9386610984802246,0
-2.426398754119873,-5.180783748626709,3.1788740158081055,0
-2.463289976119995,-5.761221408843994,3.0210607051849365,0
-2.236196517944336,-6.204422473907471,2.6491315364837646,0
-1.9609675407409668,-6.521952152252197,2.100996971130371,0
-1.525068998336792,-6.603388786315918,1.4430534839630127,0
-0.9370888471603394,-6.388321876525879,0.6042685508728027,0
-0.21955238282680511,-5.677285671234131,-0.38019847869873047,0
0.6392654180526733,-4.256700038909912,-1.269997239112854,0
1.2850197553634644,-2.3150739669799805,-1.846772313117981,0
1.7097907066345215,0.03317546844482422,-2.064544677734375,0
1.915687084197998,2.7356977462768555,-1.8605945110321045,0
2.127298355102539,5.682544708251953,-1.1000865697860718,0
2.347175359725952,8.811273574829102,0.3602328300476074,0
2.691962480545044,12.118467330932617,2.692923069000244,0
3.337165355682373,14.884860038757324,5.760941505432129,0
4.260496139526367,16.60209846496582,8.929679870605469,0
4.93424654006958,16.258575439453125,11.0182466506958,0
4.223588466644287,12.986759185791016,10.891530990600586,0
3.1290104389190674,8.878730773925781,9.476805686950684,0
2.442554235458374,5.774848937988281,7.964673042297363,0
1.8930848836898804,4.286221504211426,6.485881805419922,0
1.2931715250015259,3.9086122512817383,4.935263633728027,0
0.5111420154571533,4.109132766723633,3.4680731296539307,0
-0.4541128873825073,4.486279487609863,2.266029119491577,0
-1.2091245651245117,4.428074836730957,1.2613873481750488,0
-1.6231608390808105,3.9378137588500977,0.08029937744140625,0
-2.0984995365142822,3.368302345275879,-1.1807712316513062,0
-2.645448684692383,2.6664791107177734,-2.732173204421997,0
-3.1055262088775635,1.6993083953857422,-4.574783802032471,0
-3.61576771736145,0.5381660461425781,-6.260646820068359,0
-3.9977266788482666,-0.6829776763916016,-7.337379455566406,0
-4.446545124053955,-1.756044864654541,-7.672739028930664,0
-5.0099992752075195,-2.7052664756774902,-7.231308937072754,0
-5.607852458953857,-3.584670066833496,-6.163121223449707,0
-5.854527950286865,-4.244513988494873,-4.686356067657471,0
-5.787298202514648,-4.461879730224609,-3.275653839111328,0
-5.50747537612915,-4.1475725173950195,-2.2967753410339355,0
-4.588577747344971,-3.730639934539795,-2.00604248046875,0
-3.151358127593994,-3.419060707092285,-2.468388795852661,0
-1.2943859100341797,-3.174050807952881,-3.33119535446167,0
0.24529874324798584,-3.1074109077453613,-4.2739667892456055,0
1.213034749031067,-3.1443233489990234,-5.1344895362854,0
1.587105631828308,-3.1815242767333984,-5.78826904296875,0
1.6407980918884277,-2.9868812561035156,-6.179631233215332,0
1.4619543552398682,-2.754270076751709,-6.345593452453613,0
1.175809621810913,-2.323596954345703,-6.238409519195557,0
0.7347946763038635,-1.8291821479797363,-5.993858337402344,0
0.3399699330329895,-1.1637725830078125,-5.586862564086914,0
-0.0640990138053894,-0.4499635696411133,-4.93664026260376,0
-0.6114765405654907,0.37842464447021484,-3.8845810890197754,0
-1.225041389465332,1.2151565551757812,-2.529653787612915,0
-1.9968324899673462,2.090212821960449,-0.7542919516563416,0
-2.8433451652526855,2.8228931427001953,1.261533498764038,0
-3.273313045501709,3.189647674560547,3.566340684890747,0
-3.020237445831299,2.9775848388671875,4.741388320922852,0
-2.1794023513793945,2.2599544525146484,3.938721179962158,0
-1.303445816040039,1.289851188659668,2.1320888996124268,0
-0.41156184673309326,0.5399684906005859,0.29125237464904785,0
0.3383190333843231,-0.022396087646484375,-1.1525648832321167,0
1.0636541843414307,-0.3513307571411133,-2.2625722885131836,0
1.5804483890533447,-0.4586353302001953,-3.2326769828796387,0
1.7410105466842651,-0.4041757583618164,-4.07828426361084,0
1.8285951614379883,-0.3914070129394531,-4.676820278167725,0
1.8011239767074585,-0.41802310943603516,-4.978344440460205,0
1.7292883396148682,-0.4507150650024414,-4.950503826141357,0
1.583329200744629,-0.563812255859375,-4.541204929351807,0
1.3881690502166748,-0.7119874954223633,-3.844123601913452,0
1.1594483852386475,-0.8762760162353516,-2.916252374649048,0
1.0779597759246826,-1.0736808776855469,-1.3395779132843018,0
0.8910046219825745,-1.1729145050048828,0.07650703191757202,0
0.6469760537147522,-1.1981124877929688,0.9376208782196045,0
0.427226185798645,-1.2329864501953125,1.148884892463684,0
0.058605849742889404,-1.2582368850708008,1.0344147682189941,0
-0.2973814606666565,-1.1804304122924805,0.6034239530563354,0
-0.5271270275115967,-1.0425806045532227,0.07539209723472595,0
-0.5331148505210876,-1.1076745986938477,-0.36111515760421753,0
-0.46634531021118164,-1.2367372512817383,-0.696223258972168,0
-0.34103870391845703,-1.3914508819580078,-0.830390453338623,0
-0.17134058475494385,-1.473806381225586,-0.7752188444137573,0
-0.028825044631958008,-1.419412612915039,-0.5770691633224487,0
0.0890243649482727,-1.3193683624267578,-0.35124868154525757,0
0.16551458835601807,-1.0852899551391602,-0.2133219689130783,0
0.1934189796447754,-0.8990755081176758,-0.11656968295574188,0
0.22772860527038574,-0.8132495880126953,-0.09134885668754578,0
0.27090245485305786,-0.7965574264526367,-0.11583319306373596,0
0.14513027667999268,-0.6624212265014648,-0.09954643249511719,0
-0.15307140350341797,-0.2675962448120117,-0.03179456293582916,0
-0.17176580429077148,0.06478500366210938,0.026316560804843903,0
-0.04239010810852051,0.40654754638671875,0.07354511320590973,0
0.07995492219924927,0.6309700012207031,0.14277280867099762,0
0.15002143383026123,0.7979745864868164,0.2269444763660431,0
0.24699807167053223,0.7163553237915039,0.3074359595775604,0
0.3375391364097595,0.48926734924316406,0.33943578600883484,0
0.39040201902389526,0.33448028564453125,0.3593803644180298,0
0.3983086347579956,0.146697998046875,0.3915698230266571,0
0.5958442687988281,-0.2318124771118164,0.4313618540763855,0
0.7941080331802368,-0.38233089447021484,0.4908520579338074,0
0.9093730449676514,-0.5585689544677734,0.6252976655960083,0
1.0302636623382568,-0.8011102676391602,0.7798771262168884,0
1.2217891216278076,-1.0380611419677734,0.9138509035110474,0
1.4795749187469482,-1.1713409423828125,0.9932498931884766,0
1.6842461824417114,-1.1771411895751953,1.132394790649414,0
1.8215103149414062,-1.1656389236450195,1.3473460674285889,0
1.884096384048462,-0.9671440124511719,1.601446509361267,0
1.8045251369476318,-0.48879337310791016,1.8434650897979736,0
1.611267328262329,0.12065601348876953,2.0579328536987305,0
1.2775133848190308,0.4399747848510742,2.303412437438965,0
0.9005887508392334,0.6007728576660156,2.459268569946289,0
0.4391587972640991,0.6006269454956055,2.572683095932007,0
0.26620614528656006,0.5090045928955078,2.607822895050049,0
0.2259831428527832,0.39060401916503906,2.5725998878479004,0
0.2703925371170044,0.5324296951293945,2.475203275680542,0
0.5045644044876099,0.5110282897949219,2.4531664848327637,0
0.8014479279518127,0.6375102996826172,2.466775894165039,0
1.2918572425842285,0.8326606750488281,2.2648746967315674,0
1.74008309841156,1.0412330627441406,2.199786424636841,0
2.307371139526367,1.502049446105957,2.0872485637664795,0
2.9178221225738525,1.9323244094848633,1.9320619106292725,0
3.3594703674316406,2.3748550415039062,1.5550153255462646,0
3.7154979705810547,2.4206418991088867,1.152789831161499,0
3.8967018127441406,2.5100059509277344,0.445529967546463,0
3.9749951362609863,2.28668212890625,-0.018601179122924805,0
4.027099132537842,2.203075408935547,-0.5650382041931152,0
4.087042808532715,2.118122100830078,-0.9737926721572876,0
4.268136978149414,2.1086015701293945,-1.254860281944275,0
4.310100078582764,2.2391786575317383,-1.4253290891647339,0
4.354851722717285,2.414273262023926,-1.4639739990234375,0
4.501510143280029,2.6030378341674805,-1.4740421772003174,0
4.822885513305664,2.887040138244629,-1.3147296905517578,0
5.0423479080200195,3.232942581176758,-0.830817461013794,0
5.333372116088867,3.7317934036254883,-0.19943946599960327,0
5.6972246170043945,4.280805587768555,0.5573911070823669,0
6.100268840789795,4.817996978759766,1.3381578922271729,0
6.408798694610596,5.5061845779418945,2.069654703140259,0
6.239997386932373,6.182682991027832,2.616182327270508,0
3.951639413833618,6.335575103759766,2.957085609436035,0
0.9977985620498657,5.769200325012207,3.165501117706299,0
-0.9028492569923401,4.738067626953125,3.1712028980255127,0
-2.1112420558929443,3.6735801696777344,2.9425060749053955,0
-2.737700939178467,2.908672332763672,2.555544376373291,0
-3.098083257675171,2.577394485473633,2.1324446201324463,0
-3.3008008003234863,2.517026901245117,1.6960200071334839,0
-3.229780435562134,2.4812393188476562,1.3394808769226074,0
-3.097127676010132,2.352954864501953,1.0178508758544922,0
-2.9238104820251465,2.0269670486450195,0.7371605038642883,0
-2.7814276218414307,1.5102548599243164,0.3778228759765625,0
-2.513841152191162,0.9362592697143555,0.01163339614868164,0
-2.317620277404785,0.5626459121704102,-0.48097485303878784,0
-2.0645103454589844,0.3910179138183594,-1.0774106979370117,0
-1.8852488994598389,0.27245616912841797,-1.6244515180587769,0
-1.9182634353637695,0.2496051788330078,-2.081895112991333,0
-2.074944257736206,0.27434253692626953,-2.4509170055389404,0
-2.2884159088134766,0.2820625305175781,-2.814828872680664,0
-2.5466887950897217,0.2730369567871094,-3.2075119018554688,0
-2.851970911026001,0.1856365203857422,-3.623047351837158,0
-3.258787155151367,0.14271259307861328,-4.070611953735352,0
-3.6161956787109375,0.11151695251464844,-4.398453235626221,0
-3.821171283721924,0.12115287780761719,-4.502926826477051,0
-3.787415027618408,0.3247661590576172,-4.240718841552734,0
-3.5807747840881348,0.6935148239135742,-3.606600284576416,0
-2.9682674407958984,1.0549955368041992,-2.7330124378204346,0
-2.076101064682007,1.4473381042480469,-1.7302184104919434,0
-1.3289051055908203,1.9204673767089844,-0.6797394752502441,0
-0.6845283508300781,2.5119123458862305,0.5336410999298096,0
-0.18746325373649597,3.210930824279785,1.74564790725708,0
0.09123200178146362,3.690824508666992,2.72786545753479,0
0.18621276319026947,3.852832794189453,3.2742655277252197,0
-0.013030894100666046,3.4648361206054688,3.1753060817718506,0
-0.28547078371047974,2.7567262649536133,2.5845842361450195,0
-0.5615448951721191,1.9844236373901367,1.9449689388275146,0
-0.70717453956604,1.2482337951660156,1.275414228439331,0
-0.8507030010223389,0.5121431350708008,0.5947854518890381,0
-1.0262138843536377,-0.19985389709472656,-0.09990859031677246,0
-1.2260795831680298,-0.8467817306518555,-0.7643527984619141,0
-1.4348305463790894,-1.4019136428833008,-1.4645812511444092,0
-1.5504612922668457,-1.9222393035888672,-2.1732659339904785,0
-1.643338918685913,-2.3857421875,-2.860785484313965,0
-1.7699602842330933,-2.8423027992248535,-3.4948134422302246,0
-1.8676183223724365,-3.2963600158691406,-4.0811662673950195,0
-1.9243879318237305,-3.678323268890381,-4.591886043548584,0
-2.0221033096313477,-4.035765171051025,-5.082864761352539,0
-2.185194492340088,-4.310837268829346,-5.586305618286133,0
-2.2441399097442627,-4.53660249710083,-6.050716400146484,0
-2.0599679946899414,-4.727027893066406,-6.395869255065918,0
-1.8019468784332275,-4.805369853973389,-6.579545974731445,0
-1.5076711177825928,-4.716872215270996,-6.489406585693359,0
-1.3247729539871216,-4.454966068267822,-6.179976463317871,0
-1.2410681247711182,-4.130463123321533,-5.700441837310791,0
-1.2615385055541992,-3.7584280967712402,-5.106997489929199,0
-1.3242037296295166,-3.377885341644287,-4.489145755767822,0
-1.3981224298477173,-3.09713077545166,-3.907705068588257,0
-1.4547398090362549,-2.892770290374756,-3.3374760150909424,0
-1.530158519744873,-2.748525619506836,-2.820437431335449,0
-1.634228229522705,-2.8107447624206543,-2.295666217803955,0
-1.6764659881591797,-2.936227321624756,-1.7812888622283936,0
-1.7269043922424316,-3.206603527069092,-1.2884094715118408,0
-1.800201654434204,-3.5501766204833984,-0.8595952987670898,0
-1.8346086740493774,-3.957314968109131,-0.5328950881958008,0
-1.849503755569458,-4.38254451751709,-0.25301647186279297,0
-1.7800946235656738,-4.773200511932373,-0.048580169677734375,0
-1.6568427085876465,-5.146018028259277,0.12831735610961914,0
-1.5337598323822021,-5.419609546661377,0.29909372329711914,0
-1.4000632762908936,-5.639366149902344,0.4468111991882324,0
-1.3000032901763916,-5.802863121032715,0.6599745750427246,0
-1.2329928874969482,-5.742480278015137,0.8114948272705078,0
-1.3342876434326172,-5.881248474121094,0.9749274253845215,0
-1.418809413909912,-6.158492565155029,1.089512586593628,0
-1.5277220010757446,-6.152612686157227,1.209632158279419,0
-1.5330169200897217,-5.798862934112549,1.392160177230835,0
-1.6976975202560425,-5.603973865509033,1.4782874584197998,0
-1.6673948764801025,-5.117687702178955,1.5582220554351807,0
-1.3319745063781738,-4.335148334503174,1.6218185424804688,0
-0.9595307111740112,-3.3877711296081543,1.6612529754638672,0
-0.2765231728553772,-2.148440361022949,1.6850917339324951,0
0.4090576767921448,-0.427886962890625,1.6772923469543457,0
0.9773002862930298,1.6522111892700195,1.7283592224121094,0
1.388370394706726,4.13284969329834,1.7821896076202393,0
1.823216438293457,6.791913032531738,1.877790927886963,0
2.289017915725708,9.887970924377441,2.157172679901123,0
2.518428087234497,13.054780006408691,2.847160816192627,0
2.931933879852295,15.50279712677002,3.8610188961029053,0
3.4588205814361572,16.650941848754883,5.160243988037109,0
3.5592048168182373,16.38477325439453,6.808876037597656,0
3.2207393646240234,13.727083206176758,8.107486724853516,0
2.3504323959350586,9.313961029052734,8.439526557922363,0
1.6382681131362915,5.705495834350586,8.30829906463623,0
1.3075684309005737,3.2730045318603516,7.71232795715332,0
1.2858492136001587,1.7586050033569336,6.709371089935303,0
1.3122774362564087,0.9099264144897461,5.37941837310791,0
1.2194015979766846,0.5350131988525391,3.848891019821167,0
0.875041127204895,0.5164346694946289,2.1357808113098145,0
0.22772955894470215,0.8130893707275391,0.4457271099090576,0
-0.5681089162826538,1.3618898391723633,-1.1407498121261597,0
-1.5253703594207764,2.0828285217285156,-2.6354970932006836,0
-2.3197824954986572,2.5612030029296875,-3.923262596130371,0
-2.826359987258911,2.409395217895508,-5.049722194671631,0
-3.0589005947113037,1.8743524551391602,-5.997198581695557,0
-3.1720290184020996,1.3180007934570312,-6.632490634918213,0
-3.368596076965332,0.8059015274047852,-7.111603736877441,0
-3.6319596767425537,0.3681774139404297,-7.384593963623047,0
-4.006381988525391,-0.0650634765625,-7.332564353942871,0
-4.506613254547119,-0.7378683090209961,-6.748732089996338,0
-4.852468967437744,-1.6082258224487305,-5.501352787017822,0
-4.883759498596191,-2.4501357078552246,-3.56656813621521,0
-4.666031837463379,-2.9046669006347656,-1.5548995733261108,0
-4.036746501922607,-3.026454448699951,0.13437879085540771,0
-2.9969701766967773,-2.8932042121887207,1.1395230293273926,0
-1.7129095792770386,-2.8088512420654297,1.023610234260559,0
-0.3177294135093689,-2.7464499473571777,0.0675574541091919,0
0.517143189907074,-2.7625937461853027,-1.3081283569335938,0
0.9380040168762207,-2.937771797180176,-2.7050342559814453,0
1.114196538925171,-3.034480571746826,-3.899440288543701,0
1.1737347841262817,-3.186300277709961,-4.741220474243164,0
0.9443142414093018,-2.9745492935180664,-5.236972332000732,0
0.6329731941223145,-2.6149730682373047,-5.444383144378662,0
0.2380812168121338,-2.115205764770508,-5.534676551818848,0
-0.1919780969619751,-1.399306297302246,-5.541860580444336,0
-0.692531943321228,-0.5900745391845703,-5.247781753540039,0
-1.18416428565979,0.2566394805908203,-4.618006706237793,0
-1.7691584825515747,1.125650405883789,-3.6133170127868652,0
-2.2886626720428467,2.0280256271362305,-2.20609450340271,0
-2.7340164184570312,2.9819345474243164,-0.411096453666687,0
-2.643371343612671,3.567972183227539,1.980348825454712,0
-2.0715491771698,3.556696891784668,3.7108397483825684,0
-1.2603938579559326,2.9063796997070312,3.8727269172668457,0
-0.37278270721435547,1.9871902465820312,2.803626775741577,0
0.36646878719329834,1.0707988739013672,1.4019347429275513,0
1.0244885683059692,0.39477062225341797,0.046802520751953125,0
1.518000841140747,-0.12435340881347656,-0.8504382967948914,0
1.797328233718872,-0.4792909622192383,-1.6121140718460083,0
1.9231044054031372,-0.6844596862792969,-2.4346141815185547,0
1.8319344520568848,-0.7185554504394531,-3.0864310264587402,0
1.5942649841308594,-0.754094123840332,-3.46394681930542,0
1.2449644804000854,-0.717106819152832,-3.656229019165039,0
0.8856881260871887,-0.7704458236694336,-3.5557053089141846,0
0.5272622108459473,-0.8161401748657227,-3.24556827545166,0
0.3148590922355652,-0.8735456466674805,-2.422762632369995,0
0.15175974369049072,-0.954777717590332,-1.6005525588989258,0
0.07519346475601196,-0.9785566329956055,-0.9870513677597046,0
-0.0030514001846313477,-1.1410322189331055,-0.5498135685920715,0
-0.12383449077606201,-1.2410612106323242,-0.37324079871177673,0
-0.13478320837020874,-1.3789949417114258,-0.40173569321632385,0
-0.22090977430343628,-1.4828882217407227,-0.4465642273426056,0
-0.20094019174575806,-1.7558937072753906,-0.4507945775985718,0
-0.17341434955596924,-2.0781702995300293,-0.4051218330860138,0
-0.12457555532455444,-2.339676856994629,-0.31394490599632263,0
-0.06684595346450806,-2.4496946334838867,-0.14950105547904968,0
-0.012488842010498047,-2.4156832695007324,0.05494984984397888,0
-0.002324342727661133,-2.2379136085510254,0.2503858804702759,0
0.10469192266464233,-1.8688278198242188,0.42207208275794983,0
0.08865118026733398,-1.5239009857177734,0.5745569467544556,0
0.16021138429641724,-1.183985710144043,0.5901675224304199,0
0.19496232271194458,-0.9351444244384766,0.5110779404640198,0
0.16150206327438354,-0.6576957702636719,0.33745869994163513,0
-0.024667859077453613,-0.18193531036376953,0.13044430315494537,0
0.021245837211608887,0.23842811584472656,-0.08254081010818481,0
0.1461418867111206,0.4313325881958008,-0.16603100299835205,0
0.30468595027923584,0.5859794616699219,-0.1874246448278427,0
0.5377460718154907,0.5757150650024414,-0.1610032618045807,0
0.7763001918792725,0.27645301818847656,-0.14172148704528809,0
0.9920711517333984,0.001842498779296875,-0.15810464322566986,0
1.0845556259155273,-0.2696514129638672,-0.0709119588136673,0
1.2691290378570557,-0.640812873840332,0.08204548060894012,0
1.4310693740844727,-0.8651838302612305,0.2840817868709564,0
1.6159989833831787,-1.0265817642211914,0.3965440094470978,0
1.6420698165893555,-1.108316421508789,0.5464661121368408,0
1.7223695516586304,-1.1391429901123047,0.6570354700088501,0
1.8403733968734741,-1.1047391891479492,0.7181143164634705,0
1.8646790981292725,-1.0219087600708008,0.8176069855690002,0
1.6997418403625488,-0.7424755096435547,0.9835941791534424,0
1.34781014919281,-0.2978553771972656,1.2128159999847412,0
0.937693178653717,0.27097225189208984,1.4661972522735596,0
0.5359126925468445,0.74847412109375,1.6803280115127563,0
0.2210148572921753,1.0939092636108398,1.8704805374145508,0
0.0044574737548828125,1.2569704055786133,2.0014472007751465,0
-0.18128681182861328,1.230447769165039,2.0287928581237793,0
-0.23639321327209473,1.0908784866333008,2.0284781455993652,0
-0.19531655311584473,0.9577999114990234,1.964991807937622,0
0.022562623023986816,0.8647003173828125,1.974045753479004,0
0.41705048084259033,0.7829990386962891,2.0696091651916504,0
0.8469504117965698,0.7703132629394531,2.412205934524536,0
1.3626961708068848,0.9080009460449219,2.634661912918091,0
1.8231329917907715,0.9663600921630859,2.814183473587036,0
2.2687058448791504,0.9860239028930664,2.8714067935943604,0
2.777653694152832,1.1341304779052734,2.6374402046203613,0
3.1624279022216797,1.2596235275268555,2.4849472045898438,0
3.572737693786621,1.3909368515014648,2.2121119499206543,0
3.818223476409912,1.5109786987304688,1.5599133968353271,0
4.15403938293457,1.4857349395751953,1.002575159072876,0
4.381185531616211,1.351308822631836,0.5699286460876465,0
4.509420394897461,1.2538471221923828,0.3587139844894409,0
4.639759063720703,1.1074485778808594,0.23100197315216064,0
4.712976455688477,1.2638425827026367,0.005170762538909912,0
4.811289310455322,1.3522424697875977,-0.005619227886199951,0
4.9116621017456055,1.6072626113891602,0.12376236915588379,0
5.017454624176025,2.067143440246582,0.2943633496761322,0
5.0865159034729,2.6528701782226562,0.45707982778549194,0
5.203492641448975,3.2759361267089844,0.3446732759475708,0
5.091836452484131,3.7642269134521484,0.09128355979919434,0
4.855175971984863,4.070164680480957,-0.3007485270500183,0
4.67362642288208,4.19654655456543,-0.7160760164260864,0
4.530970573425293,4.11519718170166,-0.8297848701477051,0
4.37934684753418,3.8577651977539062,-0.5951859951019287,0
4.171004772186279,3.5873708724975586,-0.033762261271476746,0
3.903379440307617,3.1990127563476562,0.7633095383644104,0
1.9404654502868652,2.9724550247192383,1.6601972579956055,0
-0.00847315788269043,2.869232177734375,2.406416177749634,0
-1.4196314811706543,2.91831111907959,2.8242149353027344,0
-2.434685468673706,3.194427490234375,2.948923110961914,0
-3.0553035736083984,3.5906009674072266,2.908879518508911,0
-3.613497734069824,3.9208803176879883,2.8180878162384033,0
-3.9629855155944824,4.130759239196777,2.66068959236145,0
-4.115659713745117,4.210894584655762,2.4574413299560547,0
-4.107892990112305,4.087042808532715,2.2102432250976562,0
-4.070673942565918,3.7326908111572266,1.707058072090149,0
-4.241879463195801,3.5179662704467773,1.2145237922668457,0
-4.336732864379883,3.334444046020508,0.4039376974105835,0
-4.533724784851074,3.0570764541625977,-0.4605597257614136,0
-4.661846160888672,2.905306816101074,-1.306635856628418,0
-4.7143073081970215,2.679891586303711,-2.1051135063171387,0
-4.817600250244141,2.471071243286133,-2.6279971599578857,0
-4.973501682281494,2.220738410949707,-2.905914545059204,0
-5.097281455993652,1.8111696243286133,-3.0940637588500977,0
-5.141986846923828,1.4381399154663086,-3.189854145050049,0
-5.153138160705566,1.1683988571166992,-3.201122283935547,0
-5.113176345825195,1.1287717819213867,-3.026576042175293,0
-4.345887184143066,1.188206672668457,-2.872352361679077,0
-3.1758041381835938,1.3213653564453125,-2.8017160892486572,0
-2.287247896194458,1.4167184829711914,-2.6334354877471924,0
-1.5752248764038086,1.4916563034057617,-2.3669867515563965,0
-1.0807647705078125,1.5992431640625,-1.9102745056152344,0
-0.4665249288082123,1.6587896347045898,-1.4299776554107666,0
-0.10066917538642883,1.8310670852661133,-1.053680181503296,0
0.20413097739219666,1.8555221557617188,-0.6711788177490234,0
0.5466718077659607,1.8446884155273438,-0.3558468818664551,0
0.796729564666748,1.762176513671875,-0.10317468643188477,0
1.0635120868682861,1.5687999725341797,0.08737015724182129,0
1.2648320198059082,1.3711490631103516,0.11818337440490723,0
1.4184632301330566,1.0508975982666016,0.05641436576843262,0
1.450925350189209,0.7506809234619141,-0.14631247520446777,0
1.3605002164840698,0.3310079574584961,-0.4456820487976074,0
1.1568201780319214,-0.18223285675048828,-0.7644619941711426,0
0.7868390083312988,-0.6958608627319336,-1.069303274154663,0
0.4587939381599426,-1.264674186706543,-1.4161372184753418,0
0.1609819233417511,-1.8619451522827148,-1.8562977313995361,0
-0.06783974170684814,-2.4011387825012207,-2.314394950866699,0
-0.32568496465682983,-2.9703879356384277,-2.7962870597839355,0
-0.550144612789154,-3.4304518699645996,-3.3582112789154053,0
-0.7484644651412964,-3.881505012512207,-3.907743215560913,0
-0.9857022166252136,-4.234804630279541,-4.333124160766602,0
-1.1261487007141113,-4.564401626586914,-4.694682598114014,0
-1.2282671928405762,-4.817569255828857,-4.992733001708984,0
-1.3000895977020264,-4.869768142700195,-5.287658214569092,0
-1.371267318725586,-4.998308181762695,-5.524983882904053,0
-1.3802769184112549,-4.987680912017822,-5.6979594230651855,0
-1.3418585062026978,-4.893097877502441,-5.777838706970215,0
-1.3399052619934082,-4.686094760894775,-5.714262962341309,0
-1.240204095840454,-4.419628620147705,-5.511809825897217,0
-1.1212658882141113,-4.1610541343688965,-5.244203090667725,0
-1.027653694152832,-3.9752964973449707,-4.927668571472168,0
-0.9515281319618225,-3.7096714973449707,-4.5089311599731445,0
-0.9714047312736511,-3.4699792861938477,-4.063775062561035,0
-0.969732403755188,-3.3092894554138184,-3.6033124923706055,0
-1.0181888341903687,-3.2040534019470215,-3.1291236877441406,0
-1.090140461921692,-3.2334461212158203,-2.676497459411621,0
-1.1568766832351685,-3.371239185333252,-2.2305877208709717,0
-1.2689107656478882,-3.6102523803710938,-1.8101894855499268,0
-1.3740379810333252,-3.933772563934326,-1.407684326171875,0
-1.5299696922302246,-4.337026596069336,-0.9963822364807129,0
-1.5789093971252441,-4.762714385986328,-0.5183749198913574,0
-1.6834073066711426,-5.1464033126831055,-0.0784602165222168,0
-1.8119043111801147,-5.521744251251221,0.33107471466064453,0
-1.9373729228973389,-5.829220294952393,0.8354125022888184,0
-2.2122244834899902,-5.90662956237793,1.41398286819458,0
-2.5069315433502197,-5.995857238769531,1.9240708351135254,0
-2.964794158935547,-6.046656131744385,2.3952269554138184,0
-3.3732831478118896,-6.015801429748535,2.8878326416015625,0
-3.864743947982788,-5.893169403076172,3.1648828983306885,0
-4.277189254760742,-5.642091751098633,3.259303092956543,0
-4.452784538269043,-5.278354644775391,3.1866683959960938,0
-4.409842491149902,-4.702659606933594,2.90659236907959,0
-4.178191184997559,-3.8206677436828613,2.4670181274414062,0
-3.6607577800750732,-2.523838520050049,1.8414099216461182,0
-2.8456273078918457,-0.7971668243408203,1.2853472232818604,0
-1.8075350522994995,1.30975341796875,0.7448840141296387,0
-0.6020135879516602,3.5538692474365234,0.11407351493835449,0
0.49868088960647583,6.1825056076049805,-0.4630312919616699,0
1.4002352952957153,8.940420150756836,-0.7358601093292236,0
2.1369516849517822,11.988290786743164,-0.5538678169250488,0
2.8403213024139404,14.775432586669922,0.4094245433807373,0
3.4597232341766357,16.49974250793457,2.1866085529327393,0
4.150005340576172,16.832923889160156,4.537703990936279,0
5.291360378265381,15.109734535217285,6.905869007110596,0
6.171112537384033,11.428967475891113,8.418550491333008,0
6.413387775421143,7.915129661560059,9.088412284851074,0
6.275716781616211,5.434942245483398,9.13633918762207,0
5.808390140533447,4.017473220825195,8.771041870117188,0
5.3933563232421875,3.2903947830200195,7.928837776184082,0
4.824820041656494,2.9779348373413086,6.75473690032959,0
3.947765588760376,2.907773017883301,5.239784240722656,0
2.7652032375335693,2.862468719482422,3.6597402095794678,0
1.1765694618225098,2.720425605773926,2.128329277038574,0
-0.5307522416114807,2.457836151123047,0.7274432182312012,0
-2.1993892192840576,2.184330940246582,-0.5310046672821045,0
-3.669754981994629,1.8537721633911133,-1.655945062637329,0
-4.77632999420166,1.3485279083251953,-2.759817123413086,0
-5.5646071434021,0.6208791732788086,-3.8582916259765625,0
-6.09017276763916,-0.10601997375488281,-4.969139575958252,0
-6.575718402862549,-0.7305841445922852,-6.08879280090332,0
-6.877670764923096,-1.1340389251708984,-7.087522983551025,0
-7.189840316772461,-1.3716793060302734,-7.727371692657471,0
-7.488257884979248,-1.5440855026245117,-7.789525032043457,0
-7.511446475982666,-1.709111213684082,-6.7564802169799805,0
-7.186875820159912,-1.8842668533325195,-4.671173095703125,0
-6.279026031494141,-2.0005064010620117,-2.557715892791748,0
-4.355147361755371,-2.2910637855529785,-1.0385462045669556,0
-1.9678558111190796,-2.6768064498901367,-0.30750930309295654,0
-0.027652978897094727,-3.0276670455932617,-0.5717368125915527,0
0.9090758562088013,-3.397467613220215,-1.48832106590271,0
1.2639305591583252,-3.739619731903076,-2.602905750274658,0
1.3036754131317139,-4.022164344787598,-3.545271635055542,0
1.3036530017852783,-4.273119926452637,-4.158529758453369,0
1.2056310176849365,-4.434563636779785,-4.584609508514404,0
1.1669169664382935,-4.484783172607422,-4.810378074645996,0
1.0105009078979492,-4.498175144195557,-4.8070387840271,0
0.8662852048873901,-4.336635589599609,-4.482263565063477,0
0.6367673873901367,-4.022595405578613,-4.007723331451416,0
0.3050343990325928,-3.308319568634033,-3.3349103927612305,0
-0.23772698640823364,-2.438998222351074,-2.5785117149353027,0
-0.7846943736076355,-1.468195915222168,-1.880184531211853,0
-1.2633473873138428,-0.30350399017333984,-1.2937521934509277,0
-1.785482406616211,0.9345684051513672,-0.7227594256401062,0
-2.350377082824707,2.338545799255371,-0.0953136682510376,0
-2.8207287788391113,3.6519670486450195,0.47278714179992676,0
-3.023186206817627,4.638104438781738,0.9914499521255493,0
-2.908998966217041,5.230559349060059,1.2397195100784302,0
-2.3458259105682373,5.093107223510742,1.1243581771850586,0
-1.4140650033950806,4.3444318771362305,0.7400175333023071,0
-0.3703498840332031,3.1987552642822266,0.20717477798461914,0
0.3977806568145752,2.132992744445801,-0.40161436796188354,0
1.0318738222122192,1.3005380630493164,-0.8868228197097778,0
1.4753334522247314,0.6392688751220703,-1.485893726348877,0
1.7460575103759766,0.10374927520751953,-2.13839054107666,0
1.902721643447876,-0.2152729034423828,-2.7320847511291504,0
1.9425349235534668,-0.3610877990722656,-3.282776355743408,0
1.8845221996307373,-0.4869394302368164,-3.7480955123901367,0
1.6495072841644287,-0.5474424362182617,-4.066442489624023,0
1.4279009103775024,-0.7053451538085938,-4.111878395080566,0
1.2375704050064087,-0.9438486099243164,-4.000349521636963,0
1.0195105075836182,-1.117070198059082,-3.6541500091552734,0
0.8483393788337708,-1.3399457931518555,-3.165584087371826,0
0.7389566898345947,-1.6339921951293945,-2.4355108737945557,0
0.737732470035553,-1.8485350608825684,-1.3259638547897339,0
0.8023145794868469,-2.0601725578308105,-0.3360818326473236,0
0.8227694630622864,-2.189934730529785,0.4624643921852112,0
0.8586654663085938,-2.197162628173828,0.9420270919799805,0
0.803936243057251,-2.0914711952209473,1.1082005500793457,0
0.6070595383644104,-1.8227415084838867,1.0640391111373901,0
0.2664646506309509,-1.565765380859375,0.9485267996788025,0
-0.07784080505371094,-1.2966814041137695,0.7095690965652466,0
-0.2685372829437256,-1.0992660522460938,0.4253433048725128,0
-0.38458251953125,-0.96392822265625,0.16573046147823334,0
-0.46405452489852905,-0.763916015625,-9.197741746902466E-4,0
-0.5930646061897278,-0.5328474044799805,-0.0632067322731018,0
-0.6252634525299072,-0.4333477020263672,-0.06713712960481644,0
-0.7279087901115417,-0.24285221099853516,-0.10250290483236313,0
-0.7143169641494751,-0.04273796081542969,-0.08974798768758774,0
-0.732801079750061,0.12160396575927734,-0.12211717665195465,0
-0.6874887943267822,0.18332672119140625,-0.1377941220998764,0
-0.5712623596191406,0.23346328735351562,-0.06322430819272995,0
-0.45116347074508667,0.25292301177978516,0.021975278854370117,0
-0.3538393974304199,0.10543632507324219,0.1674674153327942,0
-0.22199547290802002,-0.2470569610595703,0.33668145537376404,0
-0.07246840000152588,-0.5771713256835938,0.45458370447158813,0
0.12345689535140991,-0.7964868545532227,0.6042455434799194,0
0.31562066078186035,-0.967341423034668,0.7083888053894043,0
0.44434183835983276,-1.0826425552368164,0.8672395944595337,0
0.7014307975769043,-1.247629165649414,1.0330517292022705,0
0.9627286195755005,-1.3139457702636719,1.1893630027770996,0
1.1781975030899048,-1.1788358688354492,1.3345506191253662,0
1.367058277130127,-1.095931053161621,1.510290265083313,0
1.5484280586242676,-0.9503116607666016,1.6888165473937988,0
1.6886318922042847,-0.787445068359375,1.837222695350647,0
1.7418031692504883,-0.4615192413330078,2.017760992050171,0
1.7241766452789307,0.017597198486328125,2.1245903968811035,0
1.5968413352966309,0.2908468246459961,2.1660430431365967,0
1.457215666770935,0.43232154846191406,2.1163058280944824,0
1.3166688680648804,0.48729419708251953,1.9063355922698975,0
1.2657173871994019,0.49384498596191406,1.6325056552886963,0
1.1100506782531738,0.4494590759277344,1.4691568613052368,0
0.8972481489181519,0.46174144744873047,1.6273695230484009,0
1.0507557392120361,0.3824577331542969,1.8902981281280518,0
1.1612951755523682,0.4820060729980469,2.342763900756836,0
1.5159096717834473,0.6932649612426758,2.5739545822143555,0
1.7312668561935425,1.030411720275879,2.90785551071167,0
2.1796486377716064,1.4739131927490234,2.777097702026367,0
2.606065273284912,1.915736198425293,2.4114413261413574,0
2.8895962238311768,2.384249687194824,1.753522515296936,0
3.191951274871826,2.5636444091796875,1.17520272731781,0
3.4646692276000977,2.3849048614501953,0.8089909553527832,0
3.7143712043762207,2.3051185607910156,0.3156280219554901,0
3.985008478164673,1.6716527938842773,0.05705159902572632,0
4.339556694030762,1.3652992248535156,-0.3117374777793884,0
4.445858955383301,1.1776905059814453,-0.4995006322860718,0
4.625048637390137,1.2355022430419922,-0.4784430265426636,0
4.8396148681640625,1.330601692199707,-0.13454025983810425,0
5.171555042266846,1.6926488876342773,0.3779827058315277,0
5.528515815734863,2.3095703125,0.98396897315979,0
5.722517490386963,3.1262216567993164,1.4596092700958252,0
5.802763938903809,3.86993408203125,1.5351972579956055,0
5.758774280548096,4.368829727172852,1.122602939605713,0
5.531844139099121,4.582766532897949,0.4524696171283722,0
5.144003391265869,4.574522972106934,0.010532140731811523,0
4.717320919036865,4.409212112426758,-9.594857692718506E-4,0
4.35239839553833,4.14951229095459,0.3725167214870453,0
4.126068592071533,3.850797653198242,1.1168359518051147,0
2.387910842895508,3.5128822326660156,2.0345964431762695,0
0.02270829677581787,3.281301498413086,2.81816029548645,0
-1.6786937713623047,3.043696403503418,3.3040339946746826,0
-2.8280444145202637,2.9226598739624023,3.4434783458709717,0
-3.4925310611724854,2.957204818725586,3.270261287689209,0
-3.87296199798584,3.1265335083007812,2.8535304069519043,0
-4.065479278564453,3.292459487915039,2.398721933364868,0
-4.212105751037598,3.333319664001465,2.173007011413574,0
-4.1873931884765625,3.18939208984375,2.008591651916504,0
-4.17276668548584,2.9178695678710938,1.7900890111923218,0
-4.096920967102051,2.5851974487304688,1.4158108234405518,0
-4.121688365936279,2.3819875717163086,0.8570902347564697,0
-4.229976654052734,2.410167694091797,0.13209807872772217,0
-4.398869514465332,2.417501449584961,-0.6596086025238037,0
-4.559669017791748,2.4749603271484375,-1.5410244464874268,0
-4.692237854003906,2.6058759689331055,-2.2823212146759033,0
-4.694368362426758,2.632871627807617,-2.838390350341797,0
-4.5559163093566895,2.689706802368164,-3.1472549438476562,0
-4.194064617156982,2.5443735122680664,-3.322134017944336,0
-3.337667465209961,2.3623876571655273,-3.4505615234375,0
-2.543177604675293,2.232532501220703,-3.5194642543792725,0
-1.801164150238037,2.2578344345092773,-3.4083945751190186,0
-1.2455315589904785,2.1684322357177734,-3.1965017318725586,0
-0.6028987169265747,2.101533889770508,-2.956315755844116,0
-0.0946507453918457,1.7733144760131836,-2.752742052078247,0
0.16764922440052032,1.3661365509033203,-2.4552102088928223,0
0.4777141213417053,1.1194162368774414,-2.0760951042175293,0
0.6568679213523865,0.9875516891479492,-1.557602882385254,0
0.8798497319221497,0.8364219665527344,-0.9969725608825684,0
1.2343642711639404,0.6825103759765625,-0.443004846572876,0
1.447985053062439,0.4893989562988281,0.06801462173461914,0
1.600587010383606,0.3496885299682617,0.44955015182495117,0
1.7125293016433716,0.26018238067626953,0.696113109588623,0
1.6435096263885498,0.23449134826660156,0.6868844032287598,0
1.438818335533142,0.13588237762451172,0.42701244354248047,0
0.9970577955245972,0.02884674072265625,0.0431208610534668,0
0.5601820945739746,-0.1679248809814453,-0.44370484352111816,0
0.18023380637168884,-0.4998617172241211,-0.8780956268310547,0
-0.03349611163139343,-0.7566423416137695,-1.2168171405792236,0
-0.20670592784881592,-1.0487451553344727,-1.4904217720031738,0
-0.4150172472000122,-1.35968017578125,-1.74629807472229,0
-0.5904229283332825,-1.6824426651000977,-2.0463244915008545,0
-0.9376124143600464,-2.0481133460998535,-2.414374351501465,0
-1.1657823324203491,-2.214902400970459,-2.8819727897644043,0
-1.3909465074539185,-2.5175046920776367,-3.3850791454315186,0
-1.6447769403457642,-2.8669662475585938,-3.8119359016418457,0
-1.8246419429779053,-3.0883312225341797,-4.232726573944092,0
-2.156094551086426,-3.303100109100342,-4.7060418128967285,0
-2.493969202041626,-3.5154643058776855,-5.192294120788574,0
-2.690490961074829,-3.6555042266845703,-5.618467807769775,0
-2.9400534629821777,-3.8136520385742188,-5.98799467086792,0
-3.1232500076293945,-3.9345479011535645,-6.311135768890381,0
-3.2446792125701904,-3.9989938735961914,-6.444692611694336,0
-3.289572238922119,-3.9307432174682617,-6.350254058837891,0
-3.127934455871582,-3.8236193656921387,-6.072809219360352,0
-2.876023054122925,-3.6973414421081543,-5.60446310043335,0
-2.6308412551879883,-3.5549769401550293,-5.078235626220703,0
-2.3293232917785645,-3.4521775245666504,-4.514636039733887,0
-2.1172409057617188,-3.4301323890686035,-3.910262107849121,0
-2.0401132106781006,-3.4798383712768555,-3.278280735015869,0
-1.9691362380981445,-3.5325050354003906,-2.6151046752929688,0
-1.8231496810913086,-3.69386625289917,-2.0034773349761963,0
-1.839115858078003,-3.9187846183776855,-1.43772554397583,0
-1.7872626781463623,-4.183617115020752,-0.9123187065124512,0
-1.777221918106079,-4.50520658493042,-0.5081875324249268,0
-1.7844114303588867,-4.8476128578186035,-0.1366591453552246,0
-1.7843232154846191,-5.177247524261475,0.10900115966796875,0
-1.8075649738311768,-5.477285385131836,0.398712158203125,0
-1.8773200511932373,-5.73338508605957,0.7254061698913574,0
-1.9499714374542236,-5.993276119232178,1.0316882133483887,0
-2.044048547744751,-6.204290390014648,1.3633060455322266,0
-2.1015944480895996,-6.254029273986816,1.6966753005981445,0
-2.2223072052001953,-6.403062343597412,2.0461935997009277,0
-2.5369973182678223,-6.674761772155762,2.277784585952759,0
-2.8945412635803223,-6.709784984588623,2.429591417312622,0
-3.223456621170044,-6.326027870178223,2.5203561782836914,0
-3.535900831222534,-5.807609558105469,2.539411783218384,0
-3.6905152797698975,-5.053250312805176,2.451796054840088,0
-3.5312752723693848,-4.019351482391357,2.2658491134643555,0
-3.010099411010742,-2.4472174644470215,1.982745885848999,0
-2.2816340923309326,-0.5110101699829102,1.6864871978759766,0
-1.4931178092956543,1.871556282043457,1.1507782936096191,0
-0.6639471054077148,4.627370834350586,0.592628002166748,0
0.18164417147636414,7.704860687255859,0.0527501106262207,0
0.8856872916221619,11.229048728942871,-0.36618804931640625,0
1.4505655765533447,14.752667427062988,-0.4740161895751953,0
2.073822021484375,17.763595581054688,0.03025031089782715,0
3.0279643535614014,19.380884170532227,1.809711217880249,0
4.108322620391846,19.073223114013672,4.196880340576172,0
5.033184051513672,16.343887329101562,6.379361152648926,0
5.319578647613525,11.558085441589355,7.84545373916626,0
5.120105266571045,7.168094635009766,8.788097381591797,0
4.663515090942383,4.042621612548828,8.954090118408203,0
4.216830253601074,2.1240758895874023,8.213653564453125,0
3.8760414123535156,1.0731077194213867,6.909136772155762,0
3.4421966075897217,0.7400226593017578,5.283223628997803,0
2.778109073638916,0.7746791839599609,3.4055335521698,0
1.851871371269226,0.9445695877075195,1.48443603515625,0
0.538564145565033,1.2255363464355469,-0.4511599540710449,0
-1.046068787574768,1.6558513641357422,-2.3176751136779785,0
-2.5481345653533936,1.8772106170654297,-4.013491153717041,0
-3.456599473953247,1.5702810287475586,-5.387669086456299,0
-4.025562286376953,1.160013198852539,-6.429226398468018,0
-4.613073348999023,1.0185575485229492,-7.0405378341674805,0
-5.174985885620117,1.039900779724121,-7.227443218231201,0
-5.908601760864258,1.185755729675293,-6.918396949768066,0
-6.756387233734131,1.039963722229004,-6.0013298988342285,0
-7.55165433883667,0.39954566955566406,-4.203322887420654,0
-8.09771728515625,-0.6589546203613281,-1.5224041938781738,0
-8.321149826049805,-1.5933961868286133,1.3321694135665894,0
-8.189273834228516,-2.3590192794799805,3.5439112186431885,0
-7.28627872467041,-2.9984521865844727,4.599041938781738,0
-5.4512128829956055,-3.497936248779297,4.112804889678955,0
-2.7033371925354004,-4.038672924041748,2.3130533695220947,0
-0.25189435482025146,-4.538199424743652,0.011031389236450195,0
1.134466290473938,-4.902169704437256,-2.432443618774414,0
1.642573595046997,-5.096291542053223,-4.65216064453125,0
1.6114046573638916,-5.074592590332031,-6.397453784942627,0
1.5055134296417236,-4.779390811920166,-7.584968566894531,0
1.3956273794174194,-4.423343181610107,-8.31849193572998,0
1.4136786460876465,-3.9130048751831055,-8.543313980102539,0
1.444562315940857,-3.2509193420410156,-8.41427993774414,0
1.3461146354675293,-2.506847381591797,-8.103809356689453,0
1.038003921508789,-1.616750717163086,-7.48645544052124,0
0.6524777412414551,-0.48801708221435547,-6.757051944732666,0
0.20946550369262695,0.8093490600585938,-5.979118347167969,0
-0.057558417320251465,2.047787666320801,-5.137936115264893,0
-0.17639607191085815,3.050351142883301,-3.9379091262817383,0
0.1108931303024292,4.11604118347168,-1.5484097003936768,0
0.7947274446487427,4.909701347351074,1.7095431089401245,0
1.841500997543335,4.991326332092285,4.714895725250244,0
2.7656285762786865,4.249163627624512,6.186716079711914,0
3.4015769958496094,3.095503807067871,6.300998687744141,0
3.7894206047058105,2.090669631958008,5.161262035369873,0
3.7644362449645996,1.3138618469238281,3.245608329772949,0
3.4331157207489014,0.6863594055175781,1.1735048294067383,0
2.471580743789673,0.16759395599365234,-0.5729122757911682,0
1.1510015726089478,-0.24245071411132812,-1.9589070081710815,0
0.10400539636611938,-0.515131950378418,-3.085721492767334,0
-0.6410399675369263,-0.7605190277099609,-3.9318013191223145,0
-0.9637002944946289,-0.9809713363647461,-4.354809761047363,0
-1.0086578130722046,-1.1812820434570312,-4.374019622802734,0
-0.9853326678276062,-1.3112983703613281,-4.0965962409973145,0
-0.9648412466049194,-1.4883432388305664,-3.6842892169952393,0
-1.052529215812683,-1.5546503067016602,-3.1886863708496094,0
-0.971200168132782,-1.6204805374145508,-2.1918718814849854,0
-0.9370273351669312,-1.6620635986328125,-1.032075047492981,0
-0.6471126079559326,-1.6532258987426758,-0.01889747381210327,0
-0.27964019775390625,-1.5510482788085938,0.8244407176971436,0
0.10956662893295288,-1.475205421447754,1.3254892826080322,0
0.46970537304878235,-1.2965145111083984,1.428215503692627,0
0.7002049684524536,-1.1609182357788086,1.196000337600708,0
0.9015065431594849,-1.0683469772338867,0.8239086866378784,0
1.0090569257736206,-0.9374542236328125,0.4332708716392517,0
1.0372577905654907,-0.7850542068481445,0.04318024218082428,0
1.0315417051315308,-0.6709880828857422,-0.28624218702316284,0
1.0112495422363281,-0.6071691513061523,-0.5185909271240234,0
0.923837423324585,-0.6150712966918945,-0.6270452737808228,0
0.7887004017829895,-0.5152578353881836,-0.5560312271118164,0
0.7952989339828491,-0.46323680877685547,-0.41488683223724365,0
0.848524808883667,-0.5879917144775391,-0.2747575044631958,0
0.8072488307952881,-0.39192867279052734,-0.13081185519695282,0
0.7455909252166748,-0.10977363586425781,-0.03134948015213013,0
0.6587021350860596,0.08381175994873047,0.003914624452590942,0
0.6207380890846252,0.15545940399169922,0.015032216906547546,0
0.5935381650924683,0.13880443572998047,-0.04626902937889099,0
0.5649526119232178,0.1511068344116211,-0.024433672428131104,0
0.671341598033905,-0.07785511016845703,0.025628745555877686,0
0.7021787166595459,-0.2464914321899414,0.08471964299678802,0
0.6861143112182617,-0.4816122055053711,0.24871864914894104,0
0.8166834115982056,-0.7400856018066406,0.5324585437774658,0
0.8139054775238037,-0.8616466522216797,0.924480140209198,0
0.9125041961669922,-0.98748779296875,1.2216449975967407,0
0.9954084753990173,-1.0745220184326172,1.4264192581176758,0
1.0293039083480835,-1.0677680969238281,1.5794062614440918,0
1.0049833059310913,-0.9553613662719727,1.6251308917999268,0
0.9946558475494385,-0.7326107025146484,1.6444981098175049,0
0.8336315751075745,-0.4115762710571289,1.6299793720245361,0
0.6104294657707214,-0.009125709533691406,1.6818482875823975,0
0.39885467290878296,0.3096046447753906,1.8022863864898682,0
0.2607455253601074,0.5733394622802734,1.871132254600525,0
0.2246077060699463,0.6768712997436523,1.8637583255767822,0
0.23015666007995605,0.6441431045532227,1.6976995468139648,0
0.2768406867980957,0.4225015640258789,1.4673056602478027,0
0.39737820625305176,-0.026336669921875,1.173748254776001,0
0.5645104646682739,-0.4656047821044922,0.9049327969551086,0
0.7053391933441162,-0.7544622421264648,0.7708991169929504,0
0.9555234909057617,-1.0629072189331055,1.083564281463623,0
1.4412825107574463,-1.1230745315551758,1.7219655513763428,0
2.0020885467529297,-0.9184484481811523,2.3762893676757812,0
2.6473233699798584,-0.49233341217041016,2.822958469390869,0
3.1397180557250977,0.09755229949951172,2.871565818786621,0
3.45723819732666,0.7623519897460938,2.417081117630005,0
3.6233181953430176,1.2387361526489258,1.6268038749694824,0
3.7312169075012207,1.409733772277832,0.9219918847084045,0
3.958285331726074,1.464674949645996,0.3215477764606476,0
4.149762153625488,1.293858528137207,-0.1198568344116211,0
4.33298397064209,1.0460004806518555,-0.3978453278541565,0
4.348352909088135,0.9102230072021484,-0.5365442037582397,0
4.308777809143066,0.9606304168701172,-0.6217091083526611,0
4.29105281829834,1.1851577758789062,-0.5448417067527771,0
4.1994123458862305,1.629094123840332,-0.3242148756980896,0
4.043270111083984,2.2778196334838867,0.03576618432998657,0
3.9945077896118164,3.150143623352051,0.4797084927558899,0
3.868353843688965,4.0112810134887695,0.804955244064331,0
3.8176305294036865,4.73193359375,1.0206013917922974,0
3.7009458541870117,5.173403739929199,0.9386746883392334,0
3.609351396560669,5.32404899597168,0.682757556438446,0
3.4594430923461914,5.299171447753906,0.4351795017719269,0
3.460299015045166,5.1831207275390625,0.4495827555656433,0
3.469367504119873,5.110462188720703,0.7924425601959229,0
3.4138505458831787,5.1462602615356445,1.4811975955963135,0
2.5637223720550537,5.151825904846191,2.2553634643554688,0
0.35702013969421387,4.894962310791016,2.964735746383667,0
-1.3626850843429565,4.165580749511719,3.4639034271240234,0
-2.5638160705566406,3.3951711654663086,3.7162742614746094,0
-3.318312644958496,2.7304697036743164,3.6932902336120605,0
-3.8869309425354004,2.3515090942382812,3.4783668518066406,0
-4.229020118713379,2.2108078002929688,2.9941866397857666,0
-4.350139141082764,2.2033281326293945,2.436893939971924,0
-4.29240608215332,2.1258621215820312,1.89298677444458,0
-4.101195335388184,1.9233198165893555,1.373465895652771,0
-3.890033721923828,1.5593338012695312,0.773003101348877,0
-3.638854742050171,1.1526145935058594,0.16365551948547363,0
-3.263068199157715,0.8598995208740234,-0.4651981592178345,0
-3.0201590061187744,0.8594522476196289,-1.1454417705535889,0
-2.947411298751831,1.109548568725586,-1.7261346578598022,0
-2.9938316345214844,1.3918657302856445,-2.2897536754608154,0
-3.1756019592285156,1.8185882568359375,-2.7711422443389893,0
-3.2860589027404785,2.0884342193603516,-3.270969867706299,0
-3.2874996662139893,2.242635726928711,-3.7008228302001953,0
-2.951629400253296,2.3511123657226562,-4.158137798309326,0
-2.161367416381836,2.306887626647949,-4.3910698890686035,0
-1.334510326385498,2.356816291809082,-4.27677059173584,0
-0.706574559211731,2.4294004440307617,-3.697573661804199,0
-0.1831819713115692,2.4438343048095703,-3.0814931392669678,0
0.3820682764053345,2.3312015533447266,-2.3888661861419678,0
0.9539300203323364,2.129976272583008,-1.614611029624939,0
1.3860172033309937,1.9931793212890625,-0.7623710632324219,0
1.705208659172058,1.901346206665039,0.11681747436523438,0
1.9563080072402954,1.7320985794067383,0.9578180313110352,0
2.1764464378356934,1.4489803314208984,1.6147921085357666,0
2.249791383743286,1.1492280960083008,2.0306129455566406,0
2.2273693084716797,1.0280389785766602,2.1379153728485107,0
2.023050308227539,0.869349479675293,1.9185850620269775,0
1.7030941247940063,0.7301902770996094,1.4996683597564697,0
1.298948884010315,0.5935840606689453,0.9790141582489014,0
0.8842667937278748,0.399871826171875,0.3508901596069336,0
0.45077458024024963,0.15431690216064453,-0.36216282844543457,0
0.08780935406684875,-0.09956550598144531,-1.0752007961273193,0
-0.30654898285865784,-0.3685646057128906,-1.7653241157531738,0
-0.6545072793960571,-0.6428203582763672,-2.3734819889068604,0
-0.7896912097930908,-0.9699058532714844,-2.9075160026550293,0
-0.8562725186347961,-1.2683730125427246,-3.36295747756958,0
-0.9170637130737305,-1.6961002349853516,-3.6561245918273926,0
-0.938774824142456,-2.11429500579834,-3.8995091915130615,0
-1.0316665172576904,-2.5994133949279785,-4.134006500244141,0
-1.162315845489502,-3.103342056274414,-4.384016990661621,0
-1.292295217514038,-3.5636072158813477,-4.645411014556885,0
-1.473985195159912,-3.9370193481445312,-4.904339790344238,0
-1.7548176050186157,-4.292806625366211,-5.063319206237793,0
-1.9811358451843262,-4.54480504989624,-5.134749889373779,0
-2.2224018573760986,-4.721767902374268,-5.080618858337402,0
-2.5651328563690186,-4.658898830413818,-4.895989418029785,0
-2.8805649280548096,-4.4094414710998535,-4.604108810424805,0
-3.1811933517456055,-4.13913631439209,-4.194352626800537,0
-3.3431203365325928,-3.8844590187072754,-3.7062456607818604,0
-3.407081127166748,-3.6341042518615723,-3.188781261444092,0
-3.271949052810669,-3.484452724456787,-2.6861300468444824,0
-2.972890853881836,-3.44327974319458,-2.1611924171447754,0
-2.6290438175201416,-3.4800214767456055,-1.6606833934783936,0
-2.3357393741607666,-3.587867259979248,-1.2124531269073486,0
-1.9994746446609497,-3.7741541862487793,-0.847050666809082,0
-1.6943291425704956,-3.983826160430908,-0.5977256298065186,0
-1.370074987411499,-4.197590351104736,-0.4309999942779541,0
-1.1726298332214355,-4.34343957901001,-0.3280017375946045,0
-0.9992756247520447,-4.524014949798584,-0.3319365978240967,0
-0.9218089580535889,-4.645749568939209,-0.3138003349304199,0
-0.8323721289634705,-4.7801313400268555,-0.3289833068847656,0
-0.821480929851532,-4.905258655548096,-0.3301115036010742,0
-0.866787850856781,-4.987321853637695,-0.24119806289672852,0
-0.9170185327529907,-5.162310600280762,-0.12988042831420898,0
-1.006904125213623,-5.305549621582031,0.03461503982543945,0
-1.1760179996490479,-5.438423156738281,0.2593095302581787,0
-1.4307562112808228,-5.567996501922607,0.5443325042724609,0
-1.7107244729995728,-5.741905689239502,0.8658685684204102,0
-1.9727449417114258,-5.773365020751953,1.2169837951660156,0
-2.3559045791625977,-5.786635398864746,1.5860748291015625,0
-2.9329161643981934,-5.747844696044922,1.896738052368164,0
-3.250183582305908,-5.453373908996582,2.1012649536132812,0
-3.3541812896728516,-4.821690082550049,2.127652645111084,0
-3.2383363246917725,-3.747265338897705,1.8267192840576172,0
-3.0058958530426025,-2.236884117126465,1.2995402812957764,0
-2.426323652267456,-0.37841033935546875,0.5477371215820312,0
-1.75825834274292,1.7931604385375977,-0.2614552974700928,0
-1.1143449544906616,4.355381011962891,-1.073230266571045,0
-0.5376594662666321,7.41192626953125,-1.7580173015594482,0
-0.181881844997406,11.22624683380127,-2.167637586593628,0
0.11167362332344055,15.216620445251465,-1.9527013301849365,0
0.28263598680496216,18.188838958740234,-0.8514366149902344,0
0.5084200501441956,18.860477447509766,1.4605960845947266,0
0.9662740230560303,17.3846492767334,5.16710090637207,0
1.6605958938598633,13.036983489990234,8.273263931274414,0
2.5735650062561035,8.260490417480469,10.402912139892578,0
3.403048515319824,4.711267471313477,11.313722610473633,0
3.8837852478027344,2.597294807434082,11.066190719604492,0
3.7077131271362305,1.7372560501098633,9.798497200012207,0
3.068101406097412,1.8576164245605469,7.800905704498291,0
1.9782460927963257,2.7430648803710938,5.380678653717041,0
0.6714634299278259,4.037601470947266,2.7176544666290283,0
-0.6359474658966064,5.08880615234375,0.09325861930847168,0
-1.6809077262878418,5.31607723236084,-2.2827510833740234,0
-2.526484489440918,5.109444618225098,-4.108799934387207,0
-3.3614656925201416,4.6523847579956055,-5.457029342651367,0
-4.141515254974365,3.808091163635254,-6.441179275512695,0
-4.730950832366943,2.6416473388671875,-7.123122215270996,0
-5.1504011154174805,1.1520576477050781,-7.595003128051758,0
-5.342123985290527,-0.3741903305053711,-7.717502593994141,0
-5.28366756439209,-1.846848487854004,-7.145381927490234,0
-5.027531147003174,-3.1812028884887695,-6.179848670959473,0
-4.540759086608887,-4.303837776184082,-5.0874104499816895,0
-3.607978105545044,-4.735507488250732,-4.085361003875732,0
-2.0356202125549316,-4.611629962921143,-3.3423984050750732,0
-0.16531670093536377,-4.176944255828857,-2.928910255432129,0
1.4308359622955322,-3.6802210807800293,-2.9559240341186523,0
2.4323394298553467,-3.400757312774658,-3.3710484504699707,0
2.8865621089935303,-3.4142355918884277,-4.072234153747559,0
3.0168416500091553,-3.471179962158203,-4.7538557052612305,0
2.954765558242798,-3.4851298332214355,-5.294192314147949,0
2.667917490005493,-3.475046157836914,-5.614151954650879,0
2.2953686714172363,-3.354783058166504,-5.619510650634766,0
1.8372125625610352,-3.1533422470092773,-5.281095504760742,0
1.3078174591064453,-2.7397518157958984,-4.6252055168151855,0
0.8896055221557617,-2.2631711959838867,-3.7197794914245605,0
0.46888861060142517,-1.4877214431762695,-2.562755823135376,0
-0.3375409245491028,-0.5317850112915039,-1.1567468643188477,0
-1.3236310482025146,0.36201953887939453,0.5052311420440674,0
-2.336021900177002,1.3887338638305664,2.3664941787719727,0
-3.206660270690918,2.417835235595703,4.208738327026367,0
-4.126264572143555,3.388176918029785,6.228775978088379,0
-4.541544437408447,4.1154279708862305,6.851082801818848,0
-4.191198825836182,4.153935432434082,5.47530460357666,0
-3.058250665664673,3.281723976135254,2.994354248046875,0
-1.9086205959320068,2.07562255859375,0.5357917547225952,0
-0.823939859867096,1.0322198867797852,-1.2818396091461182,0
0.1765153408050537,0.27634525299072266,-2.537193775177002,0
1.0066518783569336,-0.22791004180908203,-3.5083112716674805,0
1.5325261354446411,-0.5406379699707031,-4.248828887939453,0
1.7495882511138916,-0.7316827774047852,-4.7093963623046875,0
1.5936590433120728,-0.7106971740722656,-4.999083995819092,0
1.3163355588912964,-0.6241884231567383,-5.1944990158081055,0
1.0185365676879883,-0.5251951217651367,-5.151376247406006,0
0.7029488682746887,-0.442718505859375,-4.881201267242432,0
0.35786494612693787,-0.3913145065307617,-4.486688137054443,0
0.08893930912017822,-0.42136478424072266,-3.926820755004883,0
0.16252559423446655,-0.6429910659790039,-2.815207004547119,0
0.2853552997112274,-0.9341964721679688,-1.4927735328674316,0
0.5255782008171082,-1.280592918395996,-0.3228095769882202,0
0.6711069941520691,-1.6245946884155273,0.5164054036140442,0
0.7773669958114624,-2.083097457885742,1.1029977798461914,0
0.8346300721168518,-2.435614585876465,1.3957343101501465,0
0.8114476799964905,-2.701064109802246,1.495714545249939,0
0.4890400767326355,-2.9032979011535645,1.558711290359497,0
0.045347392559051514,-2.8654685020446777,1.520818829536438,0
-0.37486106157302856,-2.6573290824890137,1.2832742929458618,0
-0.6259769201278687,-2.2529282569885254,0.9717767238616943,0
-0.5949043035507202,-1.7291250228881836,0.7577019929885864,0
-0.4746730923652649,-1.2965583801269531,0.6156960725784302,0
-0.5640901327133179,-0.8212728500366211,0.5559914112091064,0
-0.5782945156097412,-0.32247447967529297,0.4202079772949219,0
-0.5267621874809265,-0.12057876586914062,0.20958711206912994,0
-0.3545154929161072,-0.06454753875732422,-0.008236270397901535,0
-0.2385815978050232,-0.1732940673828125,-0.1853097677230835,0
-0.07120150327682495,-0.18355369567871094,-0.32954010367393494,0
0.1887805461883545,-0.20537948608398438,-0.4249849319458008,0
0.5103508234024048,-0.29372406005859375,-0.3311169743537903,0
0.7404489517211914,-0.38393402099609375,-0.07471571862697601,0
0.9604082107543945,-0.5238313674926758,0.14761143922805786,0
1.0526728630065918,-0.6607894897460938,0.3402771055698395,0
1.2060333490371704,-0.713557243347168,0.4072205126285553,0
1.3486281633377075,-0.7707357406616211,0.525078535079956,0
1.4040796756744385,-0.6147327423095703,0.6792831420898438,0
1.5305339097976685,-0.5446910858154297,0.8960131406784058,0
1.630279541015625,-0.46003246307373047,1.1442880630493164,0
1.5791798830032349,-0.3105201721191406,1.436362385749817,0
1.5087051391601562,-0.010155677795410156,1.7198421955108643,0
1.3634653091430664,0.29019927978515625,1.9972182512283325,0
1.2002490758895874,0.5211210250854492,2.208531141281128,0
0.9966520071029663,0.7231979370117188,2.3988003730773926,0
0.7756988406181335,0.8101892471313477,2.4283783435821533,0
0.6203413009643555,0.8465738296508789,2.2316155433654785,0
0.5685405135154724,0.7581691741943359,1.93002188205719,0
0.5841647982597351,0.5928945541381836,1.506982445716858,0
0.7078897356987,0.44409751892089844,1.0322824716567993,0
0.9495581388473511,0.23772621154785156,0.6574267745018005,0
1.2660948038101196,0.1891155242919922,0.4524855315685272,0
1.5492900609970093,0.1880636215209961,0.5904470682144165,0
1.7817440032958984,0.1698589324951172,0.9207012057304382,0
2.2071778774261475,0.18466567993164062,1.2730165719985962,0
2.700829029083252,0.24670886993408203,1.613412857055664,0
3.118931770324707,0.41800880432128906,1.7858954668045044,0
3.509171485900879,0.6290225982666016,1.7043143510818481,0
3.7328896522521973,0.7601480484008789,1.3451263904571533,0
4.005757808685303,0.8067846298217773,0.948305070400238,0
4.1365766525268555,0.7547664642333984,0.6436564922332764,0
4.118468284606934,0.7190418243408203,0.3453558087348938,0
4.16490364074707,0.7139968872070312,-0.08090794086456299,0
4.106935024261475,0.8879709243774414,-0.4465629458427429,0
3.9953982830047607,1.1666975021362305,-0.5198919177055359,0
3.847621440887451,1.5764522552490234,-0.3705655336380005,0
3.520024538040161,2.112295150756836,0.018105268478393555,0
3.067298412322998,2.680713653564453,0.3436683714389801,0
2.6853456497192383,3.1452369689941406,0.40029439330101013,0
2.2395379543304443,3.4484338760375977,0.30643999576568604,0
1.9157352447509766,3.5641002655029297,0.19458068907260895,0
1.8398956060409546,3.5117053985595703,0.13874146342277527,0
1.7985432147979736,3.3396120071411133,0.07387946546077728,0
1.9371743202209473,3.081899642944336,0.3153223395347595,0
1.941636085510254,2.650589942932129,0.8590949773788452,0
1.2726622819900513,2.33780574798584,1.5594589710235596,0
0.06330418586730957,2.2033090591430664,2.211639642715454,0
-1.1842467784881592,2.2017955780029297,2.755131483078003,0
-2.1270337104797363,2.3290109634399414,3.075791358947754,0
-2.789217948913574,2.4829511642456055,3.1339311599731445,0
-3.3356430530548096,2.772144317626953,3.082657814025879,0
-3.6628246307373047,2.998721122741699,2.9476001262664795,0
-3.7346270084381104,3.1249313354492188,2.7339234352111816,0
-3.769376754760742,3.15566349029541,2.3782105445861816,0
-3.792407274246216,3.131232261657715,1.982481837272644,0
-3.657644271850586,3.1083812713623047,1.5452550649642944,0
-3.4777779579162598,2.964383125305176,0.9828376770019531,0
-3.313567876815796,2.839655876159668,0.33277392387390137,0
-3.4438037872314453,2.9484901428222656,-0.312572717666626,0
-3.676722526550293,3.158108711242676,-0.9495466947555542,0
-3.868267297744751,3.4745588302612305,-1.572078824043274,0
-4.305200099945068,3.803316116333008,-2.317294120788574,0
-4.736227035522461,4.0547895431518555,-2.9278714656829834,0
-4.859831809997559,4.395454406738281,-3.2665722370147705,0
-4.3995866775512695,4.7505645751953125,-3.178227424621582,0
-3.797743797302246,4.749575614929199,-3.1236484050750732,0
-3.2213478088378906,4.694620132446289,-3.1500346660614014,0
-2.522927761077881,4.6177568435668945,-3.0666580200195312,0
-1.7181326150894165,3.97088623046875,-3.1108551025390625,0
-0.9459048509597778,3.045945167541504,-3.232412338256836,0
-0.16471992433071136,2.2825212478637695,-3.258209466934204,0
0.5481071472167969,1.6745615005493164,-3.2820053100585938,0
1.283001184463501,1.1339826583862305,-3.0032317638397217,0
1.9891321659088135,0.8327970504760742,-2.5002734661102295,0
2.571903705596924,0.585942268371582,-1.7329185009002686,0
3.144655704498291,0.41379642486572266,-0.8682432174682617,0
3.55796480178833,0.28145408630371094,-0.03462815284729004,0
3.897345781326294,0.15635299682617188,0.6489875316619873,0
3.9616506099700928,-0.034564971923828125,1.067847728729248,0
3.9429914951324463,-0.112762451171875,1.081955909729004,0
3.5522079467773438,-0.29897499084472656,0.8855156898498535,0
2.692105293273926,-0.4879636764526367,0.5569639205932617,0
1.6997721195220947,-0.6794929504394531,0.1384115219116211,0
0.9241465330123901,-0.873316764831543,-0.25387001037597656,0
0.29974955320358276,-1.047764778137207,-0.694615364074707,0
-0.36419349908828735,-1.0209317207336426,-1.0812852382659912,0
-0.7678138017654419,-1.8734865188598633,-1.4169416427612305,0
-0.9935865998268127,-2.0953617095947266,-1.809540033340454,0
-1.261836051940918,-2.4857687950134277,-2.292959213256836,0
-1.4134581089019775,-2.910472869873047,-2.697350025177002,0
-1.4481747150421143,-3.2545032501220703,-3.0633623600006104,0
-1.4447904825210571,-3.6424307823181152,-3.266010284423828,0
-1.3708128929138184,-3.789790630340576,-3.4987545013427734,0
-1.2990304231643677,-4.029450416564941,-3.7083940505981445,0
-1.3594216108322144,-4.303837299346924,-3.9547228813171387,0
-1.28153657913208,-4.366628170013428,-4.216209888458252,0
-1.332930088043213,-4.5792036056518555,-4.34456729888916,0
