AccX,AccY,AccZ,stepCount
-3.320497989654541,1.055069923400879,0.4765249490737915,5.826623439788818
-3.4244868755340576,1.4352388381958008,0.6196193099021912,2.168077230453491
-3.273608684539795,1.6338262557983398,0.6615902185440063,5.552684783935547
-2.9965171813964844,1.7244672775268555,0.5306012630462646,-0.8801252841949463
-2.6420366764068604,1.5891399383544922,0.3482329845428467,5.133768558502197
-2.4403433799743652,1.4852848052978516,0.05069231986999512,-1.8930885791778564
-2.3525829315185547,1.522049903869629,-0.4637751579284668,5.551627159118652
-2.312267303466797,1.763498306274414,-1.1842433214187622,-2.974839925765991
-2.1030619144439697,2.008665084838867,-1.9815399646759033,6.093976974487305
-1.8374152183532715,2.3176498413085938,-2.8295738697052,-2.318268299102783
-1.5123175382614136,2.6192216873168945,-3.667086601257324,-1.6909104585647583
-1.1775304079055786,2.9115381240844727,-4.114349842071533,-0.7245342135429382
-0.9115280508995056,3.2859020233154297,-4.504007339477539,-0.24561846256256104
-0.5462818741798401,3.493864059448242,-4.840015411376953,1.3597867488861084
-0.3813915252685547,3.645869255065918,-4.932287216186523,0
-0.1250799596309662,3.8164377212524414,-4.660368919372559,0
0.15843898057937622,4.068117141723633,-4.05684757232666,0
0.5827277898788452,4.269733428955078,-3.2112772464752197,0
0.770889401435852,4.096529006958008,-2.401317834854126,0
1.2129862308502197,4.079789161682129,-1.4705065488815308,0
1.5916765928268433,3.8029556274414062,-0.6394155025482178,0
1.8834311962127686,3.368496894836426,0.14484691619873047,0
2.152545928955078,2.8233747482299805,0.7682087421417236,0
2.268094539642334,2.324146270751953,1.2077867984771729,0
2.2097373008728027,1.9579353332519531,1.3680789470672607,0
1.9737815856933594,1.549036979675293,1.2506639957427979,0
1.8049523830413818,1.1973028182983398,0.9517059326171875,0
1.5762598514556885,0.8591270446777344,0.4499232769012451,0
1.412867546081543,0.5774517059326172,-0.18333101272583008,0
1.3038194179534912,0.2615776062011719,-0.8578886985778809,0
1.1868529319763184,-0.054520606994628906,-1.4767320156097412,0
1.0761845111846924,-0.38472557067871094,-2.024122476577759,0
0.9690521955490112,-0.7023515701293945,-2.409977436065674,0
0.8368450999259949,-1.0310368537902832,-2.725907564163208,0
0.6995392441749573,-1.317960262298584,-2.972468137741089,0
0.40289196372032166,-1.548598289489746,-3.1813888549804688,0
0.08057911694049835,-1.789780616760254,-3.4464707374572754,0
-0.3222407400608063,-1.9481096267700195,-3.7035021781921387,0
-0.8339071273803711,-2.0688962936401367,-4.008053302764893,0
-1.4158105850219727,-2.1661977767944336,-4.377569675445557,0
-1.9694222211837769,-2.280355453491211,-4.848568439483643,0
-2.4634993076324463,-2.3584213256835938,-5.321194171905518,0
-2.946157693862915,-2.402534008026123,-5.690868854522705,0
-3.3005282878875732,-2.5008935928344727,-6.046823501586914,0
-3.5629444122314453,-2.598140239715576,-6.33229398727417,0
-3.7410740852355957,-2.69888973236084,-6.502284526824951,0
-4.048765182495117,-2.779094696044922,-6.607433319091797,0
-4.249964237213135,-2.9127984046936035,-6.612170219421387,0
-4.481791973114014,-3.0736536979675293,-6.538104057312012,0
-4.402318477630615,-3.2499141693115234,-6.337028503417969,0
-4.04918098449707,-3.4541640281677246,-5.799808502197266,0
-3.644000768661499,-3.586719036102295,-5.150135040283203,0
-3.195659637451172,-3.7106289863586426,-4.456009387969971,0
-2.8066511154174805,-3.795508861541748,-3.7568984031677246,0
-2.4481425285339355,-3.9211225509643555,-3.0370304584503174,0
-2.197021007537842,-4.071418285369873,-2.4123241901397705,0
-1.9121263027191162,-4.330745697021484,-1.8312404155731201,0
-1.7819815874099731,-4.637411117553711,-1.342850685119629,0
-1.693060040473938,-4.972692012786865,-1.0178909301757812,0
-1.667864441871643,-5.324751853942871,-0.8151357173919678,0
-1.6334575414657593,-5.688841819763184,-0.6863644123077393,0
-1.6918339729309082,-5.99791955947876,-0.6003298759460449,0
-1.8452483415603638,-6.199315071105957,-0.5808596611022949,0
-2.022198438644409,-6.314497470855713,-0.5537378787994385,0
-2.266939163208008,-6.259753227233887,-0.5044517517089844,0
-2.479825019836426,-6.240455150604248,-0.4788374900817871,0
-2.6853179931640625,-6.236799716949463,-0.4942612648010254,0
-2.835911273956299,-6.097328186035156,-0.49909472465515137,0
-2.929102659225464,-5.864322662353516,-0.5281863212585449,0
-2.928570032119751,-5.553716659545898,-0.5160205364227295,0
-2.7565126419067383,-5.10474157333374,-0.6009440422058105,0
-2.531644821166992,-4.253938674926758,-0.5233702659606934,0
-2.320167064666748,-3.3671302795410156,-0.38259053230285645,0
-1.9324417114257812,-2.1615724563598633,-0.16348028182983398,0
-1.713009238243103,-0.6871728897094727,0.0864863395690918,0
-1.2376409769058228,1.0899648666381836,0.5967373847961426,0
-0.7257951498031616,3.4116220474243164,1.1992125511169434,0
-0.007474496960639954,5.682216644287109,2.017882823944092,0
0.6133484840393066,8.480727195739746,3.0120553970336914,0
1.3107662200927734,11.297393798828125,4.234698295593262,0
2.1380615234375,13.893485069274902,5.238638877868652,0
2.977874994277954,15.645552635192871,5.881478786468506,0
4.11632776260376,16.301300048828125,6.313885688781738,0
4.91764497756958,14.398292541503906,6.401524543762207,0
4.136662006378174,10.316588401794434,6.293819427490234,0
3.0560309886932373,6.884007453918457,6.147927284240723,0
2.4904229640960693,4.50465202331543,6.08624267578125,0
2.236300230026245,2.89556884765625,5.973590850830078,0
2.0909929275512695,1.7957334518432617,5.688848495483398,0
2.0181288719177246,0.8971338272094727,5.236042499542236,0
1.953622817993164,0.12475204467773438,4.63380241394043,0
1.7025014162063599,-0.5143318176269531,3.9703426361083984,0
1.2486627101898193,-1.0460567474365234,3.277430772781372,0
0.596099317073822,-1.3647971153259277,2.6753058433532715,0
-0.1286429911851883,-1.5087122917175293,2.1174252033233643,0
-0.9151800870895386,-1.441976547241211,1.4241657257080078,0
-1.6863950490951538,-1.093266487121582,0.6013772487640381,0
-2.3141469955444336,-0.3245105743408203,-0.2895810604095459,0
-2.885348081588745,0.7343711853027344,-1.3808050155639648,0
-3.3813021183013916,1.6547183990478516,-2.6723344326019287,0
-3.934070587158203,2.255099296569824,-4.165132522583008,0
-4.844191074371338,2.221376419067383,-6.0450639724731445,0
-5.7882561683654785,2.1752243041992188,-7.675037384033203,0
-6.782210826873779,2.584843635559082,-8.715291976928711,0
-7.818954944610596,3.38580322265625,-9.393096923828125,0
-8.289003372192383,4.858919143676758,-9.741909980773926,0
-7.811466217041016,5.770963668823242,-8.941608428955078,0
-5.74962854385376,4.711790084838867,-6.267346382141113,0
-3.092989921569824,2.3809986114501953,-2.8624496459960938,0
-0.8186522126197815,0.12833023071289062,0.08351969718933105,0
1.0450923442840576,-1.8596882820129395,2.1685941219329834,0
2.3361754417419434,-3.625636100769043,2.9780850410461426,0
3.072237491607666,-5.117984294891357,2.400056838989258,0
3.228152275085449,-6.262988567352295,0.819216251373291,0
2.986353635787964,-7.000776290893555,-1.1600314378738403,0
2.5018837451934814,-7.297544956207275,-3.1001534461975098,0
1.760417103767395,-7.229387283325195,-4.650794506072998,0
0.8656214475631714,-6.812553882598877,-5.67254638671875,0
0.16707277297973633,-6.338441371917725,-6.221790790557861,0
-0.24619102478027344,-5.550715446472168,-6.483449459075928,0
-0.6272450685501099,-4.406322002410889,-6.6300578117370605,0
-1.100176215171814,-2.7858943939208984,-6.721386909484863,0
-1.7104084491729736,-0.7138195037841797,-6.7500834465026855,0
-2.4194090366363525,1.1184091567993164,-7.149360656738281,0
-2.7577598094940186,2.919131278991699,-7.11782693862915,0
-2.579058885574341,4.592676162719727,-6.029230117797852,0
-1.7485991716384888,5.887928009033203,-3.9595401287078857,0
-0.5019721984863281,6.505997657775879,-1.586653709411621,0
0.7471293807029724,6.140903472900391,0.5856283903121948,0
1.8609836101531982,5.151665687561035,2.270808696746826,0
2.4462740421295166,3.951944351196289,3.165313243865967,0
2.6717429161071777,2.794896125793457,3.143509864807129,0
2.5957753658294678,1.9264726638793945,2.458249807357788,0
2.4153566360473633,1.3272590637207031,1.4651604890823364,0
2.0665245056152344,1.0403709411621094,0.2733798027038574,0
1.4823756217956543,0.8365001678466797,-0.9262619018554688,0
0.949981689453125,0.5320863723754883,-1.9629466533660889,0
0.6132790446281433,0.2689523696899414,-2.7022557258605957,0
0.5042446851730347,-0.06241607666015625,-3.165550708770752,0
0.5429345369338989,-0.48548316955566406,-3.2879552841186523,0
0.47688519954681396,-0.9330329895019531,-3.154743194580078,0
0.34533315896987915,-1.4767951965332031,-2.792670488357544,0
0.25460705161094666,-1.9613533020019531,-2.167663812637329,0
0.1118512898683548,-2.394165515899658,-1.444977045059204,0
-0.0612148642539978,-2.6392412185668945,-0.8239075541496277,0
-0.12060177326202393,-2.677903175354004,-0.339700311422348,0
-0.03241467475891113,-2.529717445373535,0.01123267412185669,0
0.06008224934339523,-2.4676475524902344,0.25401437282562256,0
0.137857124209404,-2.391249656677246,0.39135774970054626,0
0.17668475210666656,-2.293405532836914,0.3937950134277344,0
0.11633603274822235,-2.176516532897949,0.3189890384674072,0
-0.015256345272064209,-2.021432876586914,0.19245107471942902,0
-0.1858215481042862,-1.8305583000183105,0.04874570667743683,0
-0.28638511896133423,-1.6015253067016602,-0.08486706763505936,0
-0.403677374124527,-1.3989362716674805,-0.19281458854675293,0
-0.4950529932975769,-1.1582107543945312,-0.22553491592407227,0
-0.4719282388687134,-0.9630985260009766,-0.23568525910377502,0
-0.37716811895370483,-0.9235410690307617,-0.19887970387935638,0
-0.35923078656196594,-0.551569938659668,-0.18941256403923035,0
-0.3920571208000183,-0.16324329376220703,-0.16416700184345245,0
-0.23904596269130707,0.10750579833984375,-0.12283691763877869,0
-0.1660228818655014,0.3086404800415039,-0.11501257121562958,0
0.035183027386665344,0.3135337829589844,-0.06101745367050171,0
0.14223945140838623,0.19658470153808594,-0.03165261447429657,0
0.4091738164424896,0.017763137817382812,-0.007240325212478638,0
0.6353310346603394,-0.2778167724609375,-0.023614823818206787,0
0.8808077573776245,-0.6086807250976562,-0.004315674304962158,0
1.105401635169983,-0.9173679351806641,0.11017963290214539,0
1.3407138586044312,-1.2110567092895508,0.19259856641292572,0
1.505875587463379,-1.4897565841674805,0.29033374786376953,0
1.7809460163116455,-1.681741714477539,0.4506586194038391,0
2.008270502090454,-1.870811939239502,0.6013500690460205,0
2.0156688690185547,-1.9900150299072266,0.7423058748245239,0
2.0020065307617188,-1.9605169296264648,1.0050990581512451,0
2.087202548980713,-1.9809331893920898,1.2605552673339844,0
2.0966579914093018,-1.6279335021972656,1.4850752353668213,0
1.5534989833831787,-0.9474163055419922,1.7314832210540771,0
0.8252447247505188,-0.19327354431152344,1.937635898590088,0
0.3585270941257477,0.3522186279296875,2.050762176513672,0
0.10062792897224426,0.6653938293457031,2.130383014678955,0
-0.03193342685699463,0.8301887512207031,2.080132007598877,0
-0.005210906267166138,0.7439289093017578,1.9711754322052002,0
0.030217289924621582,0.6053037643432617,1.8074012994766235,0
-0.08131265640258789,0.4333620071411133,1.6642920970916748,0
-0.14654570817947388,0.34993934631347656,1.6103241443634033,0
-0.19718235731124878,0.3882331848144531,1.6493103504180908,0
-0.1335274577140808,0.5096902847290039,1.8261053562164307,0
-0.006444394588470459,0.6854162216186523,2.157135009765625,0
0.19037771224975586,0.9176368713378906,2.5274505615234375,0
0.5586051940917969,1.220503807067871,2.8102571964263916,0
1.0730321407318115,1.677581787109375,3.073289632797241,0
1.6319940090179443,2.2910757064819336,3.1263504028320312,0
2.208521842956543,2.745303153991699,3.055213451385498,0
2.6965856552124023,3.138566017150879,2.600684642791748,0
2.9691171646118164,3.1075286865234375,1.7830932140350342,0
3.230034351348877,2.784341812133789,1.0841073989868164,0
3.4202685356140137,2.296177864074707,0.3553512692451477,0
3.65803861618042,1.863286018371582,-0.2934955358505249,0
3.8747060298919678,1.5429868698120117,-0.8203134536743164,0
3.9821650981903076,1.4211797714233398,-1.1376551389694214,0
4.198660850524902,1.4784660339355469,-1.1486352682113647,0
4.46250581741333,1.7122116088867188,-0.8402230739593506,0
4.779167175292969,2.072002410888672,-0.05566263198852539,0
5.2816948890686035,2.615182876586914,1.0416840314865112,0
5.768476963043213,3.3177757263183594,2.2604293823242188,0
6.019021034240723,3.8808469772338867,3.2996349334716797,0
6.128387451171875,4.24489688873291,3.889699935913086,0
5.925269603729248,4.336042404174805,3.7870078086853027,0
5.371282577514648,4.180834770202637,3.137458086013794,0
4.755276203155518,3.8512563705444336,2.2615044116973877,0
3.838477849960327,3.6343889236450195,1.3454067707061768,0
2.335782766342163,3.525200843811035,0.5962424278259277,0
0.9862121939659119,3.4158992767333984,0.08198487758636475,0
-0.05168980360031128,3.1678428649902344,-0.2348814606666565,0
-0.7802850008010864,2.781381607055664,-0.45403069257736206,0
-1.334365725517273,2.3167552947998047,-0.4981038570404053,0
-1.6900660991668701,1.8892297744750977,-0.37801462411880493,0
-2.0552968978881836,1.5972681045532227,-0.19971880316734314,0
-2.494917154312134,1.539250373840332,0.1662704199552536,0
-2.8733069896698,1.6890926361083984,0.49654024839401245,0
-3.1845080852508545,1.9250144958496094,0.8055967092514038,0
-3.296466827392578,2.0630664825439453,0.9506103992462158,0
-3.245119333267212,2.0006179809570312,0.9162073135375977,0
-3.1179511547088623,1.797471046447754,0.8024582862854004,0
-3.1073734760284424,1.5344743728637695,0.6383428573608398,0
-3.0505290031433105,1.2752389907836914,0.4436701536178589,0
-3.0375795364379883,1.1884326934814453,0.21966636180877686,0
-3.0304510593414307,1.3472347259521484,-0.22473382949829102,0
-2.9540905952453613,1.6267852783203125,-0.8918506503105164,0
-2.9210739135742188,1.9506864547729492,-1.7354140281677246,0
-2.7436745166778564,2.164048194885254,-2.5614194869995117,0
-2.4251513481140137,2.3227243423461914,-3.390949249267578,0
-1.733208179473877,2.3605690002441406,-4.2083659172058105,0
-0.9999503493309021,2.2974748611450195,-4.676530838012695,0
-0.3959640860557556,2.306070327758789,-4.849298477172852,0
0.008309029042720795,2.2931880950927734,-4.836915969848633,0
0.34501728415489197,2.242177963256836,-4.6629438400268555,0
0.6689135432243347,2.1196775436401367,-4.41075325012207,0
0.9096407890319824,2.0000429153442383,-3.9487175941467285,0
1.0412949323654175,1.9171371459960938,-3.368584394454956,0
1.2484186887741089,1.7373437881469727,-2.687363862991333,0
1.4990228414535522,1.6951217651367188,-1.8944740295410156,0
1.75092351436615,1.655893325805664,-1.0663645267486572,0
1.9607822895050049,1.5948190689086914,-0.2954528331756592,0
2.116459369659424,1.534646987915039,0.3738670349121094,0
2.163184642791748,1.4548063278198242,0.8565526008605957,0
2.1373116970062256,1.4112043380737305,1.0958621501922607,0
2.031867742538452,1.333226203918457,1.0937504768371582,0
1.9133599996566772,1.203420639038086,0.8006865978240967,0
1.6585569381713867,1.0360736846923828,0.2471144199371338,0
1.3845698833465576,0.7480039596557617,-0.43709421157836914,0
1.078070878982544,0.4070301055908203,-1.1773791313171387,0
0.7462708950042725,0.02600574493408203,-1.8680651187896729,0
0.45088905096054077,-0.2769889831542969,-2.558920383453369,0
0.14802807569503784,-0.6136646270751953,-3.165426731109619,0
-0.14858268201351166,-0.9260177612304688,-3.6984024047851562,0
-0.4868379533290863,-1.2782745361328125,-4.132369518280029,0
-0.8298335075378418,-1.5866060256958008,-4.472448348999023,0
-1.1440685987472534,-1.9373102188110352,-4.656324863433838,0
-1.459913730621338,-2.2443485260009766,-4.822783946990967,0
-1.907848596572876,-2.526890754699707,-5.065237998962402,0
-2.362504243850708,-2.79911470413208,-5.333866119384766,0
-2.8111181259155273,-3.0536599159240723,-5.590839385986328,0
-3.348839282989502,-3.2044124603271484,-5.774118423461914,0
-3.7362418174743652,-3.3016839027404785,-5.859928607940674,0
-4.098021507263184,-3.271526336669922,-5.797921657562256,0
-4.396557807922363,-3.2099766731262207,-5.6093010902404785,0
-4.704578399658203,-3.119788646697998,-5.331826686859131,0
-4.672853469848633,-3.0014805793762207,-4.969470977783203,0
-4.317162036895752,-2.9369516372680664,-4.597848892211914,0
-3.825976848602295,-2.9051599502563477,-4.161035060882568,0
-3.345355272293091,-2.8683228492736816,-3.6247670650482178,0
-2.8948750495910645,-2.898615837097168,-3.1414859294891357,0
-2.467890977859497,-2.9939160346984863,-2.736875534057617,0
-2.069535732269287,-3.135347366333008,-2.4103145599365234,0
-1.7741234302520752,-3.3136115074157715,-2.1372714042663574,0
-1.5692498683929443,-3.6006689071655273,-1.9339749813079834,0
-1.3992143869400024,-3.95833158493042,-1.7975997924804688,0
-1.2296810150146484,-4.369819164276123,-1.7232048511505127,0
-1.1170027256011963,-4.873239517211914,-1.6941003799438477,0
-1.091286063194275,-5.39896297454834,-1.6817986965179443,0
-1.0152738094329834,-5.889407634735107,-1.6243319511413574,0
-1.0747261047363281,-6.287143707275391,-1.5265717506408691,0
-1.1850298643112183,-6.589887619018555,-1.366896629333496,0
-1.3746026754379272,-6.7762956619262695,-1.1450204849243164,0
-1.7677377462387085,-6.889618873596191,-0.8653340339660645,0
-2.1276028156280518,-6.910813331604004,-0.6064047813415527,0
-2.5212514400482178,-6.945072174072266,-0.3464369773864746,0
-2.8889989852905273,-6.934698104858398,-0.08544063568115234,0
-3.243271589279175,-6.731262683868408,0.19828510284423828,0
-3.3462839126586914,-6.2916741371154785,0.4737725257873535,0
-3.1101646423339844,-5.6778645515441895,0.7549962997436523,0
-3.2029242515563965,-5.028074264526367,0.8929874897003174,0
-3.017632484436035,-4.0188798904418945,1.1287028789520264,0
-2.5332212448120117,-2.711942195892334,1.3218204975128174,0
-2.083648681640625,-1.0490388870239258,1.4651217460632324,0
-1.5706396102905273,0.9803314208984375,1.681833267211914,0
-0.8138585090637207,3.288424491882324,1.999025821685791,0
-0.3541071116924286,6.320496559143066,2.5825812816619873,0
0.06353174149990082,9.937551498413086,3.3951728343963623,0
0.5629921555519104,13.914789199829102,4.429862976074219,0
1.1712071895599365,17.26309585571289,4.950716972351074,0
1.693476676940918,19.169387817382812,4.853055000305176,0
2.0322859287261963,19.979736328125,5.31747579574585,0
1.8402379751205444,18.31396484375,6.37525749206543,0
1.1423112154006958,13.257331848144531,6.820274353027344,0
0.8810237646102905,8.36053466796875,7.0286736488342285,0
0.9451737403869629,4.879182815551758,7.1227617263793945,0
1.1898273229599,2.4726181030273438,6.932344436645508,0
1.536677598953247,0.8656139373779297,6.41728401184082,0
1.904179334640503,0.030188560485839844,5.566285133361816,0
2.0463531017303467,-0.34795284271240234,4.590646743774414,0
1.9988347291946411,-0.2884492874145508,3.616894006729126,0
1.7429436445236206,0.01672077178955078,2.5040414333343506,0
1.262784481048584,0.5498113632202148,1.2852516174316406,0
0.5988795161247253,1.3620290756225586,-0.16501069068908691,0
-0.13385841250419617,2.160215377807617,-1.9118788242340088,0
-0.9597271680831909,2.4463624954223633,-3.9086060523986816,0
-1.6828986406326294,2.0325117111206055,-6.151479244232178,0
-2.4213223457336426,1.2941474914550781,-8.22694206237793,0
-3.2220654487609863,0.4134101867675781,-9.858882904052734,0
-4.347177028656006,-0.5259485244750977,-10.807886123657227,0
-5.89508581161499,-1.4237394332885742,-10.85474681854248,0
-7.183104038238525,-1.9614477157592773,-10.320632934570312,0
-7.6645050048828125,-2.1772475242614746,-8.980847358703613,0
-6.238855838775635,-2.334710121154785,-6.736484527587891,0
-3.577343702316284,-2.567885398864746,-4.160927772521973,0
-0.45776867866516113,-2.7692203521728516,-2.0895485877990723,0
1.979385256767273,-2.9094276428222656,-0.7500534653663635,0
3.269904851913452,-3.085339069366455,-0.03568446636199951,0
3.791682720184326,-3.3571720123291016,0.040169715881347656,0
3.6875648498535156,-3.636260986328125,-0.4283384084701538,0
3.170724391937256,-3.9078478813171387,-1.178971767425537,0
2.437106132507324,-4.063927173614502,-1.8399317264556885,0
1.712166428565979,-4.190402984619141,-2.496281147003174,0
1.1023441553115845,-4.160480499267578,-2.801455497741699,0
0.49139031767845154,-3.670743942260742,-2.7527527809143066,0
-0.1988595724105835,-3.0255279541015625,-2.57696795463562,0
-0.9745280742645264,-2.0220298767089844,-2.186598777770996,0
-1.8491036891937256,-0.8451356887817383,-1.7115967273712158,0
-2.752699136734009,0.6217336654663086,-1.3582329750061035,0
-3.6827194690704346,2.306075096130371,-0.9810600280761719,0
-4.509860992431641,3.745758056640625,-0.8201211094856262,0
-4.711392402648926,4.866579055786133,-0.5193378925323486,0
-4.046074867248535,5.422385215759277,-0.05314910411834717,0
-2.784176826477051,5.158064842224121,0.2487567663192749,0
-1.2408597469329834,4.094120979309082,0.17490935325622559,0
0.11154285073280334,2.8967971801757812,-0.22388625144958496,0
1.0878318548202515,1.896718978881836,-0.7774503231048584,0
1.528624176979065,1.282914161682129,-1.4423128366470337,0
1.6689972877502441,0.9475612640380859,-2.2272133827209473,0
1.6072049140930176,0.7733154296875,-3.1189723014831543,0
1.4153516292572021,0.6811637878417969,-3.9772450923919678,0
1.2946863174438477,0.5443363189697266,-4.702255725860596,0
1.2072736024856567,0.42746543884277344,-5.177316665649414,0
1.2012057304382324,0.13686847686767578,-5.451016426086426,0
1.2194236516952515,-0.22442245483398438,-5.390091419219971,0
1.2409964799880981,-0.6085052490234375,-5.138756275177002,0
1.3384616374969482,-1.1301584243774414,-4.556275844573975,0
1.404776692390442,-1.8012008666992188,-3.7413530349731445,0
1.5389504432678223,-2.583223342895508,-2.6063232421875,0
1.6007106304168701,-3.3183274269104004,-1.293104887008667,0
1.5479251146316528,-3.970780849456787,0.15732690691947937,0
1.465662956237793,-4.418829441070557,1.4800829887390137,0
1.2114627361297607,-4.332854270935059,2.4882144927978516,0
0.7745164036750793,-3.873806953430176,3.122359275817871,0
0.4018002152442932,-3.0182862281799316,3.2944183349609375,0
-0.07948752492666245,-1.9939370155334473,3.0662925243377686,0
-0.5797920823097229,-1.102203369140625,2.458008050918579,0
-1.137062907218933,-0.5150251388549805,1.6724698543548584,0
-1.437528371810913,-0.13872718811035156,0.8039980530738831,0
-1.4057035446166992,-0.049546241760253906,0.021010644733905792,0
-1.18048095703125,-0.15865707397460938,-0.5799866914749146,0
-1.1495814323425293,0.02910137176513672,-0.9459607601165771,0
-0.9707121253013611,0.30765342712402344,-1.0665730237960815,0
-0.8206957578659058,0.3372812271118164,-0.9858019351959229,0
-0.6731572151184082,0.3908214569091797,-0.7637405395507812,0
-0.5664888620376587,0.37495994567871094,-0.41194263100624084,0
-0.4124171733856201,0.057845115661621094,-0.041820913553237915,0
-0.34032678604125977,-0.22297382354736328,0.26667848229408264,0
-0.003267720341682434,-0.4340076446533203,0.5988346934318542,0
0.2948862314224243,-0.7809123992919922,0.9033735990524292,0
0.530517041683197,-0.9502134323120117,1.0402178764343262,0
0.8119373917579651,-1.0855188369750977,1.1561118364334106,0
1.0990077257156372,-1.0026941299438477,1.2035424709320068,0
1.2845615148544312,-1.1658439636230469,1.1464850902557373,0
1.5461242198944092,-1.4096660614013672,1.1206097602844238,0
1.7932236194610596,-1.63604736328125,1.141539216041565,0
2.0289113521575928,-1.7278766632080078,1.1794500350952148,0
2.2846314907073975,-1.7786426544189453,1.357460618019104,0
2.400266647338867,-1.5971927642822266,1.604886531829834,0
2.4191465377807617,-1.0332307815551758,1.9473185539245605,0
2.195155382156372,-0.22835159301757812,2.370018720626831,0
1.6269463300704956,0.40819263458251953,2.753203868865967,0
0.9909921884536743,0.7211208343505859,3.068251609802246,0
0.5043238401412964,0.7299337387084961,3.200653076171875,0
0.2382812201976776,0.5975856781005859,3.1339993476867676,0
0.1566561460494995,0.3122701644897461,3.0047831535339355,0
0.13231974840164185,0.3666677474975586,2.831754684448242,0
0.14051014184951782,0.26525402069091797,2.786536931991577,0
0.2663500905036926,0.31180572509765625,2.9287924766540527,0
0.3916643261909485,1.278416633605957,3.2611589431762695,0
0.714020848274231,1.7243986129760742,3.314868688583374,0
1.3280768394470215,1.9779129028320312,3.303293228149414,0
1.8736510276794434,2.4527387619018555,2.9061951637268066,0
2.5027875900268555,2.871100425720215,2.181318759918213,0
3.013298988342285,3.0679550170898438,1.4016166925430298,0
3.510241746902466,2.9527406692504883,0.7014834880828857,0
3.9008383750915527,2.6335439682006836,0.12176871299743652,0
4.265157699584961,2.1179418563842773,-0.31117260456085205,0
4.638143539428711,1.6239185333251953,-0.5929276943206787,0
4.997292995452881,1.2998018264770508,-0.7505131959915161,0
5.264654159545898,1.2386760711669922,-0.7489829659461975,0
5.441084861755371,1.4044036865234375,-0.48146891593933105,0
5.616072177886963,1.921102523803711,0.03201550245285034,0
5.826623439788818,2.7477407455444336,0.6181662082672119,0
5.858531951904297,3.5539979934692383,1.0486787557601929,0
5.830365180969238,4.146267890930176,1.2221407890319824,0
5.793466091156006,4.455565452575684,1.1905882358551025,0
5.454294204711914,4.413052558898926,1.0306618213653564,0
5.054619789123535,4.136503219604492,0.9483630657196045,0
4.258538246154785,3.7626638412475586,0.9466183185577393,0
2.596468210220337,3.5523624420166016,1.018511414527893,0
0.9460353255271912,3.2974796295166016,1.177907943725586,0
-0.447457492351532,2.9385366439819336,1.3568412065505981,0
-1.5687350034713745,2.6768970489501953,1.6597744226455688,0
-2.365034580230713,2.598994255065918,1.9978293180465698,0
-2.851930618286133,2.6740036010742188,2.3017821311950684,0
-3.2728843688964844,2.8328065872192383,2.4722976684570312,0
-3.484388589859009,3.075620651245117,2.5014257431030273,0
-3.657456159591675,3.1466989517211914,2.3743526935577393,0
-3.638820171356201,2.9864912033081055,2.1753859519958496,0
-3.509103298187256,2.7695207595825195,1.9302682876586914,0
-3.387014865875244,2.5261850357055664,1.7423535585403442,0
-3.452272891998291,2.4251956939697266,1.4491322040557861,0
-3.558596611022949,2.5035104751586914,1.0492020845413208,0
-3.577683925628662,2.659581184387207,0.5080626010894775,0
-3.566744565963745,2.883270263671875,-0.36389434337615967,0
-3.605670690536499,3.0908117294311523,-1.446890115737915,0
-3.492696523666382,3.1486568450927734,-2.5452969074249268,0
-3.295011043548584,3.069546699523926,-3.6171884536743164,0
-2.746065139770508,2.8447656631469727,-4.5918097496032715,0
-1.8747339248657227,2.6831483840942383,-5.524738311767578,0
-1.0331991910934448,2.374776840209961,-6.186767578125,0
-0.3840827941894531,2.240896224975586,-6.7557220458984375,0
0.2597488760948181,2.0141944885253906,-6.775393486022949,0
0.7221782803535461,1.7695903778076172,-6.432614803314209,0
1.1996577978134155,1.5174283981323242,-5.947137832641602,0
1.4774401187896729,1.1961994171142578,-5.281647682189941,0
1.714348554611206,1.0768194198608398,-4.467710494995117,0
1.9398430585861206,0.9681777954101562,-3.4138846397399902,0
2.098526954650879,0.9513988494873047,-2.2421202659606934,0
2.0859572887420654,0.9823780059814453,-1.0244801044464111,0
1.93267822265625,0.9876384735107422,0.10836482048034668,0
1.688585638999939,1.058314323425293,1.0642106533050537,0
1.420021653175354,1.1084260940551758,1.613675832748413,0
1.1329243183135986,1.1074132919311523,1.8154218196868896,0
0.8235177397727966,0.9819278717041016,1.7127983570098877,0
0.5835475921630859,0.8338737487792969,1.3786625862121582,0
0.4125150442123413,0.5028419494628906,0.8554520606994629,0
0.22057443857192993,0.09942245483398438,0.2061614990234375,0
0.0535428524017334,-0.35405731201171875,-0.5234253406524658,0
-0.03794960677623749,-0.7634782791137695,-1.2731585502624512,0
-0.103526771068573,-1.2118077278137207,-1.9731817245483398,0
-0.22336246073246002,-1.6122651100158691,-2.605982780456543,0
-0.3458258807659149,-2.0049314498901367,-3.206549644470215,0
-0.5335853099822998,-2.3223390579223633,-3.8287250995635986,0
-0.7432804107666016,-2.607222080230713,-4.380141258239746,0
-1.0056008100509644,-2.875962734222412,-4.876122951507568,0
-1.3148610591888428,-3.0946545600891113,-5.406196594238281,0
-1.6178081035614014,-3.1910948753356934,-5.856667995452881,0
-1.9400460720062256,-3.2175660133361816,-6.341006278991699,0
-2.2954509258270264,-3.1617956161499023,-6.745223045349121,0
-2.593019485473633,-3.0880966186523438,-7.079665660858154,0
-3.002984046936035,-2.998474597930908,-7.349971294403076,0
-3.272449254989624,-2.9070239067077637,-7.563859462738037,0
-3.4525022506713867,-2.8543014526367188,-7.499114990234375,0
-3.5458028316497803,-2.831031322479248,-7.107517242431641,0
-3.3577046394348145,-2.852088451385498,-6.493537902832031,0
-3.167401075363159,-2.8918862342834473,-5.746811389923096,0
-2.9148614406585693,-2.9560422897338867,-4.930421829223633,0
-2.6124184131622314,-3.162510395050049,-3.9974846839904785,0
-2.411907434463501,-3.4832253456115723,-3.1331636905670166,0
-2.235570192337036,-3.81119966506958,-2.364689826965332,0
-2.0387353897094727,-4.206771373748779,-1.7220275402069092,0
-1.8550180196762085,-4.672743797302246,-1.1922030448913574,0
-1.6932812929153442,-5.1639933586120605,-0.7720060348510742,0
-1.4829736948013306,-5.623289585113525,-0.5398898124694824,0
-1.3542128801345825,-6.041205406188965,-0.36632871627807617,0
-1.2459323406219482,-6.377283573150635,-0.15051555633544922,0
-1.1212730407714844,-6.669913291931152,0.11961889266967773,0
-1.0629076957702637,-6.943079948425293,0.4466090202331543,0
-1.1440374851226807,-7.158539772033691,0.8019251823425293,0
-1.346976399421692,-7.242323875427246,1.1788687705993652,0
-1.6519253253936768,-7.280616283416748,1.5658268928527832,0
-2.0633628368377686,-7.247089862823486,1.922623634338379,0
-2.4910953044891357,-7.079351902008057,2.2901558876037598,0
-2.780550241470337,-6.73158073425293,2.6180033683776855,0
-3.0610547065734863,-6.3420491218566895,2.941725492477417,0
-3.4207003116607666,-5.695056438446045,3.1535756587982178,0
-3.515213966369629,-4.843010425567627,3.3876395225524902,0
-3.4315593242645264,-3.9626646041870117,3.541402578353882,0
-3.1921231746673584,-2.7903342247009277,3.614734411239624,0
-2.7402446269989014,-1.0263900756835938,3.723503351211548,0
-2.0753989219665527,1.2773990631103516,3.759308338165283,0
-1.0962347984313965,4.275341033935547,3.5399742126464844,0
0.044675491750240326,7.887356758117676,3.1803417205810547,0
1.146700382232666,12.43769359588623,2.6060101985931396,0
2.1869869232177734,16.765701293945312,1.4542884826660156,0
3.1520633697509766,19.908191680908203,-0.08654356002807617,0
3.5959887504577637,21.83804702758789,-0.6348412036895752,0
3.4850544929504395,21.762531280517578,0.900242805480957,0
2.7477664947509766,18.99948501586914,3.082714557647705,0
2.2014853954315186,14.295652389526367,4.836183547973633,0
1.993762493133545,9.423093795776367,6.058999061584473,0
1.9350025653839111,5.934545516967773,6.945669174194336,0
2.0247387886047363,3.7911853790283203,7.510795593261719,0
2.182668685913086,2.811084747314453,7.614090919494629,0
2.312518835067749,2.4967660903930664,7.184931755065918,0
2.168077230453491,2.4630699157714844,6.1118550300598145,0
1.8012367486953735,2.264950752258301,4.4815568923950195,0
1.1360334157943726,2.1733217239379883,2.092496395111084,0
0.1283072829246521,1.9197626113891602,-1.0140416622161865,0
-1.063918948173523,0.7640762329101562,-4.240542411804199,0
-2.1733672618865967,-0.9914541244506836,-7.274097919464111,0
-2.892106056213379,-2.9630675315856934,-9.780475616455078,0
-3.5640509128570557,-4.4401936531066895,-11.449708938598633,0
-4.273180961608887,-5.409595012664795,-12.277322769165039,0
-5.0936784744262695,-5.963992118835449,-12.235795021057129,0
-6.059308052062988,-6.232076168060303,-11.319674491882324,0
-7.25896692276001,-6.537270545959473,-9.189319610595703,0
-7.894710540771484,-6.507797718048096,-6.960899829864502,0
-7.142778396606445,-5.927924156188965,-4.8907976150512695,0
-4.6589508056640625,-5.192503452301025,-3.1054039001464844,0
-1.592384934425354,-4.429804801940918,-1.8265025615692139,0
0.7787792682647705,-3.8032302856445312,-1.156211256980896,0
2.21256685256958,-3.298680305480957,-0.8874115347862244,0
2.9854073524475098,-2.7249059677124023,-1.0177016258239746,0
3.446380138397217,-1.9935951232910156,-1.3685452938079834,0
3.493190288543701,-1.1957569122314453,-2.006701707839966,0
3.229016065597534,-0.49413585662841797,-2.6757853031158447,0
2.749870777130127,0.1660919189453125,-3.2477681636810303,0
2.0579617023468018,0.9733972549438477,-3.6468453407287598,0
0.9703760743141174,2.0107593536376953,-4.0608696937561035,0
-0.10698074102401733,3.040806770324707,-4.532930850982666,0
-0.8897620439529419,3.958099365234375,-4.5686187744140625,0
-1.4806616306304932,4.750575065612793,-3.9248344898223877,0
-1.9652438163757324,5.0882463455200195,-2.973419189453125,0
-2.236525535583496,4.689547538757324,-1.7438933849334717,0
-2.006200075149536,3.670513153076172,-0.4048425555229187,0
-1.382153034210205,2.38631534576416,0.7507400512695312,0
-0.7590742707252502,1.2729930877685547,1.2508139610290527,0
-0.13881301879882812,0.45033836364746094,1.112234354019165,0
0.5128442049026489,-3.70025634765625E-4,0.5510480999946594,0
0.8330299258232117,-0.088897705078125,-0.178436279296875,0
1.1044766902923584,0.10075187683105469,-0.9581289291381836,0
1.2501946687698364,0.32441043853759766,-1.7896978855133057,0
1.2261207103729248,0.41949939727783203,-2.455456256866455,0
1.1552766561508179,0.4149169921875,-2.96055269241333,0
1.1745458841323853,0.3323545455932617,-3.411167621612549,0
1.0850517749786377,0.1791057586669922,-3.7705702781677246,0
0.8503506779670715,-0.2217121124267578,-3.848968029022217,0
0.543433666229248,-0.7694559097290039,-3.6477959156036377,0
0.17490896582603455,-1.495142936706543,-3.201875925064087,0
-0.1439773440361023,-2.2336864471435547,-2.4957351684570312,0
-0.438015878200531,-3.0664901733398438,-1.7315040826797485,0
-0.5448592901229858,-3.8572473526000977,-0.9194389581680298,0
-0.6201832294464111,-4.333523273468018,-0.059474505484104156,0
-0.5584680438041687,-4.713369846343994,0.7151987552642822,0
-0.38545408844947815,-4.736303806304932,1.3416098356246948,0
-0.2632957398891449,-4.400383949279785,1.7501860857009888,0
-0.07613533735275269,-3.746671676635742,1.959862470626831,0
0.15035849809646606,-2.8305130004882812,1.9436041116714478,0
0.24402697384357452,-1.8267526626586914,1.7839246988296509,0
0.3355681002140045,-1.036773681640625,1.4409151077270508,0
0.3947232961654663,-0.553593635559082,0.9717921614646912,0
0.37900710105895996,-0.020646095275878906,0.4680551290512085,0
0.46216079592704773,0.36345767974853516,0.0905778557062149,0
0.6872438192367554,0.5080127716064453,-0.12306404113769531,0
0.8102428913116455,0.6715326309204102,-0.14942491054534912,0
0.8408716917037964,0.6626930236816406,-0.021965622901916504,0
0.8489246964454651,0.4912986755371094,0.19998514652252197,0
0.827641487121582,0.27475833892822266,0.4142035245895386,0
0.7822332382202148,0.04187202453613281,0.5448907613754272,0
0.6892455816268921,-0.16423320770263672,0.6646623611450195,0
0.652202308177948,-0.3793754577636719,0.7287738919258118,0
0.729244589805603,-0.5986909866333008,0.7471025586128235,0
0.6985088586807251,-0.759953498840332,0.7220939993858337,0
0.6874942779541016,-0.9636154174804688,0.7037941813468933,0
0.7540230751037598,-1.1020307540893555,0.6938811540603638,0
0.8652265667915344,-1.337860107421875,0.7898052334785461,0
0.9544718265533447,-1.5920934677124023,0.9093981981277466,0
0.9667035341262817,-1.60174560546875,1.0756462812423706,0
0.9540843963623047,-1.6469697952270508,1.3856992721557617,0
0.8227018117904663,-1.2543888092041016,1.7453651428222656,0
0.6128113865852356,-0.5991802215576172,2.2186715602874756,0
0.34283748269081116,0.0504302978515625,2.6951370239257812,0
0.043128252029418945,0.4767608642578125,3.1553711891174316,0
-0.25790703296661377,0.7063407897949219,3.4869203567504883,0
-0.38577520847320557,0.7585353851318359,3.647001028060913,0
-0.510836660861969,0.6622419357299805,3.557142972946167,0
-0.4804116487503052,0.4439525604248047,3.285022735595703,0
-0.45317602157592773,0.28788280487060547,2.972113847732544,0
-0.35357457399368286,0.18667030334472656,2.7259864807128906,0
-0.11590683460235596,0.28353118896484375,2.5294907093048096,0
0.28977280855178833,0.35570430755615234,2.5474488735198975,0
0.9028034806251526,0.5704336166381836,2.700593948364258,0
1.484879493713379,0.9489116668701172,2.7737467288970947,0
2.2025578022003174,1.447824478149414,2.7842094898223877,0
2.8422436714172363,1.8303375244140625,2.6900317668914795,0
3.3945095539093018,1.979574203491211,2.5164761543273926,0
3.7904489040374756,1.781214714050293,2.1355228424072266,0
4.16727352142334,1.3339099884033203,1.7609440088272095,0
4.4400458335876465,0.8533163070678711,1.254016637802124,0
4.6911468505859375,0.521245002746582,0.6857922673225403,0
4.907121658325195,0.3590278625488281,0.22733426094055176,0
5.079257488250732,0.5504589080810547,-0.10926640033721924,0
5.318550109863281,1.0161008834838867,-0.1301436424255371,0
5.623963356018066,1.772322654724121,0.26285409927368164,0
6.131577968597412,2.6754074096679688,0.9628480076789856,0
6.480606555938721,3.6512489318847656,1.7249157428741455,0
6.422850131988525,4.317374229431152,2.151496410369873,0
6.154056072235107,4.5977935791015625,2.1540234088897705,0
5.552684783935547,4.5696001052856445,1.7419787645339966,0
4.576295375823975,4.261922836303711,1.183486819267273,0
3.048835039138794,3.8281517028808594,0.6416158676147461,0
1.6887741088867188,3.3402442932128906,0.28710469603538513,0
0.5834407210350037,2.7625293731689453,0.10399819910526276,0
-0.3077295422554016,2.4420042037963867,0.0496077686548233,0
-1.0741400718688965,2.402524948120117,0.12658314406871796,0
-1.803945541381836,2.8712425231933594,0.36833834648132324,0
-2.316286087036133,3.6757993698120117,0.6377480030059814,0
-2.7380926609039307,4.505492210388184,0.8233497142791748,0
-2.9855687618255615,5.162463188171387,0.9311572313308716,0
-3.1020302772521973,5.532736778259277,0.9691026210784912,0
-3.0666918754577637,5.346766471862793,1.0218987464904785,0
-2.979334831237793,4.904022216796875,1.086978793144226,0
-2.9436442852020264,4.460105895996094,1.0595043897628784,0
-3.0982794761657715,4.248343467712402,1.1075485944747925,0
-3.29819917678833,4.18607234954834,1.1005635261535645,0
-3.3964908123016357,4.2101335525512695,0.8290525674819946,0
-3.302234649658203,4.162135124206543,0.39565742015838623,0
-3.4710168838500977,4.062784194946289,0.18820500373840332,0
-3.7740724086761475,4.045254707336426,-0.2532780170440674,0
-3.794616937637329,3.7602033615112305,-1.116267204284668,0
-3.637643575668335,3.349245071411133,-2.036919116973877,0
-3.3507561683654785,2.879817008972168,-2.9724698066711426,0
-2.8502161502838135,2.632138252258301,-3.832357406616211,0
-2.2168684005737305,2.460709571838379,-4.357180595397949,0
-1.617321491241455,2.445347785949707,-4.745656967163086,0
-1.1217529773712158,2.4483890533447266,-5.124797821044922,0
-0.559621274471283,2.36588191986084,-5.3604254722595215,0
-0.03440938889980316,2.1965932846069336,-5.486752033233643,0
0.4766971170902252,1.9700727462768555,-5.447797775268555,0
1.182242512702942,1.7561864852905273,-5.136043548583984,0
1.780439019203186,1.4567947387695312,-4.528263092041016,0
2.252852439880371,1.1217689514160156,-3.8132526874542236,0
2.6316065788269043,0.71923828125,-3.0164012908935547,0
2.8674936294555664,0.42749500274658203,-2.174877166748047,0
2.831756591796875,0.2331094741821289,-1.4095715284347534,0
2.7276101112365723,0.053272247314453125,-0.8536033630371094,0
2.345931053161621,-0.0893707275390625,-0.5019834041595459,0
1.8424632549285889,-0.24843311309814453,-0.3218107223510742,0
1.3888328075408936,-0.4844398498535156,-0.31892919540405273,0
0.9981760382652283,-0.7237949371337891,-0.5305190086364746,0
0.6709262728691101,-1.0600500106811523,-0.8938829898834229,0
0.3521835207939148,-1.2971696853637695,-1.4303123950958252,0
0.1521863043308258,-1.5236129760742188,-2.008635997772217,0
0.004205673933029175,-1.875380516052246,-2.557952880859375,0
-0.10538291931152344,-2.193958282470703,-3.170531988143921,0
-0.23542916774749756,-2.548032283782959,-3.819247007369995,0
-0.3676043152809143,-3.015629291534424,-4.443811893463135,0
-0.5623784065246582,-3.4308419227600098,-5.065134525299072,0
-0.8461242914199829,-3.757274627685547,-5.622409820556641,0
-1.12772536277771,-4.1092848777771,-6.097764015197754,0
-1.4209637641906738,-4.352443695068359,-6.530658721923828,0
-1.6033908128738403,-4.553490161895752,-6.8477582931518555,0
-1.8036565780639648,-4.638041019439697,-7.052234649658203,0
-1.949640154838562,-4.646792411804199,-7.115691184997559,0
-2.088799238204956,-4.577548980712891,-6.985445022583008,0
-2.1609246730804443,-4.464130878448486,-6.711400985717773,0
-2.2685253620147705,-4.34059476852417,-6.2281107902526855,0
-2.3232100009918213,-4.190869331359863,-5.599090099334717,0
-2.430781126022339,-4.125807285308838,-4.801425457000732,0
-2.5441298484802246,-4.009958744049072,-3.9388041496276855,0
-2.6949825286865234,-3.9065446853637695,-2.995227336883545,0
-2.8313705921173096,-3.919288158416748,-2.131833076477051,0
-2.987769365310669,-3.9963417053222656,-1.3159308433532715,0
-3.3447279930114746,-4.143075942993164,-0.6109261512756348,0
-3.6612460613250732,-4.374072551727295,-0.1452775001525879,0
-3.779405117034912,-4.64625358581543,0.1412339210510254,0
-3.9899065494537354,-4.992964744567871,0.3300905227661133,0
-3.9418466091156006,-5.198881149291992,0.5267596244812012,0
-3.908693552017212,-5.448171138763428,0.640416145324707,0
-3.774296522140503,-5.57078742980957,0.7308778762817383,0
-3.6191654205322266,-5.690999507904053,0.8196983337402344,0
-3.4712376594543457,-5.7392473220825195,0.9093680381774902,0
-3.4042134284973145,-5.732094764709473,1.0119576454162598,0
-3.4299118518829346,-5.700326919555664,1.117879867553711,0
-3.526862382888794,-5.6984148025512695,1.190943717956543,0
-3.6998467445373535,-5.730214595794678,1.1775665283203125,0
-3.657050848007202,-5.718172550201416,1.083667278289795,0
-3.1883633136749268,-5.376772880554199,0.9986073970794678,0
-2.929433584213257,-5.0283050537109375,0.7844994068145752,0
-2.6022117137908936,-4.542980194091797,0.6316108703613281,0
-2.0870814323425293,-3.860691547393799,0.5772297382354736,0
-1.5490905046463013,-2.8257980346679688,0.538964033126831,0
-0.9551293253898621,-1.2540230751037598,0.6993422508239746,0
-0.10243020951747894,0.8332080841064453,1.0101423263549805,0
0.8821635246276855,3.397782325744629,1.4582171440124512,0
2.0277178287506104,6.532971382141113,2.171266794204712,0
3.2841060161590576,10.111849784851074,2.8438010215759277,0
4.5537848472595215,13.76136589050293,3.1344034671783447,0
5.799206733703613,16.441913604736328,2.921564817428589,0
7.142147064208984,17.33990478515625,2.227950096130371,0
7.979030132293701,17.272981643676758,1.8824834823608398,0
8.355571746826172,16.08126449584961,2.2490344047546387,0
7.383486270904541,13.606781959533691,3.2403852939605713,0
5.975449562072754,9.789560317993164,4.278008460998535,0
5.07915735244751,6.236265182495117,5.245051383972168,0
4.263747692108154,3.7484989166259766,6.034594535827637,0
3.5498738288879395,2.1852216720581055,6.726413249969482,0
2.7747747898101807,1.3700075149536133,7.246036529541016,0
1.9720935821533203,1.1148223876953125,7.473541736602783,0
1.094935655593872,1.1793575286865234,7.284477710723877,0
0.108016237616539,1.527139663696289,6.556232929229736,0
-0.8801252841949463,2.0979909896850586,5.273595809936523,0
-2.035874843597412,2.4565792083740234,3.4521350860595703,0
-3.467210531234741,2.0777034759521484,0.8501360416412354,0
-6.8274617195129395,1.6183853149414062,-2.167975425720215,0
-10.463245391845703,1.0699291229248047,-5.078147888183594,0
-13.3031005859375,0.5357589721679688,-7.4498772621154785,0
-15.19753646850586,0.30113697052001953,-9.198694229125977,0
-15.962701797485352,0.18739700317382812,-10.411251068115234,0
-15.418401718139648,-0.07679271697998047,-10.807880401611328,0
-12.808762550354004,-0.6668128967285156,-10.098633766174316,0
-9.737496376037598,-1.2546796798706055,-8.95162582397461,0
-6.729331970214844,-2.21286678314209,-6.677292346954346,0
-3.6870968341827393,-3.0833983421325684,-4.619574069976807,0
-0.9781478643417358,-3.663990020751953,-3.079136371612549,0
1.0562623739242554,-4.175289154052734,-2.0935404300689697,0
2.4291718006134033,-4.641029357910156,-1.7058234214782715,0
3.219876766204834,-4.876575946807861,-1.8773226737976074,0
3.770294189453125,-4.77637243270874,-2.4410204887390137,0
4.094481945037842,-4.488529205322266,-3.2204394340515137,0
4.20604133605957,-4.000959873199463,-3.9285545349121094,0
4.216388702392578,-3.371159553527832,-4.435285568237305,0
4.115017414093018,-2.7451324462890625,-4.815659999847412,0
3.7923927307128906,-2.0154852867126465,-4.9496541023254395,0
3.14931583404541,-0.9676971435546875,-4.8162713050842285,0
2.2752268314361572,0.12690162658691406,-4.680793762207031,0
1.5848724842071533,1.2555112838745117,-4.52847146987915,0
0.9402045607566833,2.4507312774658203,-3.9833781719207764,0
0.5416348576545715,3.5803356170654297,-3.0103516578674316,0
0.38274216651916504,4.459991455078125,-1.7403039932250977,0
0.6289595365524292,4.870128631591797,-0.2451595664024353,0
1.2443573474884033,4.426763534545898,1.14236581325531,0
2.0434489250183105,3.2797985076904297,2.0583529472351074,0
2.770083427429199,1.8898372650146484,2.2778656482696533,0
3.3452401161193848,0.7622509002685547,1.8487906455993652,0
3.691840648651123,0.1003732681274414,0.9932976961135864,0
3.892709732055664,-0.3447723388671875,0.15581798553466797,0
3.548048973083496,-0.4513826370239258,-0.7221930623054504,0
2.56901478767395,-0.3370380401611328,-1.5156502723693848,0
1.3246593475341797,-0.17903995513916016,-2.194767713546753,0
0.20538464188575745,-0.09470367431640625,-2.7746591567993164,0
-0.576979398727417,-0.0815744400024414,-3.2445647716522217,0
-1.0034321546554565,-0.20890331268310547,-3.534148931503296,0
-1.1160666942596436,-0.4358987808227539,-3.56758189201355,0
-0.9854798316955566,-0.7194585800170898,-3.3975541591644287,0
-0.9483292102813721,-1.0428638458251953,-3.0165929794311523,0
-0.9921516180038452,-1.3152837753295898,-2.4291090965270996,0
-1.0281423330307007,-1.6325016021728516,-1.7564598321914673,0
-1.0256167650222778,-1.958651065826416,-0.9978827238082886,0
-1.0640851259231567,-2.2363767623901367,-0.2389424741268158,0
-1.0702378749847412,-2.4681577682495117,0.3844730854034424,0
-0.9682361483573914,-2.622987747192383,0.9207746386528015,0
-0.8638773560523987,-2.569456100463867,1.277394413948059,0
-0.7003964185714722,-2.439344882965088,1.5244405269622803,0
-0.5284057855606079,-2.1466622352600098,1.6340806484222412,0
-0.3650338053703308,-1.7872438430786133,1.5806043148040771,0
-0.19148734211921692,-1.4041996002197266,1.3835947513580322,0
0.027850180864334106,-0.9855804443359375,1.0528475046157837,0
0.2545696496963501,-0.6437921524047852,0.6479217410087585,0
0.4238375425338745,-0.43611812591552734,0.22093769907951355,0
0.47545742988586426,-0.12091064453125,-0.20066359639167786,0
0.47104790806770325,0.2609891891479492,-0.5056226253509521,0
0.49870678782463074,0.44164180755615234,-0.6660391092300415,0
0.543696939945221,0.4356069564819336,-0.6414710283279419,0
0.5723433494567871,0.4295969009399414,-0.5036605596542358,0
0.6662087440490723,0.3136320114135742,-0.2926673889160156,0
0.8089308738708496,0.03769493103027344,0.018843024969100952,0
0.9601833820343018,-0.15167236328125,0.35754474997520447,0
1.1612555980682373,-0.37166690826416016,0.6762325167655945,0
1.2787296772003174,-0.6269512176513672,0.9875820279121399,0
1.4976754188537598,-0.9795570373535156,1.2441389560699463,0
1.6463673114776611,-1.2953948974609375,1.4435241222381592,0
1.727460265159607,-1.5792617797851562,1.5902435779571533,0
1.8683222532272339,-1.8598723411560059,1.6620944738388062,0
2.1148762702941895,-2.029625415802002,1.7157341241836548,0
2.2374796867370605,-2.186738967895508,1.7120029926300049,0
2.2069249153137207,-2.2309012413024902,1.669145941734314,0
2.1780927181243896,-2.2651681900024414,1.7109545469284058,0
2.164546251296997,-2.0553231239318848,1.84406578540802,0
1.864272952079773,-1.3937406539916992,2.0657026767730713,0
1.5594844818115234,-0.4579744338989258,2.3566153049468994,0
1.2336260080337524,0.24469661712646484,2.673643112182617,0
1.0186445713043213,0.6236896514892578,2.966421604156494,0
0.8382103443145752,0.7009029388427734,3.1701464653015137,0
0.6421788930892944,0.5435771942138672,3.265167713165283,0
0.4996825158596039,0.27381229400634766,3.2699551582336426,0
0.3955777883529663,-0.024743080139160156,3.2508344650268555,0
0.36477428674697876,-0.22552490234375,3.286026954650879,0
0.6146180629730225,-0.2451305389404297,3.4298810958862305,0
1.0389461517333984,-0.12215709686279297,3.586442470550537,0
1.4595708847045898,0.2746696472167969,3.6988189220428467,0
1.8872261047363281,1.4853935241699219,3.7609963417053223,0
2.665086507797241,2.2225799560546875,3.5157618522644043,0
3.2512550354003906,3.046381950378418,3.062849521636963,0
3.647606611251831,3.5478734970092773,2.3940272331237793,0
3.9952847957611084,3.665386199951172,1.6754090785980225,0
4.21588134765625,3.4855947494506836,1.0173864364624023,0
4.3748979568481445,3.2863149642944336,0.43150436878204346,0
4.64523458480835,3.1967248916625977,-0.07108092308044434,0
4.807295322418213,3.415109634399414,-0.5586845874786377,0
4.87579345703125,3.783217430114746,-0.982447624206543,0
5.133768558502197,4.238687515258789,-1.2912216186523438,0
5.388365745544434,4.6451520919799805,-1.338271975517273,0
5.719913959503174,4.990805625915527,-1.2948335409164429,0
6.077324867248535,5.2065324783325195,-0.9871342182159424,0
6.290194988250732,5.3453168869018555,-0.48251867294311523,0
6.626584529876709,5.299932479858398,0.09248524904251099,0
6.68244743347168,5.221517562866211,0.66436767578125,0
6.19406270980835,5.024230003356934,1.255556344985962,0
3.7045812606811523,5.107414245605469,1.501693606376648,0
0.8490409851074219,5.140606880187988,1.4036153554916382,0
-1.013242483139038,4.8777360916137695,1.2065362930297852,0
-2.0851945877075195,4.396076202392578,1.0225516557693481,0
-2.7068049907684326,3.9235353469848633,0.8855777978897095,0
-3.040386915206909,3.398406982421875,0.8636558651924133,0
-3.085691452026367,3.026805877685547,0.924839973449707,0
-3.008308172225952,2.7466840744018555,0.984925389289856,0
-3.082868814468384,2.493541717529297,0.9459865689277649,0
-3.0110580921173096,2.1716766357421875,0.720463216304779,0
-3.0010323524475098,1.7377738952636719,0.5906203985214233,0
-3.104325294494629,1.236663818359375,0.48500150442123413,0
-2.960977077484131,0.844334602355957,0.5042129755020142,0
-2.992810010910034,0.7365789413452148,0.3783559799194336,0
-2.916934013366699,0.6708269119262695,0.09103810787200928,0
-2.9134633541107178,0.5367288589477539,-0.4072725176811218,0
-2.8696107864379883,0.49709224700927734,-1.07217538356781,0
-2.9520864486694336,0.5068607330322266,-1.8438640832901,0
-3.080775260925293,0.5141630172729492,-2.7161455154418945,0
-3.087127447128296,0.42435741424560547,-3.6474056243896484,0
-3.095386266708374,0.40820980072021484,-4.510940074920654,0
-3.010761260986328,0.44470977783203125,-5.254562854766846,0
-2.878145217895508,0.42887401580810547,-5.802393913269043,0
-2.536160469055176,0.3537416458129883,-6.082113265991211,0
-1.8958747386932373,0.13343334197998047,-6.0207014083862305,0
-1.1254267692565918,0.01934528350830078,-5.72684383392334,0
-0.4615798890590668,-0.09368324279785156,-5.321332931518555,0
0.06934848427772522,-0.004515647888183594,-4.8681793212890625,0
0.4956014156341553,0.18402099609375,-4.216158866882324,0
0.9194811582565308,0.5222291946411133,-3.5322160720825195,0
1.1221938133239746,0.9477710723876953,-2.762608528137207,0
1.252894401550293,1.438704490661621,-2.0130372047424316,0
1.2829155921936035,1.8436203002929688,-1.2473032474517822,0
1.172616958618164,2.0492334365844727,-0.4409918785095215,0
0.8817470073699951,1.977931022644043,0.2320718765258789,0
0.5443700551986694,1.6787614822387695,0.8060874938964844,0
0.15104171633720398,1.1696805953979492,1.1591286659240723,0
-0.24525922536849976,0.5812320709228516,1.2952802181243896,0
-0.6315840482711792,-0.11122989654541016,1.27024507522583,0
-0.8699552416801453,-0.7334423065185547,1.031261920928955,0
-1.048972725868225,-1.3144011497497559,0.6617436408996582,0
-1.1826837062835693,-1.7634000778198242,0.13739585876464844,0
-1.3232609033584595,-2.1641969680786133,-0.46108388900756836,0
-1.4274539947509766,-2.499927043914795,-1.0196888446807861,0
-1.5503318309783936,-2.720113754272461,-1.5945403575897217,0
-1.62496018409729,-2.946258544921875,-2.153595447540283,0
-1.7232959270477295,-3.1537885665893555,-2.693586826324463,0
-1.7566752433776855,-3.2869925498962402,-3.266294002532959,0
-1.7439813613891602,-3.560192584991455,-3.864067792892456,0
-1.6681060791015625,-3.776085376739502,-4.46028470993042,0
-1.5308271646499634,-3.8383660316467285,-4.931985855102539,0
-1.242352843284607,-3.959524154663086,-5.284985542297363,0
-0.9418672323226929,-3.940840721130371,-5.562651634216309,0
-0.7083978056907654,-3.7826147079467773,-5.74796199798584,0
-0.5164867043495178,-3.609569549560547,-5.828627586364746,0
-0.3967103362083435,-3.472187042236328,-5.744564056396484,0
-0.39952194690704346,-3.365837574005127,-5.636749744415283,0
-0.4441514015197754,-3.202317237854004,-5.411426067352295,0
-0.5743200182914734,-3.1183972358703613,-5.020168304443359,0
-0.7549203038215637,-3.1981406211853027,-4.502924919128418,0
-0.9555355906486511,-3.3653764724731445,-3.8683435916900635,0
-1.1404273509979248,-3.625324249267578,-3.2446060180664062,0
-1.249684453010559,-3.9760279655456543,-2.575594902038574,0
-1.4122234582901,-4.448967456817627,-1.9631307125091553,0
-1.434123158454895,-4.94879150390625,-1.3344600200653076,0
-1.4062153100967407,-5.432706356048584,-0.7271907329559326,0
-1.3135346174240112,-6.15665864944458,-0.12424373626708984,0
-1.2487739324569702,-6.766470909118652,0.4124417304992676,0
-1.1878327131271362,-7.188161849975586,0.8999719619750977,0
-1.2842755317687988,-7.297507286071777,1.458073616027832,0
-1.496780276298523,-7.960064888000488,1.8183894157409668,0
-1.7510721683502197,-8.290238380432129,2.2633800506591797,0
-1.873854160308838,-8.331713676452637,2.8107874393463135,0
-1.700062870979309,-7.728974342346191,3.419126033782959,0
-1.7652653455734253,-7.568607330322266,4.0085649490356445,0
-1.5860222578048706,-6.939056873321533,4.594817161560059,0
-0.9099799990653992,-5.967278480529785,5.085330963134766,0
-0.022550426423549652,-4.791415214538574,5.25238037109375,0
1.0017353296279907,-3.3551716804504395,5.079598426818848,0
1.7391331195831299,-1.3891630172729492,4.716444969177246,0
2.271480083465576,1.3208532333374023,4.183815956115723,0
2.603882312774658,4.685214996337891,3.4840970039367676,0
2.872251272201538,8.642715454101562,2.788569688796997,0
3.21339750289917,13.186924934387207,1.8202335834503174,0
3.47575044631958,16.830978393554688,0.4289970397949219,0
3.4602646827697754,18.914203643798828,-0.5598623752593994,0
2.6726126670837402,19.727191925048828,-0.1387784481048584,0
0.9577131867408752,18.662559509277344,1.5595743656158447,0
-0.647528350353241,15.328596115112305,3.502377510070801,0
-1.5174825191497803,10.3073148727417,4.9864301681518555,0
-2.125162363052368,6.399109840393066,5.985103607177734,0
-2.3807501792907715,4.203800201416016,6.357144355773926,0
-2.4426448345184326,3.5843868255615234,6.0022077560424805,0
-2.344775676727295,4.177060127258301,5.191888332366943,0
-2.296322822570801,5.412567138671875,4.057021141052246,0
-2.234470844268799,6.34190559387207,2.642997980117798,0
-2.0304880142211914,6.189454078674316,0.8586723804473877,0
-1.8930885791778564,5.486427307128906,-1.1296595335006714,0
-2.0990777015686035,4.931402206420898,-3.2916197776794434,0
-2.521690607070923,4.060759544372559,-5.6349029541015625,0
-3.2630646228790283,2.957195281982422,-7.767169952392578,0
-4.148869514465332,1.6415138244628906,-9.477287292480469,0
-5.028067588806152,0.29949092864990234,-10.270309448242188,0
-5.898017883300781,-1.0937795639038086,-10.243036270141602,0
-5.977369785308838,-2.608595848083496,-9.533616065979004,0
-4.9620537757873535,-4.095144748687744,-8.326781272888184,0
-3.292107105255127,-5.382740020751953,-6.806227684020996,0
-1.6690641641616821,-6.256267070770264,-5.341251373291016,0
-0.06335009634494781,-6.6187639236450195,-4.229780197143555,0
1.3362360000610352,-6.744254112243652,-3.5067286491394043,0
2.424255847930908,-6.908682346343994,-3.223757743835449,0
3.113797664642334,-7.157814025878906,-3.3571724891662598,0
3.4318349361419678,-7.417544364929199,-3.6716384887695312,0
3.4690771102905273,-7.446310997009277,-4.045239448547363,0
3.4457433223724365,-7.146279335021973,-4.296370506286621,0
3.3497681617736816,-6.568111419677734,-4.412229537963867,0
3.073047637939453,-5.7935895919799805,-4.199736595153809,0
2.655142307281494,-4.624661922454834,-3.874635696411133,0
2.008119821548462,-2.844402313232422,-3.5162410736083984,0
1.0499268770217896,-0.36288928985595703,-3.1565465927124023,0
-0.2980232238769531,2.572528839111328,-2.821371555328369,0
-2.0454864501953125,5.207927703857422,-2.6814699172973633,0
-3.978065013885498,7.373270034790039,-1.9393959045410156,0
-5.756500720977783,8.847933769226074,-0.2853802442550659,0
-6.582859039306641,9.418689727783203,1.771299958229065,0
-5.589587211608887,8.423815727233887,3.2699360847473145,0
-2.818927764892578,5.751030921936035,3.8379716873168945,0
-0.042885541915893555,3.039072036743164,3.416180372238159,0
1.4592437744140625,1.135554313659668,2.252636194229126,0
2.004894256591797,-0.12462806701660156,0.6569918394088745,0
2.019768714904785,-0.7680177688598633,-0.9553829431533813,0
1.7176856994628906,-0.9935827255249023,-2.481635332107544,0
1.3644577264785767,-0.9859275817871094,-3.7554008960723877,0
1.0150542259216309,-0.8817176818847656,-4.630942344665527,0
0.6718355417251587,-0.7935657501220703,-5.206211566925049,0
0.5619724988937378,-0.9103860855102539,-5.5319719314575195,0
0.5493195056915283,-0.973689079284668,-5.63053560256958,0
0.5477482080459595,-1.031412124633789,-5.495354175567627,0
0.4877053201198578,-1.2629423141479492,-5.165669918060303,0
0.4715707302093506,-1.593998908996582,-4.53758430480957,0
0.4295665919780731,-2.1632156372070312,-3.586219072341919,0
0.4186827540397644,-2.757577896118164,-2.3056344985961914,0
0.4411715865135193,-3.1954240798950195,-0.8469541072845459,0
0.5475931167602539,-3.5128955841064453,0.6467092037200928,0
0.6266471147537231,-3.533247947692871,2.033494710922241,0
0.7472346425056458,-3.091895580291748,3.170682907104492,0
0.7630901336669922,-2.297025203704834,3.911376953125,0
0.5822025537490845,-1.4886150360107422,4.1683454513549805,0
0.007450491189956665,-0.7743043899536133,3.936816453933716,0
-0.738852322101593,-0.31419849395751953,3.191246747970581,0
-1.2502362728118896,-0.08884716033935547,2.182028293609619,0
-1.2961112260818481,0.004893302917480469,1.093784213066101,0
-0.9412946701049805,-0.07341384887695312,0.08673121780157089,0
-0.505868136882782,-0.22788143157958984,-0.6306122541427612,0
-0.36765071749687195,-0.15239429473876953,-1.0125926733016968,0
-0.15068280696868896,-0.0051097869873046875,-1.072824239730835,0
0.02813631296157837,0.03927898406982422,-0.8959363698959351,0
0.02055951952934265,0.0669260025024414,-0.5944467186927795,0
0.044376641511917114,0.10653018951416016,-0.15798455476760864,0
0.17844080924987793,0.048107147216796875,0.21628932654857635,0
0.19314485788345337,-0.10578250885009766,0.5491668581962585,0
0.38784074783325195,-0.1301736831665039,0.7920655608177185,0
0.5521997809410095,-0.15665435791015625,0.9391834139823914,0
0.6361525654792786,-0.1421070098876953,1.0368961095809937,0
0.7330688238143921,-0.311279296875,1.1287791728973389,0
0.8073136210441589,-0.5204029083251953,1.1455588340759277,0
0.9476777911186218,-0.6976375579833984,1.2090792655944824,0
1.1280152797698975,-0.9984273910522461,1.2131931781768799,0
1.248117446899414,-1.283949851989746,1.2309249639511108,0
1.4830291271209717,-1.4490413665771484,1.273038387298584,0
1.7303918600082397,-1.4747447967529297,1.4700393676757812,0
1.8730512857437134,-1.6076068878173828,1.6722694635391235,0
1.9659180641174316,-1.5893630981445312,1.9911086559295654,0
1.9487781524658203,-1.3318519592285156,2.358694076538086,0
1.8497490882873535,-0.8689966201782227,2.7145345211029053,0
1.4909045696258545,-0.4355430603027344,3.0343008041381836,0
1.1083855628967285,-0.09377479553222656,3.2603402137756348,0
0.7830817699432373,0.053546905517578125,3.340383529663086,0
0.6871652007102966,0.05927467346191406,3.289320230484009,0
0.5786988139152527,0.10051345825195312,3.0597548484802246,0
0.5197063088417053,0.11266231536865234,2.8699183464050293,0
0.5550413727760315,0.18420696258544922,2.808696985244751,0
0.6574612855911255,0.2982616424560547,2.8212223052978516,0
0.878559410572052,0.5311651229858398,2.8572540283203125,0
1.2484115362167358,0.7535219192504883,2.947843551635742,0
1.8042452335357666,1.060887336730957,3.0142087936401367,0
2.451815605163574,1.3597602844238281,2.7381386756896973,0
2.9945425987243652,1.7314262390136719,2.378647804260254,0
3.499558448791504,1.8100404739379883,2.044182777404785,0
4.027233123779297,1.7993345260620117,1.5056331157684326,0
4.336411476135254,1.5608510971069336,0.9550786018371582,0
4.530460357666016,1.3866758346557617,0.4262826442718506,0
4.703379154205322,1.3318262100219727,-0.051984310150146484,0
4.81260871887207,1.3770647048950195,-0.4442325830459595,0
4.908960342407227,1.577254295349121,-0.58881676197052,0
5.062190055847168,1.8628015518188477,-0.5111602544784546,0
5.222650527954102,2.1690149307250977,-0.014265298843383789,0
5.551627159118652,2.742192268371582,0.7544788718223572,0
5.8591790199279785,3.316682815551758,1.542771577835083,0
5.907678127288818,3.914113998413086,2.0175600051879883,0
5.705272674560547,4.2619218826293945,2.090130567550659,0
5.2018351554870605,4.410665512084961,1.6651079654693604,0
4.681597709655762,4.379798889160156,1.0663470029830933,0
4.0098114013671875,4.207888603210449,0.4907355308532715,0
2.8690013885498047,4.095973014831543,0.15636056661605835,0
0.9689562320709229,4.086874008178711,-0.05936795473098755,0
-0.764331579208374,4.020230293273926,-0.11196854710578918,0
-1.9532525539398193,3.843690872192383,-0.077362060546875,0
-2.6296114921569824,3.4932336807250977,0.14794498682022095,0
-3.1847822666168213,3.2350082397460938,0.425521582365036,0
-3.4449915885925293,2.985809326171875,0.7346740961074829,0
-3.755385637283325,2.8371400833129883,1.0155491828918457,0
-3.877920627593994,2.8014144897460938,1.2798552513122559,0
-3.850768804550171,2.84063720703125,1.44258713722229,0
-3.6441872119903564,2.80661678314209,1.5319794416427612,0
-3.5607409477233887,2.5916452407836914,1.6128523349761963,0
-3.67319917678833,2.2384538650512695,1.5773556232452393,0
-3.7253384590148926,2.033397674560547,1.5032148361206055,0
-3.8337295055389404,1.870163917541504,1.2763917446136475,0
-3.9520671367645264,1.9486379623413086,0.9370124340057373,0
-4.133748531341553,2.0622739791870117,0.3721010684967041,0
-4.354705810546875,2.1102495193481445,-0.4221799373626709,0
-4.4437255859375,2.18338680267334,-1.2371007204055786,0
-4.453522205352783,2.2052812576293945,-2.070294141769409,0
-4.340783596038818,2.0783767700195312,-2.9751362800598145,0
-4.283931255340576,1.9492816925048828,-3.7489657402038574,0
-3.876605987548828,1.823324203491211,-4.494518756866455,0
-2.813735008239746,1.767868995666504,-4.9877824783325195,0
-1.8045791387557983,1.8070125579833984,-5.34401273727417,0
-0.9046781063079834,1.8645086288452148,-5.411630153656006,0
-0.23438405990600586,1.8928718566894531,-5.1637678146362305,0
0.2597450613975525,1.799407958984375,-4.791705131530762,0
0.6552774906158447,1.7594490051269531,-4.330986976623535,0
0.9802273511886597,1.8021411895751953,-3.663060426712036,0
1.3875075578689575,1.7939777374267578,-2.8412210941314697,0
1.719247579574585,1.7878484725952148,-1.8504855632781982,0
1.9072188138961792,1.685307502746582,-0.9128373861312866,0
1.9604716300964355,1.5357465744018555,-0.15793204307556152,0
1.8883880376815796,1.3521919250488281,0.4669613838195801,0
1.6686078310012817,1.1308250427246094,0.8727350234985352,0
1.3114418983459473,0.8033151626586914,1.0221495628356934,0
0.9648983478546143,0.42354488372802734,0.9678912162780762,0
0.6565681099891663,0.07194805145263672,0.7926449775695801,0
0.4399946928024292,-0.3955354690551758,0.4584691524505615,0
0.25386685132980347,-0.8282413482666016,0.043686866760253906,0
0.13012756407260895,-1.261918544769287,-0.4552614688873291,0
0.0029970407485961914,-1.6125540733337402,-1.006230354309082,0
-0.1091158539056778,-1.9874839782714844,-1.5196475982666016,0
-0.3044591546058655,-2.3958964347839355,-2.0325655937194824,0
-0.45375868678092957,-2.7536864280700684,-2.538893938064575,0
-0.7004809975624084,-3.1132192611694336,-2.986886978149414,0
-0.9748700261116028,-3.3977112770080566,-3.45383358001709,0
-1.1478205919265747,-3.6929373741149902,-3.974154472351074,0
-1.386818766593933,-3.9576950073242188,-4.477289199829102,0
-1.6081042289733887,-4.122148036956787,-4.993146896362305,0
-1.7783737182617188,-4.2862772941589355,-5.439282417297363,0
-1.9526748657226562,-4.361093997955322,-5.8336334228515625,0
-2.0661933422088623,-4.343954563140869,-6.141140937805176,0
-1.9578903913497925,-4.194235324859619,-6.280735969543457,0
-1.695718765258789,-4.0366530418396,-6.149250507354736,0
-1.4366198778152466,-3.871682643890381,-5.800968170166016,0
-1.2089831829071045,-3.668705940246582,-5.32126522064209,0
-1.1662306785583496,-3.4593372344970703,-4.795403957366943,0
-1.141636848449707,-3.2919936180114746,-4.152923583984375,0
-1.1719582080841064,-3.219851493835449,-3.466866970062256,0
-1.2529470920562744,-3.202777862548828,-2.7384285926818848,0
-1.382499098777771,-3.2771286964416504,-2.0908944606781006,0
-1.431349754333496,-3.4287381172180176,-1.5594449043273926,0
-1.514084815979004,-3.7461190223693848,-1.1221156120300293,0
-1.5727769136428833,-4.1311211585998535,-0.7498478889465332,0
-1.5806225538253784,-4.557394027709961,-0.39934778213500977,0
-1.5442278385162354,-4.960318565368652,-0.08720016479492188,0
-1.5924158096313477,-5.3279924392700195,0.25861263275146484,0
-1.5500872135162354,-5.665287971496582,0.6503500938415527,0
-1.581952691078186,-5.93886137008667,1.0573863983154297,0
-1.6733026504516602,-6.141758918762207,1.554541826248169,0
-1.8765685558319092,-6.276665210723877,2.0565989017486572,0
-2.150810480117798,-6.403522968292236,2.5859415531158447,0
-2.4505724906921387,-6.45534610748291,3.0021989345550537,0
-2.751878499984741,-6.341220855712891,3.411426305770874,0
-3.0616493225097656,-6.187660217285156,3.7134408950805664,0
-3.2872939109802246,-5.786139965057373,3.8103702068328857,0
-3.175974130630493,-5.157713413238525,3.833513021469116,0
-2.972071647644043,-4.411474704742432,3.5685296058654785,0
-2.5447099208831787,-3.292750358581543,3.1926162242889404,0
-1.9160339832305908,-1.8961381912231445,2.7047061920166016,0
-1.27492094039917,-0.07468318939208984,2.284489870071411,0
-0.5169966220855713,2.5073232650756836,1.9733779430389404,0
0.4579969346523285,5.589734077453613,1.7058515548706055,0
1.3981131315231323,9.471931457519531,1.4662578105926514,0
2.2670533657073975,13.543783187866211,1.1730012893676758,0
3.0621795654296875,16.872806549072266,0.6406832933425903,0
3.7532901763916016,18.465221405029297,-0.011797904968261719,0
3.9475560188293457,18.726512908935547,0.375643253326416,0
3.5894155502319336,17.235862731933594,2.09269380569458,0
2.6590182781219482,13.632525444030762,3.885831832885742,0
1.7185574769973755,9.218299865722656,4.9725236892700195,0
0.8129975199699402,5.55899715423584,5.446724891662598,0
0.19795525074005127,2.8079748153686523,5.514959335327148,0
-0.3351312577724457,0.78875732421875,5.326457500457764,0
-0.8781009316444397,-0.5503129959106445,4.9260358810424805,0
-1.3153785467147827,-1.5045528411865234,4.285967826843262,0
-1.7642505168914795,-2.051032543182373,3.50346302986145,0
-2.19873309135437,-2.1767048835754395,2.614626169204712,0
-2.607654571533203,-1.9786524772644043,1.5341334342956543,0
-2.974839925765991,-1.4508724212646484,0.11672830581665039,0
-3.350938320159912,-0.6467695236206055,-1.6257915496826172,0
-3.626746654510498,-0.15505027770996094,-3.3232614994049072,0
-3.7360143661499023,-0.10163497924804688,-5.009163856506348,0
-4.132117748260498,-0.1521930694580078,-6.84487247467041,0
-4.817821502685547,-0.07999515533447266,-8.407919883728027,0
-5.767753601074219,0.2694091796875,-9.2046537399292,0
-6.66360330581665,0.8686313629150391,-9.076208114624023,0
-7.119266510009766,1.6740798950195312,-7.997323989868164,0
-5.946541786193848,2.6506471633911133,-5.9316606521606445,0
-3.7409911155700684,3.0222883224487305,-3.776529312133789,0
-0.9466760158538818,2.484452247619629,-2.3279824256896973,0
1.6843491792678833,1.6015329360961914,-1.6511578559875488,0
3.779587507247925,0.7083740234375,-1.5467281341552734,0
4.9162702560424805,-0.20679950714111328,-2.0052762031555176,0
5.582734107971191,-1.1173267364501953,-2.801114320755005,0
5.97701358795166,-1.946387767791748,-3.79970645904541,0
5.954305171966553,-2.572000503540039,-4.6910929679870605,0
5.575164318084717,-2.984900951385498,-5.403423309326172,0
5.016716480255127,-3.242873191833496,-5.8881306648254395,0
4.321288108825684,-3.4634575843811035,-6.0795464515686035,0
3.52559757232666,-3.524986743927002,-5.914273262023926,0
2.6222193241119385,-3.3681015968322754,-5.473016738891602,0
1.569651484489441,-3.0219597816467285,-4.755765438079834,0
0.42785975337028503,-2.412790298461914,-3.8658347129821777,0
-0.8017328381538391,-1.5099983215332031,-2.836392402648926,0
-1.8755064010620117,-0.3621044158935547,-1.5653446912765503,0
-2.774996757507324,0.8075962066650391,0.05579507350921631,0
-3.519834518432617,1.907440185546875,1.6867611408233643,0
-3.8875303268432617,2.795712471008301,3.085597515106201,0
-3.9041054248809814,3.376509666442871,3.887773036956787,0
-3.51863169670105,3.5927791595458984,3.985071897506714,0
-2.8428285121917725,3.404705047607422,3.4751946926116943,0
-1.8910630941390991,2.8900604248046875,2.407731294631958,0
-0.7092530131340027,2.2198657989501953,1.1874512434005737,0
0.2719118893146515,1.5624752044677734,-0.12582659721374512,0
1.126948595046997,0.9830341339111328,-1.3760466575622559,0
1.6795339584350586,0.5655088424682617,-2.489884853363037,0
1.9421639442443848,0.21422863006591797,-3.388232707977295,0
1.9846832752227783,0.00560760498046875,-3.9667344093322754,0
1.8384830951690674,-0.18741130828857422,-4.2202839851379395,0
1.544543981552124,-0.2861652374267578,-4.276768207550049,0
1.1727967262268066,-0.4344778060913086,-4.174898624420166,0
0.7575153112411499,-0.5894603729248047,-3.9604415893554688,0
0.4646773338317871,-0.8732223510742188,-3.626783847808838,0
0.25734809041023254,-1.1948814392089844,-3.174654483795166,0
0.08443266153335571,-1.5855474472045898,-2.5504837036132812,0
-0.08846032619476318,-2.0236434936523438,-1.7969439029693604,0
-0.20974256098270416,-2.427825927734375,-1.062155842781067,0
-0.3144266605377197,-2.680948257446289,-0.41316401958465576,0
-0.3014570474624634,-2.7162113189697266,0.11646145582199097,0
-0.031953856348991394,-2.7729339599609375,0.5120788216590881,0
0.26388853788375854,-2.6716771125793457,0.7349725365638733,0
0.3857365846633911,-2.539294719696045,0.8179330825805664,0
0.23960080742835999,-2.3160319328308105,0.8439379334449768,0
0.047295451164245605,-2.088103771209717,0.7548829913139343,0
0.043437421321868896,-1.8579607009887695,0.5888258814811707,0
0.23673537373542786,-1.649550437927246,0.40316617488861084,0
0.4649367332458496,-1.5561323165893555,0.25586020946502686,0
0.5806426405906677,-1.4221696853637695,0.12382358312606812,0
0.5439590811729431,-1.1999073028564453,0.07719212770462036,0
0.38906845450401306,-0.9564104080200195,0.07356739044189453,0
0.32977786660194397,-0.7921047210693359,0.11116623878479004,0
0.2707328200340271,-0.7618522644042969,0.16408181190490723,0
0.2360703945159912,-0.8726015090942383,0.19164249300956726,0
0.26201730966567993,-1.0404157638549805,0.19365257024765015,0
0.3921600878238678,-1.1814556121826172,0.2272840291261673,0
0.5864059925079346,-1.3028392791748047,0.21551455557346344,0
0.7637572288513184,-1.5097312927246094,0.11954648047685623,0
0.8430202603340149,-1.6943740844726562,0.024934440851211548,0
0.8601200580596924,-1.7156896591186523,-0.0043336814269423485,0
0.905992329120636,-1.8105792999267578,0.05989415571093559,0
0.8896521925926208,-1.907212734222412,0.142918199300766,0
0.8231747150421143,-1.941023826599121,0.2969285845756531,0
0.7925710082054138,-2.086648941040039,0.5550573468208313,0
0.6495144963264465,-2.016378402709961,0.8355588912963867,0
0.4656429886817932,-1.8476672172546387,1.1718121767044067,0
0.17389607429504395,-1.556741714477539,1.5589625835418701,0
-0.18270236253738403,-1.1365976333618164,1.8869047164916992,0
-0.511076807975769,-0.6304683685302734,2.1315765380859375,0
-0.816206157207489,-0.20110797882080078,2.2089061737060547,0
-1.1103169918060303,0.09173774719238281,2.2094333171844482,0
-1.2334978580474854,0.38204002380371094,2.0798563957214355,0
-1.3678336143493652,0.5620813369750977,1.9149532318115234,0
-1.3369312286376953,0.6628999710083008,1.76375150680542,0
-1.1415681838989258,0.7274484634399414,1.8333086967468262,0
-0.8111259341239929,0.8058204650878906,2.050910234451294,0
-0.3586384654045105,0.8332662582397461,2.3586788177490234,0
0.3701011538505554,0.9627437591552734,2.768752098083496,0
1.093801498413086,1.5144586563110352,3.200887441635132,0
1.8661925792694092,2.215264320373535,3.4367363452911377,0
2.5352351665496826,2.9525842666625977,3.2802343368530273,0
3.3179590702056885,3.4442873001098633,2.915663957595825,0
3.8818044662475586,3.597508430480957,2.3398191928863525,0
4.237367153167725,3.3578453063964844,1.7167224884033203,0
4.634973049163818,2.8527183532714844,1.159286618232727,0
4.937218189239502,2.3336305618286133,0.7336301803588867,0
4.955836296081543,1.9249067306518555,0.2134653925895691,0
5.158306121826172,1.7459297180175781,-0.029993295669555664,0
5.2940168380737305,1.844132423400879,-0.05211949348449707,0
5.61694860458374,1.9847183227539062,0.23764321208000183,0
5.897780418395996,2.212991714477539,0.8464254140853882,0
6.221036434173584,2.722566604614258,1.6555559635162354,0
6.207763671875,3.3985023498535156,2.480520248413086,0
6.093976974487305,3.968235969543457,3.063474655151367,0
5.8041558265686035,4.243200302124023,3.1707077026367188,0
5.3198065757751465,4.092440605163574,2.9563398361206055,0
4.676704406738281,3.695953369140625,2.5384135246276855,0
4.051506996154785,3.1163434982299805,2.11130690574646,0
2.9712188243865967,2.645580291748047,1.7393221855163574,0
1.6176326274871826,2.273944854736328,1.4355469942092896,0
0.49391159415245056,1.9703683853149414,1.2749625444412231,0
-0.5465094447135925,1.6490135192871094,1.1986403465270996,0
-1.46925687789917,1.2984647750854492,1.2007215023040771,0
-2.2051684856414795,1.2470159530639648,1.2636151313781738,0
-2.749018907546997,1.6480998992919922,1.4132513999938965,0
-3.4190006256103516,2.358431816101074,1.5711055994033813,0
-3.8050708770751953,3.10079288482666,1.7441127300262451,0
-4.13205623626709,3.600431442260742,1.9499415159225464,0
-4.338257789611816,3.802511215209961,2.159660816192627,0
-4.319179058074951,3.8240222930908203,2.3495092391967773,0
-4.293787956237793,3.7504091262817383,2.4569272994995117,0
-4.229401588439941,3.635544776916504,2.3879213333129883,0
-4.181639194488525,3.473386764526367,1.8866595029830933,0
-3.9813966751098633,3.492428779602051,0.853823184967041,0
-3.86077880859375,3.392393112182617,-0.2856457233428955,0
-3.668226718902588,3.4925928115844727,-1.1394070386886597,0
-3.708984613418579,3.9184207916259766,-2.111684560775757,0
-3.1280763149261475,3.9756879806518555,-3.256350040435791,0
-2.044133186340332,3.8756961822509766,-4.4717512130737305,0
-1.0643564462661743,3.6270151138305664,-5.434689521789551,0
-0.25754234194755554,3.4300479888916016,-6.15946626663208,0
0.4066098928451538,3.3057212829589844,-6.493498802185059,0
1.085418462753296,3.0168676376342773,-6.638829231262207,0
1.7294634580612183,2.450556755065918,-6.408111572265625,0
2.209439516067505,1.8425216674804688,-5.817180633544922,0
2.5358331203460693,1.2603187561035156,-4.946227073669434,0
2.896784782409668,0.8688831329345703,-3.973017692565918,0
3.2651214599609375,0.4904670715332031,-2.9295082092285156,0
3.6549203395843506,0.22936153411865234,-1.8802531957626343,0
4.0634846687316895,-0.033034324645996094,-0.8319766521453857,0
4.491610050201416,-0.20044326782226562,0.1489088535308838,0
4.825669288635254,-0.2295064926147461,0.9689767360687256,0
4.8561811447143555,-0.2706184387207031,1.4812695980072021,0
4.523399353027344,-0.43320274353027344,1.6958744525909424,0
3.9547033309936523,-0.5749988555908203,1.590527057647705,0
3.2710769176483154,-0.7828912734985352,1.271070957183838,0
2.7046241760253906,-1.159804344177246,0.8328170776367188,0
2.150646209716797,-1.585648536682129,0.3489193916320801,0
1.555220127105713,-2.0237932205200195,-0.15091633796691895,0
1.0671348571777344,-2.37296199798584,-0.6633801460266113,0
0.6081663966178894,-2.7351293563842773,-1.1806433200836182,0
0.21072140336036682,-2.9946117401123047,-1.7307162284851074,0
-0.18305784463882446,-3.2176895141601562,-2.2506418228149414,0
-0.5157837271690369,-3.377474784851074,-2.708387851715088,0
-0.8995257616043091,-3.483048915863037,-3.1842973232269287,0
-1.1897993087768555,-3.522021770477295,-3.6796464920043945,0
-1.4592310190200806,-3.520498275756836,-4.1115498542785645,0
-1.7777233123779297,-3.4329471588134766,-4.485391616821289,0
-2.1456010341644287,-3.357172966003418,-4.876280307769775,0
-2.49324107170105,-3.2997665405273438,-5.328617095947266,0
-2.877283811569214,-3.238727569580078,-5.64732551574707,0
-3.4309372901916504,-3.1378636360168457,-5.8883209228515625,0
-4.069721698760986,-3.0496416091918945,-6.071220397949219,0
-4.500172138214111,-2.9477434158325195,-6.129037380218506,0
-4.391518592834473,-2.844447612762451,-6.001303672790527,0
-4.080843448638916,-2.9483847618103027,-5.607876777648926,0
-3.7383129596710205,-3.0949602127075195,-5.11974573135376,0
-3.3835933208465576,-3.277677059173584,-4.621463775634766,0
-2.9914751052856445,-3.4924840927124023,-4.027621269226074,0
-2.7101504802703857,-3.6444687843322754,-3.3987624645233154,0
-2.6143879890441895,-3.8203959465026855,-2.7550482749938965,0
-2.6479673385620117,-4.011016368865967,-2.2199721336364746,0
-2.716729164123535,-4.139845848083496,-1.7979464530944824,0
-2.7813127040863037,-4.2810564041137695,-1.4648313522338867,0
-2.826028347015381,-4.408271312713623,-1.1343820095062256,0
-2.8802390098571777,-4.507106781005859,-0.8638730049133301,0
-2.9132494926452637,-4.56552267074585,-0.6197509765625,0
-2.9542524814605713,-4.602540016174316,-0.42834997177124023,0
-3.0299625396728516,-4.586695671081543,-0.2519965171813965,0
-3.145256280899048,-4.505558490753174,-0.10364580154418945,0
-3.163461685180664,-4.2724223136901855,0.015227556228637695,0
-3.064591884613037,-3.8436923027038574,0.20575284957885742,0
-2.9000961780548096,-3.207030773162842,0.4447977542877197,0
-2.6259875297546387,-2.4723124504089355,0.7337145805358887,0
-2.3116469383239746,-1.6083908081054688,1.0718979835510254,0
-2.1436362266540527,-0.622532844543457,1.3896925449371338,0
-1.8503741025924683,0.4898948669433594,1.7443511486053467,0
-1.4867602586746216,1.735978126525879,2.082712411880493,0
-1.184220552444458,3.0727195739746094,2.487410306930542,0
-0.6830675005912781,4.646320343017578,2.846409559249878,0
-0.06952559947967529,6.229901313781738,3.1884264945983887,0
0.7084019184112549,7.764275550842285,3.4846510887145996,0
1.5577890872955322,9.089757919311523,3.7212209701538086,0
2.5486557483673096,9.769352912902832,3.8083438873291016,0
3.5403683185577393,9.435750961303711,3.7743828296661377,0
4.285344123840332,7.783975601196289,3.804271936416626,0
4.209836959838867,5.338800430297852,3.863832712173462,0
3.5755903720855713,3.169278144836426,3.9459309577941895,0
2.970628261566162,1.5801725387573242,4.08486270904541,0
2.438300609588623,0.46935462951660156,4.236061096191406,0
1.668044090270996,-0.22928714752197266,4.342801094055176,0
0.9478795528411865,-0.7059774398803711,4.46741247177124,0
0.3200894594192505,-0.9306907653808594,4.653006076812744,0
-0.29714012145996094,-0.7850046157836914,4.823285102844238,0
-0.7965909242630005,-0.1626300811767578,4.907072067260742,0
-1.211374044418335,0.980682373046875,4.775362968444824,0
-1.5689562559127808,2.577132225036621,4.3103156089782715,0
-1.8895516395568848,4.081197738647461,3.4576990604400635,0
-1.9645249843597412,5.491115570068359,2.251181125640869,0
-2.0320212841033936,6.57807731628418,0.7145142555236816,0
-2.115412950515747,7.044308662414551,-1.0357334613800049,0
-2.318268299102783,6.714673042297363,-2.9157018661499023,0
-2.8821563720703125,6.067312240600586,-4.766839981079102,0
-3.9383952617645264,5.333483695983887,-6.319226264953613,0
-4.7049336433410645,4.617114067077637,-7.219181060791016,0
-4.96211576461792,3.6079816818237305,-7.650698184967041,0
-4.661598205566406,2.397747039794922,-7.861787796020508,0
-3.839085340499878,0.8648767471313477,-7.783779621124268,0
-2.7098209857940674,-0.6580228805541992,-7.449611663818359,0
-1.54225754737854,-2.0710391998291016,-6.837832927703857,0
-0.7415604591369629,-3.214630126953125,-6.182577133178711,0
-0.18028460443019867,-4.16615104675293,-5.535671710968018,0
0.06992515921592712,-4.945380687713623,-4.994423866271973,0
0.15223971009254456,-5.533715724945068,-4.579488277435303,0
0.0967416763305664,-6.022465705871582,-4.244459629058838,0
-0.18005196750164032,-6.349642753601074,-4.005173683166504,0
-0.5642967224121094,-6.570378303527832,-3.803234577178955,0
-1.045811414718628,-6.550790309906006,-3.6996259689331055,0
-1.5405492782592773,-6.233712196350098,-3.5850934982299805,0
-1.966935157775879,-5.629075050354004,-3.39558744430542,0
-2.3416199684143066,-4.687108516693115,-3.136262893676758,0
-2.702845811843872,-3.350998878479004,-2.8458800315856934,0
-3.2041943073272705,-1.5211029052734375,-2.43147611618042,0
-3.534832715988159,0.3353242874145508,-1.9104251861572266,0
-3.630404472351074,2.3302230834960938,-1.4654830694198608,0
-3.6392064094543457,4.250035285949707,-0.6736084818840027,0
-3.4098658561706543,5.843073844909668,0.47959697246551514,0
-2.752711772918701,6.900954246520996,1.8487279415130615,0
-1.7246873378753662,7.029277801513672,3.065002918243408,0
-0.4638463258743286,6.288887977600098,3.774684190750122,0
0.8352231383323669,5.147439002990723,3.90487003326416,0
1.7755084037780762,3.9121694564819336,3.4861302375793457,0
2.388963460922241,2.7466211318969727,2.622192859649658,0
2.8607730865478516,1.7949409484863281,1.4430675506591797,0
3.0190815925598145,1.098052978515625,0.15842485427856445,0
3.008796215057373,0.6560554504394531,-1.2676234245300293,0
3.007134199142456,0.3709068298339844,-2.680742025375366,0
3.0675745010375977,0.15895938873291016,-3.9908008575439453,0
2.867845058441162,0.017838478088378906,-5.047520637512207,0
2.6714866161346436,-0.050185203552246094,-5.661871910095215,0
2.47772216796875,-0.19601917266845703,-5.720545291900635,0
2.2704551219940186,-0.4556264877319336,-5.502601623535156,0
2.172459363937378,-0.776392936706543,-4.959840297698975,0
2.076674222946167,-1.3305253982543945,-4.130262851715088,0
1.9858380556106567,-1.8117752075195312,-3.0904247760772705,0
1.9026710987091064,-2.28725528717041,-1.9220525026321411,0
1.707658052444458,-2.6350860595703125,-0.7308495044708252,0
1.6789259910583496,-2.939176559448242,0.4949093461036682,0
1.4575676918029785,-3.0131373405456543,1.592519760131836,0
1.352607011795044,-3.0821070671081543,2.517530679702759,0
1.2234687805175781,-2.7731733322143555,3.142315149307251,0
0.8590403199195862,-2.2638039588928223,3.2819316387176514,0
0.20096904039382935,-1.8914318084716797,3.0101332664489746,0
-0.43830156326293945,-1.34503173828125,2.3447935581207275,0
-0.8829701542854309,-0.6965084075927734,1.5614172220230103,0
-0.9664716124534607,-0.10136795043945312,0.7222986817359924,0
-1.2087465524673462,0.12009620666503906,0.04023231565952301,0
-1.4454067945480347,-0.0913839340209961,-0.44187551736831665,0
-1.331465482711792,-0.2689399719238281,-0.9426281452178955,0
-1.0911462306976318,-0.15430736541748047,-1.4301903247833252,0
-1.0837985277175903,-0.42450904846191406,-1.7576407194137573,0
-1.0483508110046387,-0.8112478256225586,-1.952576994895935,0
-0.8386845588684082,-0.7835597991943359,-2.0566587448120117,0
-0.8734683990478516,-1.3295507431030273,-1.7474329471588135,0
-0.5652356147766113,-1.9583778381347656,-1.2015560865402222,0
0.1403421014547348,-1.644134521484375,-0.5576263666152954,0
0.7018183469772339,-1.545309066772461,0.1708124577999115,0
1.016383171081543,-1.7979884147644043,0.8963192701339722,0
1.3028725385665894,-1.7108802795410156,0.9236167669296265,0
1.6209173202514648,-1.8391695022583008,1.1488791704177856,0
1.982553482055664,-1.8740334510803223,1.4157441854476929,0
2.4523870944976807,-1.4233570098876953,1.5354242324829102,0
2.7820088863372803,-1.0471220016479492,1.7770917415618896,0
2.9736201763153076,-0.6900835037231445,2.120574474334717,0
2.868161916732788,-0.29474544525146484,2.2189996242523193,0
2.5226755142211914,0.004908561706542969,2.094970941543579,0
1.4039608240127563,0.15621662139892578,1.8036737442016602,0
0.45048031210899353,0.12327861785888672,1.4265875816345215,0
-0.02281126379966736,0.09987735748291016,1.1395039558410645,0
-0.17345395684242249,0.15054035186767578,0.9900299906730652,0
0.0187932550907135,0.1915292739868164,0.9184759855270386,0
0.2916485071182251,0.19658946990966797,0.9608269929885864,0
0.41585052013397217,0.20162391662597656,1.0833051204681396,0
0.4146675169467926,0.23764419555664062,1.2855778932571411,0
0.47849881649017334,0.23280048370361328,1.5578736066818237,0
0.5227910280227661,0.2373065948486328,1.9289517402648926,0
0.70259028673172,0.3755149841308594,2.4760830402374268,0
0.8788217306137085,0.42494869232177734,2.9730377197265625,0
1.048954963684082,0.3738279342651367,3.3372550010681152,0
1.3012042045593262,0.5235757827758789,3.2872631549835205,0
1.5779889822006226,0.6371431350708008,2.7128281593322754,0
1.8767600059509277,0.8770389556884766,1.9336144924163818,0
2.074796438217163,1.3290510177612305,1.2072319984436035,0
2.1644859313964844,1.8087568283081055,0.7895796895027161,0
2.712700128555298,1.8881187438964844,0.3456181287765503,0
2.97489333152771,1.7493925094604492,0.12238222360610962,0
3.0252370834350586,1.5339908599853516,0.027388274669647217,0
3.3743157386779785,1.2971668243408203,0.20988941192626953,0
3.7315101623535156,1.2351713180541992,0.33297866582870483,0
3.916156053543091,1.2115488052368164,0.42520153522491455,0
4.068119525909424,1.092325210571289,0.3921762704849243,0
4.032251834869385,0.9898777008056641,0.3039836287498474,0
3.8057162761688232,0.734278678894043,0.3864908516407013,0
3.503046989440918,0.74169921875,0.7654818296432495,0
3.1359500885009766,1.1528911590576172,1.3473219871520996,0
2.5694541931152344,1.5225696563720703,1.8975114822387695,0
2.030397415161133,2.0731592178344727,2.3609910011291504,0
1.6502741575241089,2.5845203399658203,2.6089861392974854,0
1.0527887344360352,2.9825925827026367,2.713502883911133,0
0.6198855042457581,3.229248046875,2.463921546936035,0
0.45872777700424194,3.231431007385254,1.8019282817840576,0
0.5008760094642639,3.465428352355957,1.1933209896087646,0
0.47227296233177185,3.6776809692382812,0.6565581560134888,0
0.519650399684906,3.667567253112793,0.2248002290725708,0
0.33282068371772766,3.4044981002807617,0.112980917096138,0
0.053602635860443115,2.891407012939453,0.13602745532989502,0
-0.7964620590209961,2.334467887878418,0.2713719308376312,0
-1.6909104585647583,1.7914237976074219,0.3431665897369385,0
-2.610419750213623,1.2315845489501953,0.3476697504520416,0
-3.22349214553833,0.8037729263305664,0.3012101352214813,0
-3.4872241020202637,0.7475070953369141,0.37478065490722656,0
-3.593618154525757,0.9073305130004883,0.49891531467437744,0
-3.699746608734131,1.0990352630615234,0.6148446798324585,0
-3.775216579437256,1.157501220703125,0.6734393835067749,0
-3.8482584953308105,1.202138900756836,0.5605926513671875,0
-3.7330493927001953,1.1655254364013672,0.3147367238998413,0
-3.5663297176361084,1.052109718322754,-0.043796420097351074,0
-3.2301077842712402,1.1294097900390625,-0.4162503480911255,0
-2.917182207107544,1.2271089553833008,-0.9197336435317993,0
-2.7215046882629395,1.5554075241088867,-1.5018600225448608,0
-2.4740257263183594,1.7672243118286133,-2.1681137084960938,0
-2.2539610862731934,1.857813835144043,-2.9281983375549316,0
-1.950864315032959,1.9323549270629883,-3.8247785568237305,0
-1.3626004457473755,1.7803125381469727,-4.455709457397461,0
-0.7550181150436401,2.0162220001220703,-4.569370269775391,0
-0.14834704995155334,2.727932929992676,-4.536526203155518,0
0.3428651988506317,3.4462432861328125,-4.207123756408691,0
0.44195103645324707,3.972780227661133,-3.785585403442383,0
0.616115927696228,4.559388160705566,-3.252890110015869,0
0.8901344537734985,4.886252403259277,-2.291428327560425,0
1.1757698059082031,4.851099967956543,-1.1897079944610596,0
1.384817123413086,4.39659309387207,-0.011596441268920898,0
1.4464384317398071,3.6778364181518555,1.1062512397766113,0
1.4766783714294434,2.887744903564453,1.817805528640747,0
1.5031367540359497,2.1759748458862305,2.1002390384674072,0
1.6517571210861206,1.5153303146362305,2.004084587097168,0
1.6623752117156982,1.0414037704467773,1.5767223834991455,0
1.6843554973602295,0.6005477905273438,1.0605273246765137,0
1.835746169090271,0.33138561248779297,0.4094710350036621,0
1.9866307973861694,0.047469139099121094,-0.30846357345581055,0
1.8541704416275024,-0.2003946304321289,-1.0259759426116943,0
1.5529602766036987,-0.4281883239746094,-1.7741076946258545,0
1.141588807106018,-0.6758747100830078,-2.4160075187683105,0
0.874595046043396,-0.72265625,-3.0325515270233154,0
0.7885175943374634,-0.9292497634887695,-3.491116523742676,0
0.7237067818641663,-1.2064952850341797,-3.8406548500061035,0
0.6547229290008545,-1.4726800918579102,-4.136837005615234,0
0.6424366235733032,-1.7349228858947754,-4.348635196685791,0
0.5446168184280396,-1.991011142730713,-4.372842311859131,0
0.3745756447315216,-2.2436695098876953,-4.287832736968994,0
0.155427947640419,-2.443121910095215,-4.090433597564697,0
-0.12116079777479172,-2.647040367126465,-3.8759865760803223,0
-0.5448206663131714,-2.812532901763916,-3.737501621246338,0
-0.9629759192466736,-2.93729829788208,-3.593562602996826,0
-1.323490858078003,-2.973677635192871,-3.4846749305725098,0
-1.7417844533920288,-3.022568702697754,-3.288252353668213,0
-2.2041287422180176,-3.0867838859558105,-3.1710827350616455,0
-2.550429344177246,-3.016239643096924,-3.024522304534912,0
-2.7809343338012695,-2.859651565551758,-2.720679759979248,0
-3.0319478511810303,-2.787541389465332,-2.4069571495056152,0
-3.193488597869873,-2.8264150619506836,-2.238351583480835,0
-3.242199182510376,-2.864072799682617,-2.039654493331909,0
-3.2245564460754395,-3.0107927322387695,-1.867856740951538,0
-3.139279365539551,-3.1350040435791016,-1.6797771453857422,0
-2.924807071685791,-3.2796664237976074,-1.6285922527313232,0
-2.5878002643585205,-3.3848676681518555,-1.580261468887329,0
