AccX,AccY,AccZ,stepCount
-2.4424753189086914,2.4563493728637695,1.4275431632995605,5.131490707397461
-2.9175915718078613,3.292125701904297,1.0755982398986816,-1.5839455127716064
-3.2365527153015137,4.129758834838867,0.5494740009307861,4.275295734405518
-3.467561721801758,4.962045669555664,-0.20277690887451172,0.8946326971054077
-3.6163787841796875,5.856609344482422,-1.1399725675582886,4.60689115524292
-4.020224094390869,6.607141494750977,-2.262702465057373,2.460423707962036
-4.348501205444336,6.802920341491699,-3.2330074310302734,-3.241183042526245
-5.071939468383789,7.222495079040527,-3.684767723083496,-0.7867390513420105
-5.956644535064697,6.919358253479004,-3.7480502128601074,0
-6.383763790130615,5.271418571472168,-3.014559268951416,0
-5.683620929718018,3.062917709350586,-1.5322632789611816,0
-3.991934299468994,0.9202861785888672,0.17383980751037598,0
-1.3884576559066772,-0.9207429885864258,1.6013457775115967,0
0.9206085205078125,-2.5322723388671875,2.0978915691375732,0
2.346970558166504,-3.8439602851867676,1.6856493949890137,0
2.8067879676818848,-4.8418450355529785,0.5328514575958252,0
2.4439170360565186,-5.508843421936035,-1.0492823123931885,0
1.2322754859924316,-5.782105445861816,-2.6049129962921143,0
-0.015799403190612793,-5.895334243774414,-3.915715456008911,0
-1.0627514123916626,-5.7474894523620605,-4.777434825897217,0
-1.9387845993041992,-5.541592121124268,-5.152713775634766,0
-2.595787525177002,-5.174536228179932,-5.096162796020508,0
-3.201855182647705,-4.761105537414551,-4.719717979431152,0
-3.579376220703125,-4.167457580566406,-4.156300067901611,0
-3.8196768760681152,-3.599649429321289,-3.4594168663024902,0
-3.8322887420654297,-2.845208168029785,-2.750826358795166,0
-3.6032321453094482,-1.9501428604125977,-2.095355272293091,0
-3.2281546592712402,-0.9890327453613281,-1.5564848184585571,0
-2.7665131092071533,0.07365894317626953,-1.1219439506530762,0
-2.3850629329681396,1.106109619140625,-0.7539858818054199,0
-1.9366941452026367,1.9121170043945312,-0.3244422674179077,0
-1.5110538005828857,2.511014938354492,-0.07188796997070312,0
-1.2093051671981812,2.831310272216797,0.03516435623168945,0
-0.8575918674468994,3.0072431564331055,0.03764843940734863,0
-0.6192622184753418,3.0510597229003906,-0.14147424697875977,0
-0.38472241163253784,2.939253807067871,-0.5106450319290161,0
-0.09679266810417175,2.7033615112304688,-0.9470619559288025,0
0.2924337387084961,2.2529115676879883,-1.2777808904647827,0
0.7814241647720337,1.719869613647461,-1.5764535665512085,0
1.2181897163391113,1.195387840270996,-1.8618533611297607,0
1.6853026151657104,0.5887136459350586,-2.032783031463623,0
2.06223726272583,0.06971454620361328,-2.066373586654663,0
2.140209436416626,-0.26859092712402344,-1.9317121505737305,0
2.035806655883789,-0.5031099319458008,-1.6619067192077637,0
1.5494515895843506,-0.6007099151611328,-1.2774789333343506,0
0.763453483581543,-0.6478385925292969,-0.7913988828659058,0
0.06602385640144348,-0.6208038330078125,-0.3531543016433716,0
-0.489607036113739,-0.5078506469726562,-0.14365172386169434,0
-0.7907289862632751,-0.4310264587402344,-0.2560572028160095,0
-1.0768417119979858,-0.4404449462890625,-0.4823444187641144,0
-1.2547435760498047,-0.4020414352416992,-0.7129996418952942,0
-1.3107292652130127,-0.2799386978149414,-0.9534721970558167,0
-1.3314690589904785,-0.29176902770996094,-1.1826999187469482,0
-1.1111191511154175,-0.34406185150146484,-1.4016411304473877,0
-0.726073145866394,-0.568293571472168,-1.6055761575698853,0
-0.6606676578521729,-0.3665046691894531,-1.5476760864257812,0
-0.5589237809181213,-0.4374094009399414,-1.4000970125198364,0
-0.40939536690711975,-0.5702733993530273,-1.1982359886169434,0
-0.23380586504936218,-0.7363510131835938,-0.9391953945159912,0
-0.08757072687149048,-0.6965160369873047,-0.7660011053085327,0
0.06024301052093506,-0.6925268173217773,-0.6114168167114258,0
0.1259337067604065,-0.7530317306518555,-0.45849189162254333,0
0.25072839856147766,-0.7177591323852539,-0.31416189670562744,0
0.24103426933288574,-0.6705150604248047,-0.19034892320632935,0
0.297974556684494,-0.6710796356201172,-0.11821421980857849,0
0.3359554409980774,-0.6500463485717773,-0.17700757086277008,0
0.3744693398475647,-0.5763397216796875,-0.3433711528778076,0
0.3755270838737488,-0.5265340805053711,-0.5507535338401794,0
0.3751017153263092,-0.6153593063354492,-0.7228900194168091,0
0.4355834722518921,-0.6824531555175781,-0.8166669011116028,0
0.497251033782959,-0.7063350677490234,-0.8271389603614807,0
0.5291907787322998,-0.8161869049072266,-0.7729589343070984,0
0.5744053721427917,-0.8827762603759766,-0.64653480052948,0
0.5681541562080383,-0.8368120193481445,-0.540848970413208,0
0.6776164174079895,-0.82666015625,-0.4364967346191406,0
0.7520161867141724,-0.9096441268920898,-0.3405972719192505,0
0.7987023591995239,-0.8776092529296875,-0.2509094476699829,0
0.7508432865142822,-0.8382863998413086,-0.18682746589183807,0
0.7525097727775574,-1.0259971618652344,-0.14168387651443481,0
0.8732858300209045,-1.0291814804077148,-0.06773047149181366,0
0.751499593257904,-0.8193683624267578,0.06361670047044754,0
0.5041520595550537,-0.7219944000244141,0.21168939769268036,0
0.2864871919155121,-0.6843051910400391,0.38605573773384094,0
0.17963412404060364,-0.5842800140380859,0.5266705751419067,0
0.06656873971223831,-0.5750217437744141,0.6597263216972351,0
-0.07394571602344513,-0.5727329254150391,0.6844789385795593,0
0.02880348265171051,-0.5391416549682617,0.7491052150726318,0
-6.937235593795776E-4,-0.47188377380371094,0.7985328435897827,0
-0.04275231063365936,-0.44510936737060547,0.8640570640563965,0
0.027130812406539917,-0.37743473052978516,0.9483373165130615,0
0.11320212483406067,-0.35974693298339844,1.0491108894348145,0
0.14335623383522034,-0.35848140716552734,1.1140104532241821,0
0.10241064429283142,-0.06278610229492188,1.2364577054977417,0
0.1139923632144928,0.10610103607177734,1.3014013767242432,0
0.16082683205604553,0.2295980453491211,1.323083519935608,0
0.38397544622421265,0.25989818572998047,1.296184778213501,0
0.5919365882873535,0.2568330764770508,1.1723549365997314,0
0.7964613437652588,0.1964273452758789,1.0367604494094849,0
0.9542039632797241,0.1551504135131836,0.8144584894180298,0
1.136622667312622,0.06829166412353516,0.619459867477417,0
1.3171806335449219,-0.009221076965332031,0.39351409673690796,0
1.41826593875885,0.11614704132080078,0.2059137225151062,0
1.663743019104004,0.2144947052001953,0.09515547752380371,0
1.901845097541809,0.35039424896240234,0.27038097381591797,0
2.3592147827148438,0.5931901931762695,0.5964952707290649,0
2.78415584564209,0.938018798828125,0.8355681300163269,0
3.1839442253112793,1.2245826721191406,0.9022610187530518,0
3.403522253036499,1.4147090911865234,0.8875709772109985,0
3.718834161758423,1.585047721862793,0.8245198726654053,0
3.898613691329956,1.6566877365112305,0.6832466125488281,0
3.9821553230285645,1.749283790588379,0.40518027544021606,0
3.9654605388641357,1.905848503112793,0.020700156688690186,0
3.8873419761657715,2.095277786254883,-0.23322612047195435,0
3.762434720993042,2.274627685546875,-0.34831464290618896,0
3.6455745697021484,2.5803003311157227,-0.3617604970932007,0
3.555471897125244,2.9954442977905273,-0.4211633801460266,0
3.5057806968688965,3.4457778930664062,-0.5549880266189575,0
3.4911575317382812,3.8523178100585938,-0.5864805579185486,0
3.4708075523376465,4.117067337036133,-0.38480067253112793,0
3.6313958168029785,4.388472557067871,-0.012755036354064941,0
3.8150486946105957,4.843533515930176,0.6323789954185486,0
4.041409969329834,5.331454277038574,1.4595015048980713,0
4.280905723571777,5.806862831115723,2.276702404022217,0
4.3104352951049805,6.155026435852051,2.702394962310791,0
2.7772018909454346,6.375903129577637,2.6340436935424805,0
0.5409486293792725,6.024710655212402,2.2268078327178955,0
-0.7646081447601318,5.214591979980469,1.6266918182373047,0
-1.4334309101104736,4.316978454589844,1.0787861347198486,0
-1.7591595649719238,3.310793876647949,0.812590479850769,0
-2.042736768722534,2.371114730834961,0.8555850386619568,0
-2.2309796810150146,1.5412626266479492,1.0470986366271973,0
-2.2777962684631348,0.7783527374267578,1.250359296798706,0
-2.3070497512817383,0.13990116119384766,1.2873382568359375,0
-2.2892234325408936,-0.5079536437988281,1.1533966064453125,0
-2.1206133365631104,-1.0573911666870117,0.829103946685791,0
-2.0137267112731934,-1.4891891479492188,0.520047664642334,0
-1.910683035850525,-1.8463068008422852,0.25261038541793823,0
-1.8547135591506958,-1.9708433151245117,0.10158151388168335,0
-1.9731987714767456,-1.812774658203125,0.12813222408294678,0
-2.0991435050964355,-1.4586334228515625,0.28916382789611816,0
-2.1443238258361816,-1.1743764877319336,0.38660597801208496,0
-2.128063201904297,-0.9747943878173828,0.39752280712127686,0
-2.131971597671509,-0.8460865020751953,0.2124788761138916,0
-2.082252264022827,-0.7767906188964844,-0.21694350242614746,0
-2.0463342666625977,-0.724247932434082,-0.7966184616088867,0
-2.094334840774536,-0.6432590484619141,-1.5076309442520142,0
-2.119485855102539,-0.5648775100708008,-2.286895751953125,0
-2.0848145484924316,-0.5007963180541992,-3.050229549407959,0
-2.003204584121704,-0.44818973541259766,-3.7568931579589844,0
-1.635562539100647,-0.36606788635253906,-4.190984725952148,0
-1.141986608505249,-0.2398233413696289,-4.380466938018799,0
-0.7017648816108704,0.007190704345703125,-4.259308338165283,0
-0.3154034912586212,0.2959327697753906,-3.741516590118408,0
0.009211421012878418,0.7171239852905273,-2.9153077602386475,0
0.22842007875442505,1.1124143600463867,-1.932414174079895,0
0.43270063400268555,1.5962591171264648,-0.9948616027832031,0
0.5644490122795105,2.093989372253418,-0.04132723808288574,0
0.5953540802001953,2.63626766204834,0.8695056438446045,0
0.47117042541503906,3.0937070846557617,1.5969388484954834,0
0.23163700103759766,3.4187231063842773,1.9082863330841064,0
0.03644764423370361,3.4133548736572266,1.8549420833587646,0
-0.20064330101013184,3.07352352142334,1.5455279350280762,0
-0.475055456161499,2.5505666732788086,0.9976921081542969,0
-0.7707890868186951,2.000408172607422,0.32489967346191406,0
-1.0199267864227295,1.5426883697509766,-0.37778377532958984,0
-1.107323169708252,1.2250299453735352,-0.9956910610198975,0
-1.2296231985092163,0.8460063934326172,-1.4896578788757324,0
-1.2057141065597534,0.5722885131835938,-1.8266842365264893,0
-1.2451560497283936,0.2762422561645508,-2.0286290645599365,0
-1.2937976121902466,-0.05947589874267578,-2.1394600868225098,0
-1.3951818943023682,-0.3514270782470703,-2.268669605255127,0
-1.5569490194320679,-0.621251106262207,-2.38985538482666,0
-1.8365986347198486,-0.9118175506591797,-2.561056613922119,0
-2.157613754272461,-1.174936294555664,-2.7209763526916504,0
-2.5176546573638916,-1.4079012870788574,-2.8561902046203613,0
-2.900129795074463,-1.619856834411621,-2.927135944366455,0
-3.2477381229400635,-1.8272595405578613,-2.9824259281158447,0
-3.5869626998901367,-2.039407253265381,-2.9461536407470703,0
-3.8820595741271973,-2.1293811798095703,-2.8738019466400146,0
-4.037696361541748,-2.159493923187256,-2.73903751373291,0
-4.025564670562744,-2.1228556632995605,-2.51031494140625,0
-3.847933530807495,-2.0750513076782227,-2.24185848236084,0
-3.2455601692199707,-2.000016212463379,-1.9831864833831787,0
-2.6556200981140137,-1.917569637298584,-1.762148141860962,0
-2.170950412750244,-1.919046401977539,-1.5278260707855225,0
-1.8392324447631836,-1.9783892631530762,-1.360917329788208,0
-1.581605315208435,-2.0527443885803223,-1.2559940814971924,0
-1.3457186222076416,-2.175710678100586,-1.2436637878417969,0
-1.2442246675491333,-2.2994046211242676,-1.3428144454956055,0
-1.1480287313461304,-2.512139320373535,-1.5152785778045654,0
-1.1363941431045532,-2.6678285598754883,-1.6749041080474854,0
-1.2932730913162231,-2.761474609375,-1.7957515716552734,0
-1.1921988725662231,-3.3353772163391113,-2.0849246978759766,0
-1.184126615524292,-3.7072739601135254,-2.289548873901367,0
-1.3260586261749268,-4.028017520904541,-2.3716204166412354,0
-1.4405561685562134,-4.3813676834106445,-2.3672242164611816,0
-1.6637113094329834,-4.743391990661621,-2.326655149459839,0
-2.011979579925537,-5.011385440826416,-2.132472515106201,0
-2.4037961959838867,-5.259796142578125,-1.8297340869903564,0
-2.760065793991089,-5.476903438568115,-1.4920854568481445,0
-3.090162754058838,-5.610372543334961,-1.1141107082366943,0
-3.2095158100128174,-5.653313636779785,-0.7790453433990479,0
-3.275446891784668,-5.665719032287598,-0.45069432258605957,0
-3.33471941947937,-5.8744797706604,-0.3020193576812744,0
-3.331937313079834,-5.743157863616943,-0.19042611122131348,0
-3.296308755874634,-5.398200035095215,-0.09534859657287598,0
-3.101940155029297,-4.753036975860596,0.02762293815612793,0
-2.8045878410339355,-3.8598060607910156,0.11235475540161133,0
-2.4174489974975586,-2.646214485168457,0.174086332321167,0
-1.8346331119537354,-1.2720050811767578,0.19454693794250488,0
-1.1681973934173584,0.21309471130371094,0.1701371669769287,0
-0.44435203075408936,1.6684303283691406,0.14293265342712402,0
0.1789175271987915,3.135249137878418,0.08066606521606445,0
0.7777113914489746,4.5687103271484375,0.03457045555114746,0
1.267586350440979,5.892928123474121,0.07961845397949219,0
1.7222927808761597,7.05341911315918,0.38439512252807617,0
2.220669746398926,7.961789131164551,1.157102108001709,0
2.8279342651367188,8.505134582519531,2.4501540660858154,0
3.637690544128418,8.419360160827637,4.210178375244141,0
4.713469505310059,7.736669540405273,6.126262664794922,0
5.819611072540283,6.527649879455566,7.702465534210205,0
5.987409591674805,5.22755241394043,8.160011291503906,0
4.4385786056518555,4.459005355834961,7.445123195648193,0
3.2169017791748047,4.171950340270996,6.410491466522217,0
2.389951229095459,4.277470588684082,5.497967720031738,0
1.8033367395401,4.497478485107422,4.705104827880859,0
1.3844332695007324,4.9390668869018555,4.003383636474609,0
0.96229088306427,5.508394241333008,3.1993162631988525,0
0.4157916307449341,6.128619194030762,2.2955002784729004,0
-0.35238194465637207,6.4528608322143555,1.2633893489837646,0
-1.0348758697509766,6.411888122558594,0.10108113288879395,0
-1.9218312501907349,6.744428634643555,-0.848136305809021,0
-2.588146209716797,6.5195207595825195,-1.7131344079971313,0
-2.9462671279907227,6.003236770629883,-2.444444179534912,0
-3.423461437225342,5.59091854095459,-2.996497392654419,0
-4.0314717292785645,4.757410049438477,-3.6363329887390137,0
-4.759740829467773,3.4212541580200195,-4.233489990234375,0
-5.53693962097168,1.704512596130371,-4.538509368896484,0
-6.121044158935547,-0.37209510803222656,-4.307979583740234,0
-6.364780426025391,-2.380570411682129,-3.269658088684082,0
-6.3189544677734375,-4.131486892700195,-1.6459708213806152,0
-6.049116134643555,-5.579067707061768,-0.12213420867919922,0
-5.729341506958008,-6.758150100708008,0.7999329566955566,0
-4.91110897064209,-7.494905948638916,0.7894933223724365,0
-3.5606884956359863,-7.981359481811523,0.13755440711975098,0
-2.619504928588867,-8.222424507141113,-0.8191378116607666,0
-1.9867675304412842,-8.014753341674805,-1.8331446647644043,0
-1.5609135627746582,-7.5376691818237305,-2.755563735961914,0
-1.1536697149276733,-6.872140884399414,-3.537954330444336,0
-0.7814645767211914,-6.077511787414551,-3.971273899078369,0
-0.4619992673397064,-5.232129096984863,-4.133377552032471,0
-0.1324877142906189,-4.258974075317383,-3.986010789871216,0
0.23793107271194458,-3.0145134925842285,-3.534061908721924,0
0.5079756379127502,-1.504176139831543,-2.8415756225585938,0
0.6903383135795593,0.16574668884277344,-2.15936541557312,0
0.8123564124107361,1.695291519165039,-1.6443544626235962,0
0.8583265542984009,3.0670061111450195,-1.2048403024673462,0
0.8507684469223022,4.179866790771484,-0.8982089161872864,0
0.7620093822479248,4.921302795410156,-0.7953149676322937,0
0.6531292200088501,5.0978899002075195,-0.7723596692085266,0
0.6494334936141968,4.9998273849487305,-0.6453242301940918,0
0.7902280688285828,4.723691940307617,-0.6082311868667603,0
1.124457597732544,4.131844520568848,-0.5959541201591492,0
1.5075207948684692,3.349851608276367,-0.6374925374984741,0
1.9221924543380737,2.3499364852905273,-0.599185049533844,0
2.3523244857788086,1.460392951965332,-0.6288748383522034,0
2.696288585662842,0.6167488098144531,-0.7919082045555115,0
2.972513198852539,0.060471534729003906,-1.0732494592666626,0
3.2238540649414062,-0.22809886932373047,-1.2409485578536987,0
3.3475723266601562,-0.2902555465698242,-1.2506518363952637,0
3.0348281860351562,-0.23905086517333984,-1.0449352264404297,0
2.5458199977874756,-0.20891857147216797,-0.699873149394989,0
1.9251753091812134,-0.2647438049316406,-0.2820965647697449,0
0.9921090602874756,-0.3110208511352539,0.06694912910461426,0
0.039294421672821045,-0.4005088806152344,0.2648407816886902,0
-0.6888299584388733,-0.4949455261230469,0.25466442108154297,0
-1.046008586883545,-0.6397294998168945,0.009763598442077637,0
-1.2881559133529663,-0.7318935394287109,-0.38709038496017456,0
-1.5138741731643677,-0.7761745452880859,-0.7934490442276001,0
-1.640488624572754,-0.8035869598388672,-1.1124858856201172,0
-1.8342632055282593,-0.8642578125,-1.3883140087127686,0
-1.9191808700561523,-0.9413461685180664,-1.4780216217041016,0
-1.735698938369751,-1.0444087982177734,-1.3696998357772827,0
-1.4804797172546387,-1.1304388046264648,-1.1870579719543457,0
-1.1896828413009644,-1.2210760116577148,-0.8545408844947815,0
-0.8821901679039001,-1.3068780899047852,-0.5356221199035645,0
-0.6844138503074646,-1.3951044082641602,-0.3366526663303375,0
-0.41643354296684265,-1.492959976196289,-0.29277053475379944,0
-0.25248992443084717,-1.5023813247680664,-0.42070361971855164,0
-0.05349385738372803,-1.511911392211914,-0.5389174222946167,0
0.09204816818237305,-1.526270866394043,-0.6338013410568237,0
0.12883839011192322,-1.4808263778686523,-0.7228251695632935,0
0.14967527985572815,-1.3851594924926758,-0.7611387968063354,0
0.2163437008857727,-1.2417030334472656,-0.7488247156143188,0
0.3071743845939636,-1.0648574829101562,-0.733737587928772,0
0.38648369908332825,-0.9144554138183594,-0.6461338996887207,0
0.5623453259468079,-0.780909538269043,-0.6269612312316895,0
0.5692708492279053,-0.77178955078125,-0.5850611925125122,0
0.5339319705963135,-0.6095438003540039,-0.5876284241676331,0
0.5160419344902039,-0.4210624694824219,-0.6183822154998779,0
0.4367622137069702,-0.31635570526123047,-0.6203811764717102,0
0.3298601508140564,-0.2905282974243164,-0.5677844285964966,0
0.16674719750881195,-0.2908754348754883,-0.46781522035598755,0
0.07422088086605072,-0.2910623550415039,-0.35140544176101685,0
0.04287268966436386,-0.30782604217529297,-0.23715490102767944,0
-0.05640171468257904,-0.3028745651245117,-0.15818989276885986,0
-0.1924322247505188,-0.40294551849365234,-0.11907197535037994,0
-0.2310633510351181,-0.5337591171264648,-0.07916512340307236,0
-0.12692943215370178,-0.4967927932739258,-0.02645893394947052,0
-0.13363732397556305,-0.5193881988525391,0.01269705593585968,0
-0.05480290949344635,-0.5416679382324219,0.09074525535106659,0
0.08086411654949188,-0.5468711853027344,0.23620852828025818,0
0.2567654848098755,-0.5804195404052734,0.4107087254524231,0
0.39643317461013794,-0.6541996002197266,0.6190708875656128,0
0.6194700598716736,-0.5744533538818359,0.8205651044845581,0
0.7585192918777466,-0.5804510116577148,0.9767246246337891,0
0.8397561311721802,-0.49751949310302734,1.130378007888794,0
0.7501630783081055,-0.36165904998779297,1.226069688796997,0
0.678144097328186,-0.2877616882324219,1.2392265796661377,0
0.5297158360481262,-0.25670719146728516,1.3102028369903564,0
0.44080400466918945,-0.23267841339111328,1.313625454902649,0
0.43276309967041016,-0.22772979736328125,1.291609525680542,0
0.3951699137687683,-0.20848751068115234,1.2289789915084839,0
0.42337191104888916,-0.1487865447998047,1.1274887323379517,0
0.5219329595565796,-0.08463859558105469,1.0274240970611572,0
0.6210280060768127,-0.004169464111328125,0.9120099544525146,0
0.798872172832489,0.1905536651611328,0.7671209573745728,0
1.030712604522705,0.43956947326660156,0.6509798169136047,0
1.5091638565063477,0.800196647644043,0.8019654750823975,0
2.077730894088745,1.3009910583496094,0.989330530166626,0
2.71891713142395,1.6571950912475586,1.0177786350250244,0
3.2790563106536865,1.8617420196533203,0.9187465906143188,0
3.7937355041503906,1.8310518264770508,0.8379555344581604,0
4.188737869262695,1.706435203552246,0.8657230734825134,0
4.502572059631348,1.5047197341918945,0.8745834827423096,0
4.738068580627441,1.295339584350586,0.7918844223022461,0
4.912390232086182,1.1500558853149414,0.5404077172279358,0
5.038115501403809,1.152592658996582,0.37877753376960754,0
5.211786270141602,1.3220882415771484,0.3963415026664734,0
5.4538493156433105,1.6107559204101562,0.5726634860038757,0
5.696439266204834,2.140580177307129,0.6402249336242676,0
5.735191822052002,2.798929214477539,0.34917086362838745,0
5.669232368469238,3.3632354736328125,-0.10878270864486694,0
5.560877323150635,3.8598546981811523,-0.6476086378097534,0
5.254118919372559,4.21232795715332,-0.9656059741973877,0
4.999456405639648,4.358746528625488,-0.8962019681930542,0
4.637924671173096,4.39516544342041,-0.4654531180858612,0
4.829807758331299,4.336325645446777,0.4142083525657654,0
4.681492805480957,4.354681015014648,1.6638240814208984,0
2.777986526489258,4.3927202224731445,3.0942537784576416,0
0.7529103755950928,4.220897674560547,4.055225849151611,0
-0.7701564431190491,3.744093894958496,4.389647006988525,0
-1.6508021354675293,3.037308692932129,4.28619384765625,0
-2.204582691192627,2.512688636779785,3.7637550830841064,0
-2.6582207679748535,2.1849470138549805,3.005159378051758,0
-2.9300384521484375,2.135648727416992,2.1346940994262695,0
-3.120518684387207,2.163959503173828,1.3161760568618774,0
-3.2781453132629395,2.3942623138427734,0.8628307580947876,0
-3.3803441524505615,2.5607919692993164,0.6245040893554688,0
-3.3760550022125244,2.5365829467773438,0.5445228815078735,0
-3.3411481380462646,2.417024612426758,0.4440457820892334,0
-3.287473678588867,2.242234230041504,0.3332289457321167,0
-3.2801320552825928,1.9899539947509766,0.10039222240447998,0
-3.176176071166992,1.7790145874023438,-0.3117690086364746,0
-3.0845303535461426,1.6805028915405273,-0.8375002145767212,0
-2.9467947483062744,1.6532478332519531,-1.3666318655014038,0
-2.9464778900146484,1.713775634765625,-1.938143253326416,0
-2.924872636795044,1.7138080596923828,-2.428877830505371,0
-2.8762049674987793,1.6941413879394531,-2.7609076499938965,0
-2.8756356239318848,1.552107810974121,-2.9496989250183105,0
-2.792294502258301,1.3957843780517578,-3.116488456726074,0
-2.636371612548828,1.2494564056396484,-3.181396007537842,0
-1.9435254335403442,1.0846996307373047,-3.052565574645996,0
-1.2493911981582642,0.7488927841186523,-2.8895647525787354,0
-0.6326773166656494,0.3907928466796875,-2.602499485015869,0
-0.22530072927474976,0.28092479705810547,-2.2423081398010254,0
0.04457855224609375,0.2110300064086914,-1.749199628829956,0
0.3111974000930786,0.32471179962158203,-1.2528046369552612,0
0.503732442855835,0.4686698913574219,-0.6574134826660156,0
0.7667852640151978,0.6999921798706055,-0.06540322303771973,0
0.9410759210586548,0.8194952011108398,0.5437796115875244,0
1.0371662378311157,0.9963979721069336,1.071143627166748,0
0.9938696622848511,1.1273069381713867,1.3549363613128662,0
0.924605131149292,1.2000961303710938,1.3164308071136475,0
0.7559175491333008,1.222062110900879,0.981548547744751,0
0.4691886901855469,1.0474681854248047,0.4647853374481201,0
0.12404811382293701,0.8416042327880859,-0.08806395530700684,0
-0.35900235176086426,0.5852441787719727,-0.5593750476837158,0
-0.8147536516189575,0.37851524353027344,-1.049065351486206,0
-1.1113489866256714,0.12532806396484375,-1.4418904781341553,0
-1.2460521459579468,-0.1508636474609375,-1.7971134185791016,0
-1.3237544298171997,-0.508000373840332,-2.1307637691497803,0
-1.3224611282348633,-0.8937821388244629,-2.435379981994629,0
-1.3829376697540283,-1.246328353881836,-2.7825212478637695,0
-1.4789156913757324,-1.637455940246582,-3.0885682106018066,0
-1.6921067237854004,-2.086108684539795,-3.4279708862304688,0
-1.958709478378296,-2.5175957679748535,-3.889923095703125,0
-2.311000108718872,-2.921687126159668,-4.372378826141357,0
-2.611393928527832,-3.21870756149292,-4.893202781677246,0
-2.860792875289917,-3.4224066734313965,-5.391330718994141,0
-3.1673035621643066,-3.5443215370178223,-5.767280101776123,0
-3.3803582191467285,-3.5770010948181152,-6.05300760269165,0
-3.6387577056884766,-3.5586657524108887,-6.138932228088379,0
-3.8463540077209473,-3.4104504585266113,-6.128384590148926,0
-4.079376220703125,-3.1972241401672363,-5.9041643142700195,0
-4.163030624389648,-2.9265832901000977,-5.475491523742676,0
-4.2956085205078125,-2.6516480445861816,-4.923174858093262,0
-4.2876482009887695,-2.461501121520996,-4.270300388336182,0
-4.081421375274658,-2.2634754180908203,-3.6162948608398438,0
-3.8775618076324463,-2.170708656311035,-2.88580322265625,0
-3.5559768676757812,-2.1838512420654297,-2.1446030139923096,0
-3.2146172523498535,-2.315469741821289,-1.3722355365753174,0
-2.8562097549438477,-2.5062270164489746,-0.6893553733825684,0
-2.5246028900146484,-2.7468104362487793,-0.10433530807495117,0
-2.24951171875,-3.0347657203674316,0.31899404525756836,0
-2.0004494190216064,-3.3436102867126465,0.6838788986206055,0
-1.8611726760864258,-3.5392403602600098,0.971160888671875,0
-1.7784724235534668,-3.593021869659424,1.2310237884521484,0
-1.7872869968414307,-3.545571804046631,1.398425579071045,0
-1.8343260288238525,-3.44681453704834,1.5061883926391602,0
-1.9023919105529785,-3.2700581550598145,1.615804672241211,0
-2.0825047492980957,-3.153684139251709,1.7532413005828857,0
-2.317995548248291,-3.0231714248657227,1.8708257675170898,0
-2.6268997192382812,-2.976210117340088,1.9665591716766357,0
-2.838192939758301,-3.031403064727783,1.9354183673858643,0
-2.9424657821655273,-3.233431816101074,1.6498939990997314,0
-2.9103171825408936,-3.4451255798339844,1.1086108684539795,0
-2.7401223182678223,-3.656309127807617,0.3480243682861328,0
-2.5091969966888428,-3.5244545936584473,-0.4617576599121094,0
-2.2822015285491943,-3.0183463096618652,-1.2684707641601562,0
-1.9910495281219482,-1.9202327728271484,-2.0340476036071777,0
-1.6920936107635498,-0.33529090881347656,-2.688765287399292,0
-1.4228501319885254,1.473851203918457,-3.1458139419555664,0
-0.982844352722168,3.237715721130371,-3.4259042739868164,0
-0.6305294036865234,5.109906196594238,-3.2690138816833496,0
-0.20566916465759277,6.772504806518555,-2.574791193008423,0
0.29476213455200195,8.244718551635742,-1.3159438371658325,0
0.9926811456680298,9.394746780395508,0.46140599250793457,0
2.0872864723205566,10.076247215270996,2.587007522583008,0
3.3769450187683105,9.662226676940918,4.612794399261475,0
4.626204490661621,8.370660781860352,6.467576503753662,0
5.2914018630981445,6.500800132751465,7.54817008972168,0
5.328502178192139,4.5759992599487305,8.360316276550293,0
4.841009140014648,3.0901670455932617,8.675516128540039,0
4.234801769256592,2.455564498901367,8.136011123657227,0
3.456477165222168,2.7327890396118164,6.798328399658203,0
2.879650115966797,3.537604331970215,5.217343330383301,0
2.1691222190856934,4.615233421325684,3.702289342880249,0
1.1643792390823364,5.5536298751831055,2.1887590885162354,0
0.23390734195709229,5.23165225982666,0.3999350070953369,0
-0.5482810735702515,5.045339584350586,-1.1646199226379395,0
-1.2611963748931885,4.555184364318848,-2.460878372192383,0
-1.8377019166946411,4.257555961608887,-3.3510079383850098,0
-2.561077833175659,4.220863342285156,-3.848008632659912,0
-3.4956088066101074,4.045177459716797,-3.966646909713745,0
-4.549012184143066,3.4410009384155273,-3.6786413192749023,0
-5.657670974731445,2.1039724349975586,-2.9941954612731934,0
-6.594236373901367,0.0944356918334961,-1.8564565181732178,0
-7.113216876983643,-1.717850685119629,-0.4417109489440918,0
-7.2853593826293945,-3.303708076477051,0.7936264276504517,0
-7.244379997253418,-4.636073112487793,1.4008110761642456,0
-6.967438697814941,-5.70170783996582,1.1463702917099,0
-6.153539657592773,-6.484570503234863,-0.01422274112701416,0
-4.733043193817139,-6.956520080566406,-1.3995654582977295,0
-3.578754425048828,-7.084414958953857,-2.8342740535736084,0
-2.5426876544952393,-6.882701396942139,-4.191823482513428,0
-1.571686029434204,-6.485335350036621,-5.257148265838623,0
-0.6787220239639282,-5.992615699768066,-6.013691425323486,0
0.18184241652488708,-5.162899971008301,-6.42496919631958,0
0.9018599987030029,-4.1303582191467285,-6.54951286315918,0
1.5019956827163696,-2.890434741973877,-6.332619667053223,0
1.7872532606124878,-1.5343437194824219,-5.9173383712768555,0
1.8635505437850952,-0.06474018096923828,-5.314779281616211,0
1.7816405296325684,1.4989404678344727,-4.490447521209717,0
1.8238539695739746,2.936429023742676,-3.4887866973876953,0
1.8489470481872559,3.879544258117676,-2.318729877471924,0
2.084641933441162,4.307312965393066,-1.0302135944366455,0
2.640427827835083,4.294355392456055,0.5546096563339233,0
3.2181649208068848,4.147127151489258,1.8818562030792236,0
3.62539005279541,3.7318296432495117,2.751896858215332,0
4.005443096160889,2.8073110580444336,2.9911863803863525,0
4.27760648727417,1.9817085266113281,2.611586093902588,0
4.188348293304443,1.1883058547973633,1.630304217338562,0
4.1176252365112305,0.32464122772216797,0.35525357723236084,0
4.021302223205566,-0.3195981979370117,-0.817247748374939,0
3.710650682449341,-0.5986824035644531,-1.619638442993164,0
2.691685199737549,-0.6038656234741211,-1.9796099662780762,0
1.4923174381256104,-0.45511913299560547,-1.7660890817642212,0
0.4543067514896393,-0.1815032958984375,-1.3014190196990967,0
-0.242529958486557,-0.027298927307128906,-0.7610822916030884,0
-0.5947335958480835,0.014570236206054688,-0.2963150143623352,0
-0.9749356508255005,0.037291526794433594,0.15947067737579346,0
-1.2512242794036865,0.007267951965332031,0.4500582218170166,0
-1.4044114351272583,0.008189201354980469,0.46164369583129883,0
-1.4994144439697266,-0.02213764190673828,0.2639448642730713,0
-1.6470509767532349,-0.047736167907714844,-0.08817386627197266,0
-1.7645595073699951,-0.16179847717285156,-0.38444000482559204,0
-1.6806340217590332,-0.29482269287109375,-0.5772510170936584,0
-1.4391453266143799,-0.4276294708251953,-0.6668144464492798,0
-1.3899633884429932,-0.5865039825439453,-0.8468767404556274,0
-1.327576994895935,-0.800105094909668,-0.8660614490509033,0
-1.1563739776611328,-1.0683708190917969,-0.8894150853157043,0
-0.8930872082710266,-1.2955961227416992,-0.9383584260940552,0
-0.6738326549530029,-1.496185302734375,-0.9052587151527405,0
-0.40479519963264465,-1.6653938293457031,-0.9600849151611328,0
-0.0973224937915802,-1.8726234436035156,-0.868346095085144,0
0.15589836239814758,-2.0724143981933594,-0.821391224861145,0
0.4030628800392151,-2.1093602180480957,-0.761715292930603,0
0.5436935424804688,-2.031465530395508,-0.7516961097717285,0
0.5727487206459045,-1.8842792510986328,-0.7460814118385315,0
0.6071224212646484,-1.6176586151123047,-0.6922126412391663,0
0.5700480937957764,-1.3799924850463867,-0.6522232294082642,0
0.5357725620269775,-1.180802345275879,-0.6188974976539612,0
0.5067487359046936,-0.9626541137695312,-0.5778013467788696,0
0.4761286973953247,-0.9001226425170898,-0.5647968053817749,0
0.3677504360675812,-0.7515068054199219,-0.5297328233718872,0
0.2059037983417511,-0.5169095993041992,-0.5043061375617981,0
0.19444629549980164,-0.3399019241333008,-0.4843359589576721,0
0.10652296245098114,-0.2323760986328125,-0.36244484782218933,0
0.07650342583656311,-0.12729549407958984,-0.1527118682861328,0
0.0614454448223114,-0.12507247924804688,0.10700633376836777,0
-0.005738385021686554,-0.12512588500976562,0.29527348279953003,0
0.015775397419929504,-0.05807685852050781,0.40300068259239197,0
0.018373869359493256,-0.16787338256835938,0.41351479291915894,0
0.08817038685083389,-0.2797117233276367,0.37932419776916504,0
0.06703874468803406,-0.3624715805053711,0.36010152101516724,0
0.1964542269706726,-0.32768821716308594,0.30568936467170715,0
0.36139774322509766,-0.251983642578125,0.2904507517814636,0
0.4278019666671753,-0.3744792938232422,0.2834802567958832,0
0.701985239982605,-0.374481201171875,0.24163715541362762,0
0.8944758176803589,-0.42903614044189453,0.26072412729263306,0
1.0963956117630005,-0.595402717590332,0.35283175110816956,0
1.2310513257980347,-0.7275362014770508,0.47483450174331665,0
1.2910168170928955,-0.7943801879882812,0.5951429605484009,0
1.357060194015503,-0.8319368362426758,0.688617467880249,0
1.3088501691818237,-0.7997159957885742,0.7702138423919678,0
1.320378303527832,-0.7960357666015625,0.7779078483581543,0
1.2712420225143433,-0.7780370712280273,0.8558026552200317,0
1.2180862426757812,-0.6646404266357422,0.935692310333252,0
1.0884552001953125,-0.46566104888916016,1.0222959518432617,0
1.0851397514343262,-0.2529573440551758,1.1790859699249268,0
1.1671028137207031,-0.009745597839355469,1.379345417022705,0
1.408794641494751,0.25927734375,1.5842750072479248,0
1.7600538730621338,0.6019458770751953,1.5675992965698242,0
2.0796682834625244,0.9511775970458984,1.310316801071167,0
2.254661798477173,1.2637929916381836,0.8958101868629456,0
2.5185770988464355,1.496647834777832,0.6610580682754517,0
2.915926694869995,1.7119178771972656,0.6754977107048035,0
3.3645737171173096,1.8473787307739258,0.7239280939102173,0
3.96681809425354,1.8719873428344727,0.6606895923614502,0
4.439917087554932,1.843205451965332,0.48813948035240173,0
4.824707508087158,1.7132463455200195,0.1915481686592102,0
4.999325752258301,1.5300321578979492,-0.23687231540679932,0
5.095514297485352,1.468184471130371,-0.6420519351959229,0
5.156609535217285,1.4798145294189453,-0.9138922691345215,0
5.175748825073242,1.6223373413085938,-1.0449137687683105,0
5.2323455810546875,1.8694276809692383,-1.1210039854049683,0
5.132908821105957,2.2999610900878906,-1.24993097782135,0
5.131195545196533,2.794239044189453,-1.4009722471237183,0
4.985450744628906,3.392911911010742,-1.4094810485839844,0
5.143486976623535,3.8927621841430664,-1.1586830615997314,0
5.313896179199219,4.219976425170898,-0.5935025215148926,0
5.459599494934082,4.501709938049316,0.2814173102378845,0
5.766425132751465,4.750168800354004,1.3226126432418823,0
5.752121925354004,5.144845008850098,2.4077775478363037,0
3.5199575424194336,5.599401473999023,3.181161642074585,0
0.7924802303314209,5.561455726623535,3.472464084625244,0
-0.9067288041114807,4.826351165771484,3.307286262512207,0
-1.997390627861023,3.9000282287597656,2.9131462574005127,0
-2.682809591293335,3.1587047576904297,2.3827528953552246,0
-3.099104166030884,2.69350528717041,1.7696362733840942,0
-3.469298839569092,2.5355215072631836,1.2578113079071045,0
-3.698702573776245,2.543458938598633,1.024580955505371,0
-3.7645368576049805,2.6573572158813477,0.9263612627983093,0
-3.7901670932769775,2.6928396224975586,0.9559377431869507,0
-3.74123215675354,2.649754524230957,0.9910197257995605,0
-3.638437271118164,2.4632644653320312,1.0217938423156738,0
-3.508068561553955,2.15939998626709,0.9091650247573853,0
-3.4584765434265137,1.8118648529052734,0.6747560501098633,0
-3.4121716022491455,1.4321203231811523,0.25360333919525146,0
-3.406897783279419,1.156071662902832,-0.3076484203338623,0
-3.327342987060547,0.9019670486450195,-0.8792928457260132,0
-3.36417818069458,0.7435874938964844,-1.3581016063690186,0
-3.315720558166504,0.4486560821533203,-1.8230594396591187,0
-3.329477310180664,0.18703746795654297,-2.1957080364227295,0
-3.3252742290496826,-0.022256851196289062,-2.543435573577881,0
-3.2365899085998535,-0.21038150787353516,-2.9027438163757324,0
-2.673053741455078,-0.3819093704223633,-3.1724276542663574,0
-1.8927526473999023,-0.4288177490234375,-3.282987594604492,0
-1.2522557973861694,-0.33167457580566406,-3.1813535690307617,0
-0.7804761528968811,-0.1548318862915039,-2.957425355911255,0
-0.425363153219223,0.04457664489746094,-2.56430983543396,0
-0.06810754537582397,0.333709716796875,-2.0000314712524414,0
0.11354601383209229,0.722163200378418,-1.3339980840682983,0
0.3325955867767334,1.0399913787841797,-0.59208083152771,0
0.5420643091201782,1.2796516418457031,0.14810919761657715,0
0.7242715358734131,1.6559686660766602,0.8278417587280273,0
0.8378314971923828,1.8048944473266602,1.2995703220367432,0
0.8746976852416992,1.8363571166992188,1.5112411975860596,0
0.7359791994094849,1.7790498733520508,1.4675614833831787,0
0.5208035707473755,1.5781278610229492,1.199206829071045,0
0.1554253101348877,1.248178482055664,0.7991609573364258,0
-0.10399425029754639,0.877812385559082,0.31278014183044434,0
-0.4294925928115845,0.40682220458984375,-0.05576014518737793,0
-0.6889141798019409,-0.0024662017822265625,-0.45682191848754883,0
-0.9418562650680542,-0.37685298919677734,-0.818061113357544,0
-1.0997072458267212,-0.6785516738891602,-1.1843476295471191,0
-1.2127312421798706,-0.9486722946166992,-1.4882252216339111,0
-1.2211127281188965,-1.2760438919067383,-1.7867937088012695,0
-1.2276453971862793,-1.6321067810058594,-2.077569007873535,0
-1.2273802757263184,-1.9044809341430664,-2.396688461303711,0
-1.2344343662261963,-2.2078986167907715,-2.708913803100586,0
-1.3803880214691162,-2.489499092102051,-3.067485809326172,0
-1.5890631675720215,-2.7966904640197754,-3.418196678161621,0
-1.7363215684890747,-2.9544615745544434,-3.7930397987365723,0
-1.964127779006958,-3.0414023399353027,-4.152090072631836,0
-2.2520275115966797,-3.0713963508605957,-4.4625349044799805,0
-2.4382033348083496,-2.9603447914123535,-4.720279216766357,0
-2.697967052459717,-2.873019218444824,-4.854189395904541,0
-2.9577646255493164,-2.6512293815612793,-4.910257816314697,0
-3.151073455810547,-2.407444953918457,-4.766570568084717,0
-3.2923197746276855,-2.077270984649658,-4.504360675811768,0
-3.4505252838134766,-1.830918312072754,-4.116069793701172,0
-3.476790189743042,-1.5707635879516602,-3.5819408893585205,0
-3.4878180027008057,-1.4266605377197266,-2.9583394527435303,0
-3.3155007362365723,-1.3012304306030273,-2.2512528896331787,0
-3.088563919067383,-1.3411493301391602,-1.6219370365142822,0
-2.883547067642212,-1.4583840370178223,-1.097661018371582,0
-2.5834758281707764,-1.705930233001709,-0.5934433937072754,0
-2.2986907958984375,-2.0671563148498535,-0.2400209903717041,0
-2.0799074172973633,-2.546743392944336,0.01826333999633789,0
-2.025546073913574,-3.034411907196045,0.12186789512634277,0
-1.9824591875076294,-3.522831439971924,0.19049882888793945,0
-1.9169418811798096,-3.751274585723877,0.20264744758605957,0
-1.9792474508285522,-4.183638095855713,0.18651747703552246,0
-2.060642719268799,-4.7547221183776855,0.0908961296081543,0
-2.2583703994750977,-5.136588096618652,0.056487321853637695,0
-2.5215134620666504,-5.322281360626221,0.15502047538757324,0
-2.760972261428833,-5.343132972717285,0.3339207172393799,0
-3.1526973247528076,-5.75142765045166,0.4082820415496826,0
-3.4971683025360107,-6.015610218048096,0.4829113483428955,0
-3.839231491088867,-6.2000932693481445,0.5165598392486572,0
-4.149818420410156,-6.2902069091796875,0.5970585346221924,0
-4.409482955932617,-6.211384296417236,0.5989067554473877,0
-4.635194778442383,-5.843433380126953,0.5060989856719971,0
-4.858273029327393,-5.1475629806518555,0.2711942195892334,0
-4.832503318786621,-4.075596332550049,0.02379608154296875,0
-4.2552313804626465,-2.5602760314941406,-0.28118181228637695,0
-3.1956090927124023,-0.7567787170410156,-0.5931135416030884,0
-1.9552912712097168,1.1393556594848633,-0.8882104158401489,0
-0.7909553050994873,3.0715627670288086,-1.176483392715454,0
0.3291654586791992,5.088567733764648,-1.212154507637024,0
1.239291787147522,7.117063522338867,-0.9838384389877319,0
1.976548433303833,9.293978691101074,-0.3356778621673584,0
2.6972622871398926,11.289318084716797,0.911792516708374,0
3.5032436847686768,12.791877746582031,2.7738633155822754,0
4.6358442306518555,13.515983581542969,5.5569610595703125,0
5.963898658752441,12.809647560119629,8.1221342086792,0
7.192080497741699,10.403998374938965,9.925874710083008,0
8.051227569580078,7.4202423095703125,11.026668548583984,0
8.196662902832031,4.900923728942871,10.33835220336914,0
7.8821306228637695,3.3073081970214844,8.281181335449219,0
7.605640411376953,2.717510223388672,5.882451057434082,0
6.488254070281982,2.843595504760742,3.5728626251220703,0
5.4300737380981445,3.407045364379883,1.7063798904418945,0
4.198945045471191,4.146020889282227,0.2081162929534912,0
2.6352744102478027,4.7845964431762695,-0.9701207876205444,0
1.197658658027649,5.030577659606934,-1.9944777488708496,0
0.018970251083374023,4.956031799316406,-2.7405354976654053,0
-1.0244040489196777,4.631180763244629,-3.265284538269043,0
-2.0392792224884033,4.270456314086914,-3.643517017364502,0
-3.0685839653015137,3.7327260971069336,-4.004613876342773,0
-4.156816482543945,2.8728532791137695,-4.1841020584106445,0
-5.444610595703125,1.7273740768432617,-3.9889464378356934,0
-6.560033798217773,0.3184471130371094,-3.03430438041687,0
-7.185969352722168,-1.0836400985717773,-1.349855899810791,0
-7.383311748504639,-2.25213623046875,0.12154626846313477,0
-7.1380534172058105,-3.413496971130371,1.0037013292312622,0
-6.520882606506348,-4.429180145263672,1.128909945487976,0
-5.521708011627197,-5.085844993591309,0.4516441822052002,0
-4.256626129150391,-5.313530921936035,-1.0239160060882568,0
-2.9263572692871094,-5.353423118591309,-2.9022433757781982,0
-1.3437538146972656,-5.272392749786377,-4.414234638214111,0
-0.09015792608261108,-5.096905708312988,-5.309113502502441,0
0.5494714975357056,-4.858064651489258,-5.749698638916016,0
0.7829964756965637,-4.577249050140381,-5.824191570281982,0
0.7182015776634216,-4.106045722961426,-5.6481781005859375,0
0.5894649624824524,-3.4876976013183594,-5.342370986938477,0
0.3727990984916687,-2.9497900009155273,-4.787726879119873,0
0.1036255955696106,-2.387361526489258,-4.040520668029785,0
-0.3241090476512909,-1.8223481178283691,-3.12033748626709,0
-0.902246356010437,-1.111678123474121,-2.0058865547180176,0
-1.5510976314544678,-0.2632942199707031,-0.7299720048904419,0
-2.4925405979156494,0.6665191650390625,1.4404207468032837,0
-3.359724521636963,1.860478401184082,3.7913126945495605,0
-3.793638229370117,3.0068464279174805,4.681861400604248,0
-3.4475440979003906,3.7498950958251953,3.745898723602295,0
-2.651916980743408,3.8353710174560547,2.012660026550293,0
-1.9187172651290894,3.322678565979004,0.17160427570343018,0
-1.2277384996414185,2.54111385345459,-1.4040956497192383,0
-0.6124540567398071,1.7665786743164062,-2.5794179439544678,0
-0.01229606568813324,1.2025585174560547,-3.3755908012390137,0
0.5234823822975159,0.8057575225830078,-3.802436351776123,0
1.0487562417984009,0.4491090774536133,-3.904238700866699,0
1.4237287044525146,0.18736839294433594,-3.736100196838379,0
1.7843602895736694,-0.07065963745117188,-3.309340238571167,0
2.156606674194336,-0.31325817108154297,-2.7542314529418945,0
2.564821720123291,-0.6053180694580078,-1.8435413837432861,0
2.7893218994140625,-0.9375495910644531,-0.8734980225563049,0
2.6913905143737793,-1.2002573013305664,0.13311678171157837,0
2.39492130279541,-1.3818693161010742,1.0027339458465576,0
1.5844001770019531,-1.4467010498046875,1.2086727619171143,0
0.5599361658096313,-1.325408935546875,0.7919018864631653,0
-0.45852646231651306,-1.0442485809326172,-0.07904824614524841,0
-1.2053885459899902,-0.7490243911743164,-0.9420772790908813,0
-1.4930176734924316,-0.5543746948242188,-1.5647549629211426,0
-1.4797874689102173,-0.5485849380493164,-1.9392247200012207,0
-1.2803399562835693,-0.6046857833862305,-2.0307564735412598,0
-1.004089593887329,-0.8708925247192383,-1.8231791257858276,0
-0.7027963399887085,-1.1318092346191406,-1.33792245388031,0
-0.4618772268295288,-1.418583869934082,-0.7706366777420044,0
-0.3957822322845459,-1.6355714797973633,-0.24490951001644135,0
-0.49986517429351807,-1.670475959777832,0.11078426241874695,0
-0.6380473375320435,-1.6406707763671875,0.2895880937576294,0
-0.8034234642982483,-1.438614845275879,0.28923115134239197,0
-0.8789594173431396,-1.1744985580444336,0.18850857019424438,0
-0.8264099955558777,-0.8292608261108398,0.0037422366440296173,0
-0.7916653156280518,-0.5249433517456055,-0.1814626306295395,0
-0.6454606652259827,-0.34996986389160156,-0.31693920493125916,0
-0.44777506589889526,-0.14874744415283203,-0.323645681142807,0
-0.1817684918642044,0.05000114440917969,-0.2950584292411804,0
0.09297452121973038,0.32518672943115234,-0.2865391969680786,0
0.2808331847190857,0.45673656463623047,-0.26466840505599976,0
0.3314732611179352,0.4496288299560547,-0.1382046788930893,0
0.4459632337093353,0.3040599822998047,-0.011825934052467346,0
0.45423683524131775,0.06088066101074219,0.11264701187610626,0
0.4517722725868225,-0.15781688690185547,0.1517408788204193,0
0.41908812522888184,-0.34966468811035156,0.2009631097316742,0
0.5908362865447998,-0.6127214431762695,0.24083355069160461,0
0.6725898385047913,-0.7866935729980469,0.27822208404541016,0
0.7385352849960327,-0.8692893981933594,0.39202311635017395,0
0.8628702163696289,-0.8247394561767578,0.467462420463562,0
0.9882205724716187,-0.7799034118652344,0.6770046949386597,0
1.1507151126861572,-0.7729759216308594,0.9206914901733398,0
1.3098695278167725,-0.7225503921508789,1.1822260618209839,0
1.3843731880187988,-0.6023321151733398,1.4138901233673096,0
1.4268150329589844,-0.41240692138671875,1.5268363952636719,0
1.3937908411026,-0.24856948852539062,1.5798381567001343,0
1.2894281148910522,-0.14202880859375,1.4708247184753418,0
1.1874370574951172,-0.11441802978515625,1.343980312347412,0
0.938948392868042,-0.06541919708251953,1.1714341640472412,0
0.8740429282188416,-0.2629976272583008,0.9976775646209717,0
0.8343598246574402,-0.32435035705566406,0.892030656337738,0
0.8482726812362671,-0.3405170440673828,0.8719531893730164,0
0.9705758094787598,-0.32105350494384766,0.9817667007446289,0
1.2847399711608887,-0.21810054779052734,1.2156132459640503,0
1.5487180948257446,-0.08673286437988281,1.4045801162719727,0
1.9103115797042847,0.13750648498535156,1.424572467803955,0
2.3665215969085693,0.2965726852416992,1.3017367124557495,0
2.846973180770874,0.4023618698120117,1.2059646844863892,0
3.321643829345703,0.5863361358642578,1.4107558727264404,0
3.72489857673645,0.8817911148071289,1.4792428016662598,0
4.015236854553223,1.001481056213379,1.078932285308838,0
4.062944412231445,0.9980630874633789,0.36273473501205444,0
4.1836442947387695,0.878748893737793,-0.30411869287490845,0
4.231695175170898,0.7201833724975586,-0.8413507342338562,0
4.329556941986084,0.6874351501464844,-1.2355365753173828,0
4.326819896697998,0.780421257019043,-1.3604875802993774,0
4.420187950134277,1.0684871673583984,-1.3764597177505493,0
4.52894401550293,1.5515947341918945,-1.412182092666626,0
4.651349067687988,2.1316604614257812,-1.5317885875701904,0
4.718659400939941,2.818300247192383,-1.5867154598236084,0
4.8488545417785645,3.6689558029174805,-1.3997116088867188,0
5.025820255279541,4.49709415435791,-0.9106773138046265,0
5.348696708679199,5.422481536865234,-0.0240669846534729,0
5.659026145935059,6.299298286437988,1.0128583908081055,0
5.988271236419678,7.120562553405762,2.0431323051452637,0
5.282841682434082,7.759560585021973,2.698617696762085,0
1.8722001314163208,7.711625099182129,2.8233482837677,0
-0.8055474758148193,7.013396263122559,2.7978146076202393,0
-2.4145216941833496,5.976794242858887,2.711951494216919,0
-3.380429744720459,4.860928535461426,2.798875093460083,0
-3.977449893951416,3.855226516723633,2.8498363494873047,0
-4.2614521980285645,3.0483760833740234,2.6963791847229004,0
-4.369353294372559,2.514552116394043,2.355570077896118,0
-4.2901411056518555,2.0480384826660156,1.8394744396209717,0
-4.187899112701416,1.787663459777832,1.3518096208572388,0
-4.0550618171691895,1.5348806381225586,1.0012297630310059,0
-3.9203734397888184,1.2897672653198242,0.7031581997871399,0
-3.7313616275787354,1.0260114669799805,0.4617660641670227,0
-3.588643789291382,0.8104591369628906,0.3150125741958618,0
-3.396730899810791,0.5948972702026367,0.17961657047271729,0
-3.2946903705596924,0.3429412841796875,-0.06567060947418213,0
-3.1606061458587646,0.061188697814941406,-0.3798142671585083,0
-3.006736993789673,-0.0978708267211914,-0.7276767492294312,0
-2.816744565963745,-0.18986129760742188,-1.139611840248108,0
-2.677452564239502,-0.24860858917236328,-1.5465612411499023,0
-2.575683116912842,-0.27411842346191406,-2.0241966247558594,0
-2.452864408493042,-0.30914878845214844,-2.5294759273529053,0
-2.4108505249023438,-0.32699012756347656,-3.000014066696167,0
-2.170724391937256,-0.32001495361328125,-3.349583625793457,0
-1.8049311637878418,-0.2661571502685547,-3.5735158920288086,0
-1.3572235107421875,-0.20312023162841797,-3.628568649291992,0
-0.9171594977378845,-0.005999565124511719,-3.499605894088745,0
-0.40206676721572876,0.08392047882080078,-3.04844069480896,0
0.13680309057235718,0.3467855453491211,-2.217641830444336,0
0.5608444213867188,0.624237060546875,-1.1728143692016602,0
0.9982470273971558,1.0563545227050781,0.10626101493835449,0
1.2737853527069092,1.5914831161499023,1.5441830158233643,0
1.4162068367004395,1.9795398712158203,2.6846580505371094,0
1.2989611625671387,2.138376235961914,3.3144376277923584,0
0.8236300945281982,2.1467504501342773,3.2067110538482666,0
0.2663151025772095,1.9499359130859375,2.5689921379089355,0
-0.2699921131134033,1.6153202056884766,1.740156888961792,0
-0.6563335061073303,1.2436962127685547,0.965609073638916,0
-0.9240320920944214,0.8137617111206055,0.18217182159423828,0
-1.138169765472412,0.34727954864501953,-0.4602057933807373,0
-1.313460111618042,-0.2561788558959961,-0.9832971096038818,0
-1.4907963275909424,-0.7237005233764648,-1.526520013809204,0
-1.6199995279312134,-1.1485486030578613,-2.0641722679138184,0
-1.6844592094421387,-1.5115618705749512,-2.505764961242676,0
-1.7487455606460571,-1.8630051612854004,-2.899501085281372,0
-1.8030362129211426,-2.143105983734131,-3.2600831985473633,0
-1.8948918581008911,-2.4069700241088867,-3.57102370262146,0
-1.9712843894958496,-2.5685901641845703,-3.8708338737487793,0
-2.053755521774292,-2.697397232055664,-4.1740827560424805,0
-2.1713521480560303,-2.8291444778442383,-4.440407752990723,0
-2.3415582180023193,-2.9516563415527344,-4.612670421600342,0
-2.4929769039154053,-3.0622735023498535,-4.777560234069824,0
-2.6693756580352783,-3.084211826324463,-4.837386131286621,0
-2.7947683334350586,-2.9934639930725098,-4.7972636222839355,0
-2.9606122970581055,-2.842693328857422,-4.58549165725708,0
-3.061784267425537,-2.612971305847168,-4.218668460845947,0
-3.1700997352600098,-2.378772258758545,-3.768160104751587,0
-3.249316692352295,-2.14296817779541,-3.2380082607269287,0
-3.3108365535736084,-1.9994721412658691,-2.5841803550720215,0
-3.3565104007720947,-1.9370298385620117,-1.9058513641357422,0
-3.2516303062438965,-1.9110307693481445,-1.2350704669952393,0
-3.151466131210327,-1.9987754821777344,-0.5655522346496582,0
-2.972442388534546,-2.136239528656006,-0.036974430084228516,0
-2.7461047172546387,-2.378787040710449,0.3805856704711914,0
-2.5377097129821777,-2.6905460357666016,0.6472377777099609,0
-2.30721378326416,-2.9851508140563965,0.748833179473877,0
-2.0837388038635254,-3.2957234382629395,0.7521347999572754,0
-1.8745505809783936,-3.621786117553711,0.6589899063110352,0
-1.7653876543045044,-3.8481216430664062,0.49026942253112793,0
-1.6308252811431885,-4.096414566040039,0.24266290664672852,0
-1.481982707977295,-4.251571178436279,-0.005576133728027344,0
-1.499955177307129,-4.2369771003723145,-0.07798409461975098,0
-1.5873476266860962,-4.774599075317383,-0.21520137786865234,0
-1.6929082870483398,-5.050473690032959,-0.276965856552124,0
-1.9073185920715332,-5.172313213348389,-0.23494529724121094,0
-2.0466806888580322,-5.022861957550049,-0.13005995750427246,0
-2.1772007942199707,-5.147374629974365,-0.0731360912322998,0
-2.2979276180267334,-5.088492393493652,-0.07230138778686523,0
-2.358797788619995,-4.83644437789917,8.993148803710938E-4,0
-2.19071102142334,-4.1662139892578125,0.07632255554199219,0
-2.027920961380005,-3.496337890625,0.09778761863708496,0
-1.6742875576019287,-2.51542329788208,0.056732892990112305,0
-1.1548526287078857,-1.2161707878112793,-0.00948190689086914,0
-0.4791353940963745,0.3202495574951172,0.02301168441772461,0
0.21333980560302734,2.0080995559692383,0.021846771240234375,0
0.8283264636993408,3.7738304138183594,0.07647275924682617,0
1.3840138912200928,5.546405792236328,0.19431781768798828,0
1.8790161609649658,7.350559234619141,0.44691967964172363,0
2.347939968109131,8.98843002319336,1.0423686504364014,0
2.768242359161377,10.376757621765137,2.03932523727417,0
3.2809629440307617,11.187948226928711,3.498476982116699,0
4.015345573425293,10.943367958068848,5.4877729415893555,0
4.963349342346191,9.192708969116211,7.938831329345703,0
5.602083206176758,6.765514373779297,9.651531219482422,0
5.714274883270264,4.73499870300293,10.153722763061523,0
5.5115556716918945,3.482813835144043,9.373100280761719,0
4.617152214050293,3.058436393737793,7.75966739654541,0
3.922335147857666,3.1071643829345703,5.887081146240234,0
3.6518378257751465,3.2768335342407227,4.048613548278809,0
3.3108139038085938,3.5980224609375,2.5808379650115967,0
2.583754539489746,3.945858955383301,1.3347375392913818,0
1.5347976684570312,4.334280967712402,0.3319230079650879,0
0.2872666120529175,4.542947769165039,-0.36278820037841797,0
-0.9499310255050659,4.540676116943359,-0.9184730052947998,0
-2.0145301818847656,4.363367080688477,-1.3838671445846558,0
-3.058344602584839,4.10206413269043,-1.747913122177124,0
-3.8100662231445312,3.5493173599243164,-2.2093403339385986,0
-4.5725016593933105,3.098618507385254,-2.808891773223877,0
-5.248800277709961,2.485896110534668,-3.472856044769287,0
-5.754228115081787,1.7082195281982422,-4.021832466125488,0
-6.22457218170166,0.8461942672729492,-4.329259872436523,0
-6.582766056060791,-0.15196800231933594,-4.164707183837891,0
-6.822197437286377,-1.248220443725586,-3.5616488456726074,0
-6.855368137359619,-2.3314719200134277,-2.513906717300415,0
-6.706297397613525,-3.3052515983581543,-1.4049198627471924,0
-6.477447986602783,-4.163541793823242,-0.6351975202560425,0
-5.843188762664795,-4.749067306518555,-0.32828235626220703,0
-4.650276184082031,-5.1362528800964355,-0.6755731701850891,0
-2.7372474670410156,-5.483000755310059,-1.3180556297302246,0
-1.286059021949768,-5.714935302734375,-2.115813970565796,0
-0.3166424632072449,-5.764742851257324,-2.958510398864746,0
0.36964982748031616,-5.636837005615234,-3.736231565475464,0
0.7211611866950989,-5.397768497467041,-4.324770450592041,0
0.970203161239624,-4.956295490264893,-4.668636798858643,0
1.0711607933044434,-4.326757907867432,-4.719898223876953,0
1.0742698907852173,-3.4066882133483887,-4.482631683349609,0
0.8408380746841431,-2.333221435546875,-4.024890422821045,0
0.44505321979522705,-1.2387361526489258,-3.5302698612213135,0
0.008224844932556152,-0.1933116912841797,-3.0504310131073,0
-0.4156958758831024,0.8622426986694336,-2.5708107948303223,0
-0.7996073961257935,1.855611801147461,-2.02982497215271,0
-1.2027368545532227,2.750472068786621,-1.2062327861785889,0
-1.5095267295837402,3.443669319152832,-0.15928864479064941,0
-1.5395928621292114,4.033219337463379,1.0340535640716553,0
-1.2207282781600952,4.4501190185546875,1.8759046792984009,0
-0.7249592542648315,4.425132751464844,2.073643445968628,0
-0.08813761174678802,3.792494773864746,1.6621652841567993,0
0.22860679030418396,2.769209861755371,0.7205071449279785,0
0.4429051876068115,1.6936016082763672,-0.23835992813110352,0
0.9265387058258057,0.8457956314086914,-1.127899408340454,0
1.458816647529602,0.25658416748046875,-1.842416763305664,0
1.8574697971343994,-0.08891487121582031,-2.321916103363037,0
2.139054298400879,-0.21764373779296875,-2.4711713790893555,0
2.289038896560669,-0.28812122344970703,-2.24141263961792,0
2.367065191268921,-0.3964881896972656,-1.8825581073760986,0
2.4713332653045654,-0.595646858215332,-1.580491304397583,0
2.254420042037964,-0.9072456359863281,-1.3160903453826904,0
1.703153371810913,-1.1567268371582031,-1.0569308996200562,0
0.807921290397644,-1.2389659881591797,-0.886256217956543,0
0.07529251277446747,-1.1803655624389648,-0.9576948881149292,0
-0.5001978874206543,-1.0885505676269531,-1.1071974039077759,0
-0.847580075263977,-0.9514646530151367,-1.2092082500457764,0
-1.0540881156921387,-0.7690496444702148,-1.2217750549316406,0
-1.197157621383667,-0.6488656997680664,-1.1795713901519775,0
-1.1386500597000122,-0.6433658599853516,-1.0789791345596313,0
-0.8621664643287659,-0.7332477569580078,-0.8897439241409302,0
-0.6070341467857361,-0.8347129821777344,-0.6289585828781128,0
-0.3302491307258606,-0.9573488235473633,-0.3920319378376007,0
-0.08673947304487228,-1.0533533096313477,-0.1688549518585205,0
0.011158332228660583,-1.1682453155517578,0.027133941650390625,0
0.06391474604606628,-1.2566089630126953,0.18253803253173828,0
-0.12747713923454285,-1.2372074127197266,0.26712891459465027,0
-0.3598473370075226,-1.165170669555664,0.23820528388023376,0
-0.32913169264793396,-0.9998979568481445,0.08140268921852112,0
-0.3030770719051361,-0.8825578689575195,-0.18196208775043488,0
-0.24542802572250366,-0.8130722045898438,-0.4039524793624878,0
-0.07667455077171326,-0.8200597763061523,-0.5991984605789185,0
0.14863836765289307,-0.8603696823120117,-0.7895973920822144,0
0.3301517367362976,-0.8215703964233398,-0.8580385446548462,0
0.5038536190986633,-0.7539691925048828,-0.8428912162780762,0
0.6027292013168335,-0.6862869262695312,-0.6506747007369995,0
0.7776557207107544,-0.6687259674072266,-0.4007490873336792,0
0.8466744422912598,-0.7251224517822266,-0.18130166828632355,0
0.8453865051269531,-0.7525434494018555,0.06776800751686096,0
0.7662337422370911,-0.7462339401245117,0.2242555469274521,0
0.8339962363243103,-0.8568572998046875,0.29986274242401123,0
0.8668327331542969,-0.9575300216674805,0.38043493032455444,0
0.7976688742637634,-0.921534538269043,0.4465315341949463,0
0.7675671577453613,-0.8877229690551758,0.502888560295105,0
0.7335244417190552,-0.7030525207519531,0.5590271353721619,0
0.7076252102851868,-0.5422487258911133,0.6606074571609497,0
0.824317216873169,-0.3406801223754883,0.7672213912010193,0
0.8879973888397217,-0.09355926513671875,0.8933824300765991,0
0.8821793794631958,0.1464853286743164,1.0128107070922852,0
0.8905683755874634,0.3938417434692383,1.10394287109375,0
0.821916937828064,0.5695896148681641,1.1999508142471313,0
0.7790129780769348,0.6283750534057617,1.2834205627441406,0
0.7901966571807861,0.6133251190185547,1.2960314750671387,0
0.732991099357605,0.5052957534790039,1.289109706878662,0
0.7122901082038879,0.38556766510009766,1.2588870525360107,0
0.6534218788146973,0.25879669189453125,1.2640159130096436,0
0.6254700422286987,0.06509780883789062,1.3300219774246216,0
0.5777525901794434,-0.07120418548583984,1.3633196353912354,0
0.5433827638626099,-0.1311025619506836,1.3139731884002686,0
0.6583697199821472,-0.06208992004394531,1.2306416034698486,0
0.8530529141426086,0.08069515228271484,1.0758817195892334,0
1.1679489612579346,0.33784008026123047,0.8672091960906982,0
1.554484248161316,0.6589775085449219,0.7324821949005127,0
2.0382423400878906,0.9388341903686523,0.9553290605545044,0
2.6137828826904297,1.1654701232910156,1.1200884580612183,0
3.0766820907592773,1.350759506225586,1.1050516366958618,0
3.390176773071289,1.4515323638916016,0.8622606992721558,0
3.627918243408203,1.3792800903320312,0.6426007151603699,0
3.918919086456299,1.2082672119140625,0.4718363583087921,0
4.1510419845581055,1.0390338897705078,0.31337690353393555,0
4.291325092315674,1.0365962982177734,0.16185128688812256,0
4.402707099914551,1.1482315063476562,0.048097848892211914,0
4.3805766105651855,1.3595876693725586,0.05163112282752991,0
4.460274696350098,1.6970195770263672,0.20434486865997314,0
4.506344318389893,2.2370433807373047,0.3438361883163452,0
4.3996806144714355,2.9555320739746094,0.18235555291175842,0
4.205268859863281,3.546175003051758,-0.1575927436351776,0
3.9806671142578125,3.949324607849121,-0.5971534252166748,0
3.6872663497924805,4.158034324645996,-0.95430588722229,0
3.4034554958343506,4.2156572341918945,-1.0649710893630981,0
3.171537160873413,4.160778045654297,-0.8427772521972656,0
3.038872003555298,4.0152587890625,-0.23635587096214294,0
3.038703441619873,3.8941965103149414,0.7059048414230347,0
2.945403575897217,3.8096256256103516,1.9691294431686401,0
1.766366720199585,3.6896791458129883,3.159562110900879,0
0.3900615870952606,3.3742408752441406,3.8285553455352783,0
-0.6695446968078613,2.8089523315429688,3.917966604232788,0
-1.3827170133590698,2.100057601928711,3.6036698818206787,0
-1.908031940460205,1.478118896484375,3.127654552459717,0
-2.3728721141815186,1.0561456680297852,2.622030258178711,0
-2.8233275413513184,0.8224220275878906,2.24503755569458,0
-3.1312663555145264,0.8343076705932617,1.851811170578003,0
-3.2715342044830322,0.9504423141479492,1.4310986995697021,0
-3.328886032104492,1.1155853271484375,1.0641539096832275,0
-3.2279818058013916,1.2791328430175781,0.7772382497787476,0
-3.106835126876831,1.2658863067626953,0.5423249006271362,0
-2.95038104057312,1.1373329162597656,0.20958399772644043,0
-2.628676414489746,0.8783702850341797,-0.20670032501220703,0
-2.0883307456970215,0.6964817047119141,-0.6961634159088135,0
-1.6282453536987305,0.6652698516845703,-1.1922824382781982,0
-1.313670039176941,0.7532749176025391,-1.6219714879989624,0
-1.0329177379608154,0.7784967422485352,-2.0077245235443115,0
-0.7819011211395264,0.7911434173583984,-2.3981568813323975,0
-0.49147558212280273,0.80548095703125,-2.624101400375366,0
-0.2889338731765747,0.950526237487793,-2.736311197280884,0
-0.14211297035217285,1.0563182830810547,-2.670609712600708,0
0.011777937412261963,1.1160039901733398,-2.4712471961975098,0
0.09933269023895264,1.070176124572754,-2.2468953132629395,0
0.07552927732467651,1.230076789855957,-1.952622652053833,0
0.10387587547302246,1.1751289367675781,-1.764230489730835,0
0.26482492685317993,0.9804391860961914,-1.5948783159255981,0
0.467205286026001,0.8330316543579102,-1.3638607263565063,0
0.6706092357635498,0.7401704788208008,-1.0139496326446533,0
1.002524495124817,0.7041540145874023,-0.6095967292785645,0
1.2966582775115967,0.7509994506835938,-0.18380069732666016,0
1.6261804103851318,0.877842903137207,0.2737557888031006,0
1.9187732934951782,0.9835281372070312,0.6995482444763184,0
2.155365228652954,1.1128473281860352,0.9914836883544922,0
2.237607479095459,1.2508058547973633,1.0975613594055176,0
2.3523149490356445,1.2770624160766602,1.0136449337005615,0
2.2886574268341064,1.2367048263549805,0.754019021987915,0
1.8988388776779175,1.0460824966430664,0.39003443717956543,0
1.0380477905273438,0.7774219512939453,-0.0570833683013916,0
0.07555663585662842,0.47660064697265625,-0.5349044799804688,0
-0.6213705539703369,0.28240013122558594,-0.9882752895355225,0
-1.057547926902771,-0.12351131439208984,-1.4076018333435059,0
-1.2899870872497559,-0.4735298156738281,-1.8282833099365234,0
-1.38864004611969,-0.727564811706543,-2.108177661895752,0
-1.5046279430389404,-1.0295820236206055,-2.313612937927246,0
-1.6476445198059082,-1.5899372100830078,-2.604983329772949,0
-1.7752095460891724,-1.7027974128723145,-2.8603692054748535,0
-1.9619141817092896,-2.1167168617248535,-3.1977767944335938,0
-2.1892783641815186,-2.5031590461730957,-3.474600315093994,0
-2.4412343502044678,-2.772998809814453,-3.8068623542785645,0
-2.6682090759277344,-2.97133731842041,-4.056530952453613,0
-2.878054141998291,-3.10037899017334,-4.219213485717773,0
-3.040031671524048,-3.157649517059326,-4.321527004241943,0
-3.2093586921691895,-3.2029218673706055,-4.291945934295654,0
-3.371722936630249,-3.193297863006592,-4.1614179611206055,0
-3.5246076583862305,-3.0333733558654785,-3.8939032554626465,0
-3.6701271533966064,-2.7953529357910156,-3.546482563018799,0
-3.65242862701416,-2.5538463592529297,-3.140157699584961,0
-3.7056069374084473,-2.340381622314453,-2.659916639328003,0
-3.7240095138549805,-2.1601409912109375,-2.2174572944641113,0
-3.6212844848632812,-2.01834774017334,-1.8213791847229004,0
-3.4381394386291504,-2.0085744857788086,-1.4588606357574463,0
-3.239072561264038,-2.0018367767333984,-1.1889753341674805,0
-2.9141898155212402,-2.122570514678955,-0.9920825958251953,0
-2.676748514175415,-2.3155860900878906,-0.843942403793335,0
-2.4361305236816406,-2.6332287788391113,-0.7540440559387207,0
-2.2570114135742188,-2.9890875816345215,-0.6889324188232422,0
-2.1250545978546143,-3.3900861740112305,-0.6080620288848877,0
-2.0329103469848633,-3.7117104530334473,-0.5234391689300537,0
-1.9205011129379272,-3.865464210510254,-0.39927220344543457,0
-1.9303020238876343,-4.384641647338867,-0.2695646286010742,0
-2.027329683303833,-4.828797817230225,-0.12752461433410645,0
-2.1719048023223877,-5.1646223068237305,0.10088157653808594,0
-2.415144443511963,-5.540640830993652,0.32959747314453125,0
-2.7268571853637695,-5.844332218170166,0.601318359375,0
-3.0986719131469727,-5.958423137664795,0.8581814765930176,0
-3.4747138023376465,-6.021479606628418,1.085242509841919,0
-3.8953800201416016,-5.93009614944458,1.2000932693481445,0
-4.245972633361816,-5.576105117797852,1.1273939609527588,0
-4.448116302490234,-4.84894323348999,0.9086241722106934,0
-4.59149169921875,-3.7768187522888184,0.46787118911743164,0
-4.378240585327148,-2.277892589569092,-0.08231449127197266,0
-3.699392080307007,-0.4163856506347656,-0.6609413623809814,0
-2.801255702972412,1.6910829544067383,-1.2114745378494263,0
-1.9268825054168701,4.004561424255371,-1.5100958347320557,0
-1.143312931060791,6.589244842529297,-1.5628166198730469,0
-0.5423251390457153,9.452768325805664,-1.2658791542053223,0
0.041672706604003906,12.32275104522705,-0.5555115938186646,0
0.674768328666687,14.584761619567871,0.6917378902435303,0
1.5903176069259644,15.566747665405273,3.2640695571899414,0
2.8008968830108643,14.641931533813477,6.276876449584961,0
4.16947603225708,11.379800796508789,8.594645500183105,0
5.469003677368164,7.686127662658691,10.675775527954102,0
6.8196821212768555,4.670565605163574,12.412246704101562,0
7.363131523132324,2.625247001647949,12.121041297912598,0
7.469454765319824,1.5159711837768555,10.054248809814453,0
7.398167610168457,1.0483951568603516,7.410850524902344,0
6.890007972717285,0.8783168792724609,4.845928192138672,0
5.86008882522583,0.8602476119995117,2.680626392364502,0
4.775609970092773,0.8889598846435547,0.7837793827056885,0
3.5120956897735596,1.093073844909668,-0.7790876626968384,0
2.0596389770507812,1.493098258972168,-1.9979628324508667,0
0.5186834335327148,2.02590274810791,-3.0398366451263428,0
-0.8448187708854675,2.449429512023926,-4.00574254989624,0
-1.9945611953735352,2.3455677032470703,-4.946262836456299,0
-2.7286856174468994,1.9405603408813477,-5.73560905456543,0
-3.22552490234375,1.707106590270996,-6.150374412536621,0
-3.6702117919921875,1.5988893508911133,-6.178606033325195,0
-4.228432655334473,1.63958740234375,-5.743250846862793,0
-4.8969902992248535,1.7696304321289062,-4.839001655578613,0
-5.776993751525879,1.5382280349731445,-3.387296676635742,0
-6.527027130126953,0.6805315017700195,-0.9237642884254456,0
-6.813974380493164,-0.08166122436523438,1.4758001565933228,0
-6.526811599731445,-0.8325929641723633,3.2675228118896484,0
-5.411320686340332,-1.5979862213134766,4.108478546142578,0
-3.7481672763824463,-2.344820976257324,3.6634020805358887,0
-2.1144680976867676,-2.9336423873901367,1.7708834409713745,0
-0.4701490104198456,-3.413604736328125,-0.6874988079071045,0
0.5111755728721619,-3.8554482460021973,-2.9932994842529297,0
1.0254967212677002,-4.131509304046631,-4.856517314910889,0
1.2185478210449219,-4.179121494293213,-6.122674465179443,0
1.1860547065734863,-4.155857563018799,-6.818553447723389,0
1.1466474533081055,-3.9370527267456055,-7.075743675231934,0
1.0213781595230103,-3.6207785606384277,-7.021915435791016,0
0.7525961995124817,-3.2167372703552246,-6.651177883148193,0
0.20613837242126465,-2.588977813720703,-6.003303527832031,0
-0.4946076273918152,-1.762007713317871,-5.083049774169922,0
-1.1628307104110718,-0.7674827575683594,-3.9281041622161865,0
-1.8656502962112427,0.24333953857421875,-2.5014288425445557,0
-2.4809818267822266,1.2459745407104492,-0.8347350358963013,0
-3.058727741241455,2.222897529602051,1.1301387548446655,0
-3.6268162727355957,2.988861083984375,3.8362646102905273,0
-3.520968437194824,3.383072853088379,5.665320873260498,0
-2.531157970428467,3.0475997924804688,5.012609481811523,0
-1.3804181814193726,2.08480167388916,2.826209545135498,0
-0.5162324905395508,1.1253185272216797,0.4567962884902954,0
0.16953453421592712,0.38750171661376953,-1.5324957370758057,0
0.7900172472000122,-0.06867218017578125,-3.115863800048828,0
1.0375139713287354,-0.2935800552368164,-4.107933521270752,0
1.116186261177063,-0.38315677642822266,-4.491711139678955,0
1.1821471452713013,-0.2516508102416992,-4.439789295196533,0
1.293735384941101,-0.007167816162109375,-3.9821114540100098,0
1.3518664836883545,0.13225269317626953,-3.082610845565796,0
1.2454850673675537,0.19033241271972656,-2.034482955932617,0
1.1267672777175903,0.14055633544921875,-0.8721142411231995,0
1.0327916145324707,0.030681610107421875,-0.07324159145355225,0
0.7269917726516724,-0.06511783599853516,0.1676640510559082,0
0.3570230007171631,-0.16346263885498047,-0.07078200578689575,0
-0.04010460525751114,-0.23545265197753906,-0.5127590298652649,0
-0.295925498008728,-0.3646202087402344,-1.0313100814819336,0
-0.3657439053058624,-0.6153392791748047,-1.3029835224151611,0
-0.2834365963935852,-0.9395647048950195,-1.4874355792999268,0
-0.09667878597974777,-1.298924446105957,-1.5738489627838135,0
0.09702648222446442,-1.6455726623535156,-1.3976399898529053,0
0.4493386447429657,-1.9269561767578125,-1.1334807872772217,0
0.5421744585037231,-2.133640766143799,-0.7399998903274536,0
0.541114091873169,-2.3374886512756348,-0.384013831615448,0
0.4029541313648224,-2.3974595069885254,-0.0599672794342041,0
0.03149022161960602,-2.1846351623535156,0.19931085407733917,0
-0.34633490443229675,-1.8356537818908691,0.3796195983886719,0
-0.42880627512931824,-1.3291511535644531,0.303618460893631,0
-0.40928345918655396,-0.8470296859741211,0.17921043932437897,0
-0.40708184242248535,-0.5542430877685547,0.07806593179702759,0
-0.3382070064544678,-0.42185211181640625,-0.0406772717833519,0
-0.2912190556526184,-0.4329195022583008,-0.15539398789405823,0
-0.3357592821121216,-0.2907724380493164,-0.2349921017885208,0
-0.3477860391139984,-0.11038398742675781,-0.3228037357330322,0
-0.14054131507873535,-0.025694847106933594,-0.30395010113716125,0
-0.05359986424446106,-0.015049934387207031,-0.17550604045391083,0
0.0565112829208374,-0.07833385467529297,0.0035760849714279175,0
0.07009634375572205,-0.20347213745117188,0.15743912756443024,0
0.18791823089122772,-0.35927581787109375,0.24098563194274902,0
0.19457824528217316,-0.4596109390258789,0.29470396041870117,0
0.29580387473106384,-0.6336584091186523,0.3563210964202881,0
0.4867139756679535,-0.7282953262329102,0.3892625868320465,0
0.5542245507240295,-0.7675495147705078,0.502996027469635,0
0.8790367841720581,-0.7849502563476562,0.6061733365058899,0
1.1742358207702637,-0.6824541091918945,0.7683534622192383,0
1.4278655052185059,-0.5343074798583984,0.8965947031974792,0
1.618505835533142,-0.2926931381225586,1.063328504562378,0
1.7868596315383911,-0.02701091766357422,1.1495935916900635,0
2.0164883136749268,0.23644447326660156,1.1987848281860352,0
2.0150296688079834,0.3804931640625,1.218048095703125,0
2.069207191467285,0.4769754409790039,1.228459119796753,0
2.013446569442749,0.5019388198852539,1.2481064796447754,0
1.878659725189209,0.4792661666870117,1.2565605640411377,0
1.8034418821334839,0.3371400833129883,1.2379906177520752,0
1.687058925628662,0.21900367736816406,1.1669906377792358,0
1.5391430854797363,0.03145027160644531,1.1119260787963867,0
1.5174063444137573,-0.12987709045410156,1.0508794784545898,0
1.4923115968704224,-0.11199569702148438,1.0968596935272217,0
1.5137755870819092,-0.001155853271484375,1.287055492401123,0
1.7513527870178223,0.21934223175048828,1.4459288120269775,0
2.1594786643981934,0.511143684387207,1.4544267654418945,0
2.4410624504089355,0.8358135223388672,1.3244798183441162,0
2.700404167175293,1.231429100036621,1.2693995237350464,0
3.223606586456299,1.3606300354003906,1.449629306793213,0
3.645857810974121,1.596583366394043,1.4583349227905273,0
3.9781322479248047,1.6041736602783203,1.2140370607376099,0
4.155138969421387,1.4457178115844727,0.953925609588623,0
4.372763156890869,1.1572399139404297,0.6974843144416809,0
4.374767780303955,0.8225498199462891,0.4209446609020233,0
4.4266157150268555,0.592315673828125,0.0596156120300293,0
4.454004764556885,0.46642112731933594,-0.25251567363739014,0
4.497888565063477,0.5141925811767578,-0.5175480246543884,0
4.465371608734131,0.6614313125610352,-0.6920751333236694,0
4.507751941680908,0.994232177734375,-0.8983583450317383,0
4.553933620452881,1.4311857223510742,-1.1707301139831543,0
4.606875419616699,2.0750808715820312,-1.3762085437774658,0
4.61211633682251,2.8755712509155273,-1.3577063083648682,0
4.764342784881592,3.6557416915893555,-0.9311036467552185,0
5.131490707397461,4.454139709472656,-0.22992825508117676,0
5.5065765380859375,5.249449729919434,0.6720597743988037,0
5.7741379737854,5.989276885986328,1.6719896793365479,0
6.08956241607666,6.65471076965332,2.524867296218872,0
4.63885498046875,7.195413589477539,2.8792176246643066,0
1.1864264011383057,7.041983604431152,2.9448328018188477,0
-0.9771183133125305,6.20723819732666,2.814347982406616,0
-2.3569273948669434,5.134762763977051,2.653841257095337,0
-3.2963476181030273,4.016661643981934,2.6293258666992188,0
-3.918147325515747,3.08780574798584,2.6202893257141113,0
-4.278045177459717,2.496610641479492,2.4272518157958984,0
-4.489409446716309,2.1449317932128906,2.0897274017333984,0
-4.436193466186523,1.9179391860961914,1.6326688528060913,0
-4.315851211547852,1.753488540649414,1.2292354106903076,0
-4.094374179840088,1.6324748992919922,0.9306886196136475,0
-3.8771705627441406,1.4687891006469727,0.7287189364433289,0
-3.741649866104126,1.2671403884887695,0.604030966758728,0
-3.5525453090667725,1.0105295181274414,0.49500298500061035,0
-3.2961738109588623,0.6722803115844727,0.33748745918273926,0
-3.030656099319458,0.3858671188354492,0.04789376258850098,0
-2.7662415504455566,0.13869571685791016,-0.2544604539871216,0
-2.5323967933654785,0.052115440368652344,-0.6614505052566528,0
-2.353907346725464,-0.029882431030273438,-1.0746017694473267,0
-2.1431050300598145,-0.004557609558105469,-1.5668318271636963,0
-2.03228497505188,-0.020033836364746094,-2.119046688079834,0
-1.696087121963501,-0.0041484832763671875,-2.6811721324920654,0
-1.32333242893219,-0.0092010498046875,-3.0950491428375244,0
-1.0642828941345215,-0.006051063537597656,-3.4346835613250732,0
-0.7728025913238525,-0.013461112976074219,-3.6132612228393555,0
-0.4801390469074249,0.07169151306152344,-3.5744857788085938,0
-0.08413058519363403,0.21593475341796875,-3.191821813583374,0
0.287323534488678,0.32346439361572266,-2.3929169178009033,0
0.566727340221405,0.5089073181152344,-1.4424095153808594,0
0.7875862121582031,0.7790384292602539,-0.49210262298583984,0
0.8567162156105042,1.1284046173095703,0.5318679809570312,0
0.8946167826652527,1.5012989044189453,1.4470760822296143,0
0.7899709343910217,1.727508544921875,2.0559792518615723,0
0.5008825063705444,1.8787546157836914,2.2536861896514893,0
0.15760326385498047,1.928884506225586,2.109178066253662,0
-0.26554495096206665,1.6915836334228516,1.7751526832580566,0
-0.5886663794517517,1.473388671875,1.2246983051300049,0
-0.8498207330703735,1.1954832077026367,0.6056084632873535,0
-1.0680139064788818,0.8914690017700195,-0.03706979751586914,0
-1.1860240697860718,0.5588960647583008,-0.626706600189209,0
-1.3163896799087524,0.1185293197631836,-1.0215106010437012,0
-1.3564993143081665,-0.2146139144897461,-1.3501203060150146,0
-1.4453520774841309,-0.5796480178833008,-1.5976641178131104,0
-1.4465121030807495,-0.9672117233276367,-1.8642982244491577,0
-1.3787522315979004,-1.2555146217346191,-2.1643199920654297,0
-1.3659764528274536,-1.5403857231140137,-2.526688814163208,0
-1.3906630277633667,-1.7620749473571777,-2.875302791595459,0
-1.5456205606460571,-1.9850850105285645,-3.146352767944336,0
-1.600635290145874,-2.1351070404052734,-3.474709987640381,0
-1.7733392715454102,-2.2765417098999023,-3.798950433731079,0
-2.028172492980957,-2.4329304695129395,-4.07210111618042,0
-2.263150453567505,-2.5798959732055664,-4.278208255767822,0
-2.5649116039276123,-2.750596046447754,-4.355777740478516,0
-2.8000810146331787,-2.722466468811035,-4.343338966369629,0
-3.0434625148773193,-2.6510820388793945,-4.272029876708984,0
-3.195000171661377,-2.51023530960083,-4.1177287101745605,0
-3.3077099323272705,-2.295318603515625,-3.8945281505584717,0
-3.364844560623169,-2.1261706352233887,-3.5829670429229736,0
-3.373208522796631,-2.0030980110168457,-3.1897048950195312,0
-3.329793930053711,-1.943303108215332,-2.7139992713928223,0
-3.198366641998291,-2.0118565559387207,-2.1715941429138184,0
-3.0116615295410156,-2.003734588623047,-1.6019341945648193,0
-2.6903929710388184,-2.137291431427002,-0.9870829582214355,0
-2.3950276374816895,-2.2909083366394043,-0.47420310974121094,0
-2.2314705848693848,-2.589141845703125,-0.06943821907043457,0
-2.0761353969573975,-2.936234951019287,0.21602964401245117,0
-1.9107344150543213,-3.250833034515381,0.406782865524292,0
-1.77418851852417,-3.5758509635925293,0.48630285263061523,0
-1.7292320728302002,-3.7437281608581543,0.4763762950897217,0
-1.7540440559387207,-4.120163440704346,0.3836972713470459,0
-1.8406223058700562,-4.711650371551514,0.21210289001464844,0
-1.9523646831512451,-5.144659042358398,0.0854341983795166,0
-2.0573620796203613,-5.218455791473389,0.029691457748413086,0
-2.0489137172698975,-5.736751556396484,-0.03249621391296387,0
-2.107478618621826,-6.022248268127441,-0.0035893917083740234,0
-2.14768648147583,-6.38124942779541,0.09183955192565918,0
-2.1512465476989746,-6.5935258865356445,0.26964378356933594,0
-2.181539297103882,-6.625678539276123,0.5316774845123291,0
-2.2065160274505615,-6.4561944007873535,0.8295142650604248,0
-2.204371452331543,-5.948642253875732,1.0047121047973633,0
-2.1826279163360596,-5.176982402801514,1.0207440853118896,0
-2.0824389457702637,-4.097683429718018,0.8286552429199219,0
-1.7952518463134766,-2.6742911338806152,0.4412195682525635,0
-1.3372782468795776,-1.0162582397460938,0.0048389434814453125,0
-0.8019382357597351,0.869847297668457,-0.2959318161010742,0
-0.2785819172859192,2.814769744873047,-0.46550655364990234,0
0.20784950256347656,4.95306396484375,-0.5158226490020752,0
0.7779982686042786,7.026927947998047,-0.39700114727020264,0
1.2483289241790771,9.101508140563965,-0.035032033920288086,0
1.6191024780273438,11.105298042297363,0.7622084617614746,0
1.9692689180374146,12.66511058807373,2.059741258621216,0
2.4434702396392822,13.087063789367676,4.188783168792725,0
2.9558653831481934,11.431425094604492,6.254763603210449,0
3.3961637020111084,8.509772300720215,7.8734636306762695,0
3.743380069732666,5.713814735412598,8.91647720336914,0
3.983158826828003,3.7380170822143555,9.376324653625488,0
4.179612159729004,2.5926599502563477,8.987403869628906,0
4.161512851715088,2.1787147521972656,7.742405891418457,0
3.9196889400482178,2.1729440689086914,6.036476135253906,0
3.5767147541046143,2.3122081756591797,4.328784942626953,0
3.0059266090393066,2.505643844604492,2.739152669906616,0
2.111319065093994,2.6884756088256836,1.302631139755249,0
0.9993855953216553,2.922408103942871,0.09433746337890625,0
-0.32420361042022705,3.1612367630004883,-0.8045836687088013,0
-1.5839455127716064,3.3731775283813477,-1.554126501083374,0
-2.660210609436035,3.3090639114379883,-2.211460828781128,0
-3.3736743927001953,2.89739990234375,-2.9068398475646973,0
-3.8745570182800293,2.528872489929199,-3.6656885147094727,0
-4.1378865242004395,2.1591339111328125,-4.559974670410156,0
-4.349587917327881,1.8688249588012695,-5.268282890319824,0
-4.708155632019043,1.8059406280517578,-5.557089805603027,0
-5.109838485717773,1.876969337463379,-5.268798828125,0
-5.708710193634033,1.7766447067260742,-4.275511741638184,0
-6.142035484313965,1.0300674438476562,-2.2882726192474365,0
-6.298846244812012,0.1927337646484375,-0.18524372577667236,0
-5.8710198402404785,-0.6485595703125,1.4782081842422485,0
-4.637475967407227,-1.5139760971069336,2.4667882919311523,0
-3.0244507789611816,-2.2460403442382812,2.413911819458008,0
-0.8454392552375793,-2.9835405349731445,1.3493658304214478,0
0.8369290828704834,-3.7118449211120605,-0.32773900032043457,0
1.6149557828903198,-4.346774578094482,-2.150111436843872,0
1.8686556816101074,-4.842426300048828,-3.8353426456451416,0
1.8710970878601074,-5.255784511566162,-5.110834121704102,0
1.771663784980774,-5.392736434936523,-5.962198257446289,0
1.5538544654846191,-5.439787864685059,-6.388018608093262,0
1.255472183227539,-5.143550395965576,-6.446472644805908,0
0.9429934024810791,-4.609860420227051,-6.2198262214660645,0
0.5365971326828003,-3.7317070960998535,-5.796268463134766,0
0.08539706468582153,-2.6460933685302734,-5.206363677978516,0
-0.3813540041446686,-1.1526269912719727,-4.442883491516113,0
-0.8587830662727356,0.49218273162841797,-3.616400718688965,0
-1.3161685466766357,2.1038732528686523,-2.522061824798584,0
-1.5792186260223389,3.543581008911133,-1.1681058406829834,0
-1.8157447576522827,4.7704877853393555,0.7322629690170288,0
-1.698000431060791,5.564208030700684,3.161606788635254,0
-1.0910677909851074,5.695303916931152,5.046690940856934,0
-0.0023810863494873047,4.861305236816406,4.7765350341796875,0
0.9991971850395203,3.3895483016967773,2.8296384811401367,0
0.9720882177352905,2.025252342224121,0.6096153855323792,0
1.0037719011306763,1.0030450820922852,-1.1082146167755127,0
1.0186653137207031,0.21985149383544922,-2.391669273376465,0
1.1044971942901611,-0.370086669921875,-3.1271631717681885,0
1.270632266998291,-0.805415153503418,-3.4364938735961914,0
1.2736704349517822,-1.0004634857177734,-3.3756375312805176,0
1.3631172180175781,-1.2379379272460938,-2.9376585483551025,0
1.043631672859192,-1.3888835906982422,-2.364637851715088,0
0.28254997730255127,-1.4033632278442383,-1.7001206874847412,0
-0.5472422242164612,-1.2744855880737305,-1.0860166549682617,0
-1.1112086772918701,-1.1722097396850586,-0.7153599262237549,0
-1.4576929807662964,-1.0222969055175781,-0.7224551439285278,0
-1.6954213380813599,-0.8151302337646484,-0.8356854915618896,0
-1.8924930095672607,-0.7610874176025391,-0.9417269229888916,0
-1.807995080947876,-0.8264284133911133,-0.9584349393844604,0
-1.636501431465149,-0.905766487121582,-0.8678764700889587,0
-1.272882103919983,-1.0421228408813477,-0.7426083087921143,0
-0.8461286425590515,-1.2737178802490234,-0.5036737322807312,0
-0.48028573393821716,-1.433100700378418,-0.2508440315723419,0
-0.18463723361492157,-1.4941082000732422,-0.08579839766025543,0
-0.004450850188732147,-1.5429716110229492,-0.00965040922164917,0
-0.08827800303697586,-1.5008153915405273,-0.01659289002418518,0
-0.36258652806282043,-1.3223304748535156,-0.05580209195613861,0
-0.5166270732879639,-1.1702756881713867,-0.16292157769203186,0
-0.5289664268493652,-0.9202594757080078,-0.33098575472831726,0
-0.423453152179718,-0.6536769866943359,-0.5556602478027344,0
-0.33399075269699097,-0.44226646423339844,-0.641065239906311,0
-0.18882983922958374,-0.3552894592285156,-0.5948100686073303,0
-0.10060057044029236,-0.29694557189941406,-0.4961225688457489,0
-0.012032181024551392,-0.29828453063964844,-0.2850852608680725,0
0.14128011465072632,-0.2898902893066406,-0.12192435562610626,0
0.29241448640823364,-0.3435029983520508,-0.02333841100335121,0
0.40305203199386597,-0.4399137496948242,0.04182858765125275,0
0.40118423104286194,-0.4619140625,0.08567935973405838,0
0.40639185905456543,-0.5339336395263672,0.08446383476257324,0
0.44989466667175293,-0.6511163711547852,0.08388110250234604,0
0.5366048812866211,-0.8349027633666992,0.11052045226097107,0
0.5995832085609436,-1.0110673904418945,0.1477975845336914,0
0.6392256021499634,-1.165236473083496,0.24850869178771973,0
0.7780240774154663,-1.3045539855957031,0.40557754039764404,0
0.8079402446746826,-1.3381414413452148,0.635717511177063,0
0.8202527761459351,-1.3736839294433594,0.8600250482559204,0
0.8799927234649658,-1.2437410354614258,1.0472925901412964,0
0.9395819902420044,-1.1612768173217773,1.2428064346313477,0
0.9582387804985046,-1.0425224304199219,1.4200232028961182,0
0.9023270606994629,-0.7823295593261719,1.4132835865020752,0
0.8792116045951843,-0.6176624298095703,1.3053961992263794,0
0.8407083749771118,-0.5413169860839844,1.0546109676361084,0
0.7578715682029724,-0.5724239349365234,0.8009634017944336,0
0.6806989908218384,-0.6750965118408203,0.6175676584243774,0
0.6686681509017944,-0.7274188995361328,0.565670371055603,0
0.7048407793045044,-0.7965192794799805,0.46969717741012573,0
0.6979266405105591,-0.7748785018920898,0.4321828782558441,0
0.8772148489952087,-0.6004667282104492,0.4416172206401825,0
1.0891636610031128,-0.40492916107177734,0.7265578508377075,0
1.4936742782592773,-0.10451984405517578,1.1448545455932617,0
1.9561598300933838,0.29108524322509766,1.4967389106750488,0
2.4374117851257324,0.7075328826904297,1.682199478149414,0
2.8570311069488525,1.216299057006836,1.7421119213104248,0
3.3091490268707275,1.654409408569336,1.791489601135254,0
3.727616786956787,2.155611038208008,1.668086051940918,0
4.037241458892822,2.3705368041992188,1.3939926624298096,0
4.259232997894287,2.2898693084716797,1.0529439449310303,0
4.554288864135742,2.014370918273926,0.6847347617149353,0
4.705443859100342,1.6375484466552734,0.32149380445480347,0
4.87654972076416,1.3915443420410156,-0.023785293102264404,0
4.939446449279785,1.295492172241211,-0.1408652663230896,0
5.110770225524902,1.3901519775390625,-0.05538904666900635,0
5.133306980133057,1.6684112548828125,0.13812750577926636,0
5.196850299835205,2.0991363525390625,0.2489880919456482,0
5.148470878601074,2.6295547485351562,0.2052602767944336,0
4.909135341644287,3.292941093444824,0.03943842649459839,0
4.715286731719971,3.9096755981445312,-0.16400986909866333,0
4.461058616638184,4.482110023498535,-0.36368340253829956,0
4.275295734405518,4.933806419372559,-0.34291139245033264,0
4.1795735359191895,5.15268611907959,-0.044561177492141724,0
4.222450256347656,5.328204154968262,0.5843672752380371,0
4.261219501495361,5.50372314453125,1.5371748208999634,0
3.6902787685394287,5.669773101806641,2.725802183151245,0
1.6339521408081055,5.536870956420898,3.7742574214935303,0
-0.2630636692047119,4.961939811706543,4.379426956176758,0
-1.2776234149932861,4.108517646789551,4.36638069152832,0
-2.161734104156494,3.1281728744506836,4.041509628295898,0
-2.9711408615112305,2.4425048828125,3.61242413520813,0
-3.6113550662994385,2.0325613021850586,3.2170748710632324,0
-4.096036434173584,1.8720951080322266,2.7864975929260254,0
-4.412200450897217,1.8056097030639648,2.386040210723877,0
-4.4681220054626465,1.8115510940551758,2.011003255844116,0
-4.4089460372924805,1.806105613708496,1.579587459564209,0
-4.2151031494140625,1.69342041015625,1.175528645515442,0
-3.893197774887085,1.4206361770629883,0.6984217166900635,0
-3.4760379791259766,1.109400749206543,0.0667879581451416,0
-3.0398993492126465,0.7807273864746094,-0.5788760781288147,0
-2.6807780265808105,0.5967168807983398,-1.1251640319824219,0
-2.210216999053955,0.5638799667358398,-1.5954177379608154,0
-1.8301676511764526,0.6698026657104492,-2.085747241973877,0
-1.4509189128875732,0.7994518280029297,-2.5110175609588623,0
-1.159988284111023,0.8763771057128906,-2.817723512649536,0
-0.929732084274292,0.9534978866577148,-3.072301149368286,0
-0.6248374581336975,1.023904800415039,-3.261892318725586,0
-0.3370434641838074,1.0807781219482422,-3.2732961177825928,0
-0.06530749797821045,1.189040184020996,-3.088639497756958,0
0.17935633659362793,1.375248908996582,-2.6275219917297363,0
0.6469665765762329,1.3621788024902344,-1.8593361377716064,0
1.129065990447998,1.1429243087768555,-0.846024751663208,0
1.4664719104766846,0.9277915954589844,0.06702876091003418,0
1.7094579935073853,0.6753778457641602,0.8033087253570557,0
1.7313432693481445,0.5932693481445312,1.2275714874267578,0
1.5890493392944336,0.5686988830566406,1.368612289428711,0
1.2959727048873901,0.6469793319702148,1.2428295612335205,0
0.8842315673828125,0.6437568664550781,1.082078218460083,0
0.5051565170288086,0.724085807800293,0.80934739112854,0
0.14975392818450928,0.7371559143066406,0.4697427749633789,0
-0.1960538625717163,0.6901044845581055,0.1468491554260254,0
-0.4917805790901184,0.6235246658325195,-0.1855940818786621,0
-0.7091889977455139,0.5492410659790039,-0.5129873752593994,0
-0.9640893340110779,0.43375301361083984,-0.8877367973327637,0
-1.2286720275878906,0.1190481185913086,-1.1248605251312256,0
-1.4917197227478027,-0.0887002944946289,-1.3340792655944824,0
-1.5549664497375488,-0.3284330368041992,-1.5798027515411377,0
-1.609700083732605,-0.6578083038330078,-1.7108879089355469,0
-1.5784950256347656,-0.8905181884765625,-1.8971258401870728,0
-1.5178691148757935,-1.165616512298584,-2.1600635051727295,0
-1.4654226303100586,-1.4736456871032715,-2.430453300476074,0
-1.566881775856018,-1.852735996246338,-2.7279090881347656,0
-1.6353424787521362,-2.1686573028564453,-3.1010756492614746,0
-1.795508861541748,-2.4738359451293945,-3.430905818939209,0
-2.0767173767089844,-2.7750301361083984,-3.7421135902404785,0
-2.3936140537261963,-3.0980544090270996,-4.0259480476379395,0
-2.7247023582458496,-3.303877830505371,-4.316680431365967,0
-3.1063952445983887,-3.428255558013916,-4.514214992523193,0
-3.5513193607330322,-3.4040169715881348,-4.6573166847229,0
-3.957017421722412,-3.3291869163513184,-4.7032341957092285,0
-4.3023457527160645,-3.1464223861694336,-4.5539231300354,0
-4.589900970458984,-2.968430995941162,-4.321488857269287,0
-4.695309638977051,-2.786050796508789,-3.9621214866638184,0
-4.623144149780273,-2.6022586822509766,-3.4677207469940186,0
-4.257387161254883,-2.4991354942321777,-2.9809412956237793,0
-3.7709779739379883,-2.5085091590881348,-2.498542308807373,0
-3.3041391372680664,-2.5712180137634277,-1.9548195600509644,0
-2.883143424987793,-2.7117257118225098,-1.3628380298614502,0
-2.604402542114258,-2.9183526039123535,-0.8194160461425781,0
-2.3924615383148193,-3.1839728355407715,-0.3832712173461914,0
-2.2269206047058105,-3.4653573036193848,-0.12073969841003418,0
-2.0367066860198975,-3.7359657287597656,-0.007619380950927734,0
-1.8720288276672363,-3.9669270515441895,0.013463258743286133,0
-1.7060099840164185,-4.205888271331787,-0.05066514015197754,0
-1.6261889934539795,-4.45740270614624,-0.12639307975769043,0
-1.5860356092453003,-4.687755107879639,-0.1688840389251709,0
-1.5394376516342163,-4.863192558288574,-0.1931133270263672,0
-1.6366957426071167,-5.040887355804443,-0.16600370407104492,0
-1.6867164373397827,-5.007692337036133,-0.023169994354248047,0
-1.7802067995071411,-5.105422496795654,0.11038327217102051,0
-1.8490402698516846,-5.206896781921387,0.25302934646606445,0
-1.9181660413742065,-5.180284023284912,0.43726611137390137,0
-1.8880850076675415,-5.001439094543457,0.5900866985321045,0
-1.8892582654953003,-4.586275100708008,0.7265920639038086,0
-1.8033978939056396,-3.805327892303467,0.7995283603668213,0
-1.6687464714050293,-2.689347267150879,0.8142142295837402,0
-1.2929683923721313,-1.1805057525634766,0.7379674911499023,0
-0.8110219836235046,0.6284446716308594,0.6241984367370605,0
-0.1825495958328247,2.5302791595458984,0.39647841453552246,0
0.3525403141975403,4.731653213500977,0.1522386074066162,0
0.8436081409454346,7.101512908935547,-0.07315611839294434,0
1.2314764261245728,9.656790733337402,0.18000245094299316,0
1.5375341176986694,12.203351974487305,1.2059330940246582,0
1.9950764179229736,14.07297420501709,2.912199020385742,0
2.542426824569702,14.800679206848145,5.209710121154785,0
3.330160140991211,13.29296875,7.390490531921387,0
4.163695812225342,9.945268630981445,9.063664436340332,0
5.092294216156006,6.487522125244141,10.062833786010742,0
5.394295692443848,4.048785209655762,9.322441101074219,0
5.439623832702637,2.557302474975586,7.197433948516846,0
5.221383571624756,1.8002948760986328,4.589907646179199,0
4.441651344299316,1.6198797225952148,2.2376391887664795,0
3.6425671577453613,1.6806707382202148,0.44025158882141113,0
2.687215805053711,1.902766227722168,-0.7106053829193115,0
1.7216174602508545,2.0501041412353516,-1.2733449935913086,0
0.8946326971054077,2.367091178894043,-1.2713665962219238,0
0.14019429683685303,2.832545280456543,-0.8865662813186646,0
-0.5288515090942383,3.256291389465332,-0.8772066831588745,0
-1.2146589756011963,3.47556209564209,-1.1618953943252563,0
-1.9769775867462158,3.381484031677246,-1.782530665397644,0
-2.9982621669769287,3.2299814224243164,-2.4006056785583496,0
-4.1937994956970215,2.799239158630371,-2.7316222190856934,0
-5.610954284667969,1.9944744110107422,-2.6023659706115723,0
-7.077714920043945,0.9130496978759766,-1.9338414669036865,0
-8.212069511413574,-0.2259674072265625,-0.7458027601242065,0
-8.750894546508789,-1.0324764251708984,0.31368863582611084,0
-8.861648559570312,-1.6519155502319336,0.8730512857437134,0
-8.681199073791504,-2.1472296714782715,0.7216299772262573,0
-8.047270774841309,-2.637913227081299,-0.24784672260284424,0
-5.85993766784668,-3.0587496757507324,-2.0666158199310303,0
-2.807081699371338,-3.449835777282715,-4.0533552169799805,0
-0.4174378514289856,-3.7030744552612305,-5.787193298339844,0
1.0846210718154907,-3.722640037536621,-7.025783061981201,0
1.8956081867218018,-3.597097396850586,-7.734012603759766,0
2.2958343029022217,-3.3719606399536133,-7.959630012512207,0
2.425352096557617,-3.1476831436157227,-7.852718830108643,0
2.463682174682617,-2.888308525085449,-7.40243673324585,0
2.3167333602905273,-2.5460405349731445,-6.5730977058410645,0
2.157827615737915,-2.0709328651428223,-5.306018352508545,0
1.8323204517364502,-1.4014081954956055,-3.689103126525879,0
1.3341552019119263,-0.6078109741210938,-1.8801096677780151,0
0.49659019708633423,0.22706890106201172,0.5449740886688232,0
-0.6080883145332336,1.0296449661254883,3.191507339477539,0
-1.4337708950042725,1.8103361129760742,5.214258193969727,0
-1.8240004777908325,2.5496902465820312,5.313117980957031,0
-1.4687345027923584,2.9402475357055664,3.7373695373535156,0
-0.8153931498527527,2.5798892974853516,1.7012112140655518,0
-0.21995382010936737,1.7723560333251953,-0.212149977684021,0
0.3132524788379669,0.940281867980957,-1.7713888883590698,0
0.5069775581359863,0.29727935791015625,-2.920907974243164,0
0.8517324328422546,-0.027405738830566406,-3.6704134941101074,0
0.9740031361579895,-0.10112476348876953,-3.922111988067627,0
1.180464744567871,0.010982513427734375,-3.575839042663574,0
1.4025983810424805,0.2078685760498047,-2.874138355255127,0
1.64410400390625,0.4124917984008789,-1.9528825283050537,0
1.5762908458709717,0.48340892791748047,-0.9836739301681519,0
1.0639671087265015,0.42530155181884766,-0.14571493864059448,0
0.3974456787109375,0.3337831497192383,0.5058128833770752,0
-0.18572434782981873,0.16100120544433594,0.9003250002861023,0
-0.39533478021621704,-0.04747486114501953,0.8680493235588074,0
-0.379097044467926,-0.15755653381347656,0.355327308177948,0
-0.42167946696281433,-0.2672605514526367,-0.18722325563430786,0
-0.6863443851470947,-0.31437110900878906,-0.4854545593261719,0
-0.7622897624969482,-0.3706989288330078,-0.6906426548957825,0
-0.601966381072998,-0.4530019760131836,-0.8792179822921753,0
-0.4401039481163025,-0.6952247619628906,-0.9331871271133423,0
-0.20034697651863098,-0.8461971282958984,-0.8728857040405273,0
-0.03592802211642265,-1.2002363204956055,-0.7232547402381897,0
0.08898726105690002,-1.6591119766235352,-0.6100120544433594,0
0.25802016258239746,-2.110302448272705,-0.5592624545097351,0
0.30092480778694153,-2.340975761413574,-0.4995192289352417,0
0.3367097079753876,-2.5809059143066406,-0.41949450969696045,0
0.424718976020813,-2.7224340438842773,-0.2961130142211914,0
0.5073190927505493,-2.7058801651000977,-0.11808022856712341,0
0.6918075680732727,-2.5123043060302734,0.04487967491149902,0
0.7627382874488831,-2.041515350341797,0.2287287712097168,0
0.8470181822776794,-1.3560504913330078,0.30238133668899536,0
0.9356269836425781,-0.7933444976806641,0.324004590511322,0
1.0291874408721924,-0.49431896209716797,0.21047013998031616,0
1.125770926475525,-0.3534231185913086,0.08169111609458923,0
1.149057149887085,-0.1671915054321289,-0.04590146243572235,0
1.3126769065856934,-0.07193565368652344,-0.0818604826927185,0
1.315631628036499,-5.598068237304688E-4,-0.1798466593027115,0
1.2250521183013916,-8.392333984375E-4,-0.12975823879241943,0
1.1510577201843262,-0.20657730102539062,-0.07781092077493668,0
1.0504565238952637,-0.3927469253540039,-0.14853891730308533,0
0.932712197303772,-0.5665426254272461,-0.19597414135932922,0
0.8190536499023438,-0.5892982482910156,-0.21041396260261536,0
0.5751688480377197,-0.6094579696655273,-0.16298966109752655,0
0.5478227138519287,-0.5911588668823242,-0.1349051594734192,0
0.5959126949310303,-0.5368213653564453,0.04404592886567116,0
0.5832437872886658,-0.5110273361206055,0.21139609813690186,0
0.6845271587371826,-0.4372062683105469,0.29547712206840515,0
0.775464653968811,-0.4134244918823242,0.4111235737800598,0
0.9113451242446899,-0.34633541107177734,0.5749459266662598,0
1.0015002489089966,-0.2813854217529297,0.6433549523353577,0
1.0794447660446167,-0.16116046905517578,0.7814086675643921,0
1.09452486038208,-0.10767364501953125,0.9627233743667603,0
1.015181303024292,0.005875587463378906,1.1250754594802856,0
0.9652625322341919,0.04069995880126953,1.3256583213806152,0
0.8100640773773193,0.09247684478759766,1.4658441543579102,0
0.5992801189422607,0.1108865737915039,1.6190892457962036,0
0.5576507449150085,0.055266380310058594,1.7415034770965576,0
0.6015325784683228,-0.033677101135253906,1.8515344858169556,0
0.6041746139526367,-0.11291885375976562,1.8241342306137085,0
0.692462682723999,-0.12750720977783203,1.6973437070846558,0
0.8975846767425537,-0.12057685852050781,1.4759374856948853,0
1.1911238431930542,-0.03951549530029297,1.1841180324554443,0
1.5157123804092407,0.08927440643310547,0.8027487397193909,0
1.8974361419677734,0.23702049255371094,0.372606486082077,0
2.28529691696167,0.3916950225830078,0.32495254278182983,0
2.6565346717834473,0.5412368774414062,0.39498788118362427,0
2.969149112701416,0.7644214630126953,0.4209290146827698,0
3.1546785831451416,1.0203256607055664,0.367939293384552,0
3.2452986240386963,1.1389446258544922,0.31313878297805786,0
3.3022844791412354,1.2015676498413086,0.2060551941394806,0
3.3562192916870117,1.2439765930175781,-0.03571289777755737,0
3.4046411514282227,1.333047866821289,-0.36350059509277344,0
3.5269908905029297,1.4185371398925781,-0.5200196504592896,0
3.669060230255127,1.5196952819824219,-0.5633996725082397,0
3.9180362224578857,1.679734230041504,-0.6371105313301086,0
3.94925594329834,2.0278501510620117,-0.6810483932495117,0
3.969097137451172,2.4491539001464844,-0.8266094326972961,0
4.040279865264893,3.00345516204834,-0.9757703542709351,0
4.19670295715332,3.6285314559936523,-0.971030592918396,0
4.4124932289123535,4.283774375915527,-0.6859538555145264,0
4.60689115524292,4.892777442932129,-0.08965176343917847,0
4.924173355102539,5.278812408447266,0.7746849060058594,0
5.229024887084961,5.552323341369629,1.7727725505828857,0
5.465219974517822,5.744683265686035,2.731382369995117,0
3.9036595821380615,5.724336624145508,3.426804304122925,0
1.3187172412872314,5.2641801834106445,3.8479197025299072,0
-0.49899768829345703,4.326688766479492,3.871271848678589,0
-1.5561811923980713,3.0898847579956055,3.598844289779663,0
-2.2196178436279297,2.128584861755371,3.1571342945098877,0
-2.74625301361084,1.4907855987548828,2.673273801803589,0
-3.0343663692474365,1.0259008407592773,2.160130262374878,0
-3.171330451965332,0.7197151184082031,1.724630355834961,0
-3.198908805847168,0.5411901473999023,1.260932207107544,0
-3.247504711151123,0.4400444030761719,0.9193663001060486,0
-3.184713125228882,0.41370487213134766,0.5610506534576416,0
-3.2112550735473633,0.5167646408081055,0.26063716411590576,0
-3.0802149772644043,0.6122283935546875,-0.07674300670623779,0
-2.929729700088501,0.6014432907104492,-0.48193442821502686,0
-2.7497482299804688,0.5389041900634766,-0.9435223937034607,0
-2.4424381256103516,0.42888832092285156,-1.3432514667510986,0
-2.2477164268493652,0.29249000549316406,-1.7237210273742676,0
-2.0398902893066406,0.260986328125,-2.0829474925994873,0
-1.9713060855865479,0.3437986373901367,-2.460463762283325,0
-2.0368404388427734,0.3783912658691406,-2.8436694145202637,0
-2.071367025375366,0.5422000885009766,-3.2061104774475098,0
-2.158306360244751,0.6968584060668945,-3.4732980728149414,0
-1.7984226942062378,0.8069820404052734,-3.6447043418884277,0
-1.151631236076355,0.8443260192871094,-3.552001953125,0
-0.5283970832824707,0.9119911193847656,-3.1958999633789062,0
0.1787322759628296,1.0147008895874023,-2.45185923576355,0
0.8592483401298523,1.085169792175293,-1.3332082033157349,0
1.4293832778930664,1.223313331604004,-0.09888172149658203,0
1.7653658390045166,1.428354263305664,0.9423882961273193,0
2.0048131942749023,1.5823049545288086,1.71868896484375,0
1.9361505508422852,1.7731704711914062,2.173997402191162,0
1.6520121097564697,1.9505672454833984,2.200709104537964,0
1.2592263221740723,2.0859622955322266,1.9559359550476074,0
0.7856464982032776,2.1174325942993164,1.5725376605987549,0
0.2203209400177002,2.0549850463867188,1.0276203155517578,0
-0.2924993634223938,1.956451416015625,0.4657738208770752,0
-0.6450055837631226,1.673884391784668,-0.09492325782775879,0
-0.9739785194396973,1.3558721542358398,-0.585545539855957,0
-1.1795421838760376,0.9642190933227539,-0.9894857406616211,0
-1.358361005783081,0.4915447235107422,-1.2915592193603516,0
-1.4967420101165771,0.0834341049194336,-1.5338962078094482,0
-1.480225682258606,-0.3250551223754883,-1.7660800218582153,0
-1.4501744508743286,-0.7438106536865234,-1.9946070909500122,0
-1.4256683588027954,-1.1062798500061035,-2.1732420921325684,0
-1.3800523281097412,-1.4296116828918457,-2.363701343536377,0
-1.3419114351272583,-1.8168573379516602,-2.5801100730895996,0
-1.416390299797058,-2.2488317489624023,-2.832129716873169,0
-1.5051865577697754,-2.6248741149902344,-3.1490252017974854,0
-1.689651608467102,-2.9566802978515625,-3.4622392654418945,0
-1.9458595514297485,-3.2820281982421875,-3.71091365814209,0
-2.266861915588379,-3.5429587364196777,-3.9155497550964355,0
-2.53314208984375,-3.631514072418213,-4.060495376586914,0
-2.7856006622314453,-3.614729404449463,-4.079121112823486,0
-3.062615156173706,-3.413907527923584,-3.9474756717681885,0
-3.223196268081665,-3.1729321479797363,-3.7609078884124756,0
-3.3319334983825684,-2.8681654930114746,-3.4879539012908936,0
-3.3624751567840576,-2.6171884536743164,-3.1399660110473633,0
-3.312323808670044,-2.4227023124694824,-2.7425742149353027,0
-3.241140365600586,-2.2801809310913086,-2.3836703300476074,0
-3.081765651702881,-2.2282094955444336,-2.079158306121826,0
-2.8172123432159424,-2.2502899169921875,-1.768537998199463,0
-2.538058280944824,-2.358600616455078,-1.4727742671966553,0
-2.2873761653900146,-2.5102176666259766,-1.191272497177124,0
-2.1517629623413086,-2.702791690826416,-0.9497644901275635,0
-2.093374252319336,-2.9338316917419434,-0.8125,0
-2.0310964584350586,-3.191272735595703,-0.7744183540344238,0
-1.9791259765625,-3.4008708000183105,-0.813955545425415,0
-2.0185694694519043,-3.6509203910827637,-0.9218733310699463,0
-2.0127134323120117,-3.8956665992736816,-1.0340778827667236,0
-2.078430652618408,-4.120537281036377,-1.091261625289917,0
-2.2222375869750977,-4.358804225921631,-1.0868902206420898,0
-2.3045876026153564,-4.555291652679443,-1.016747236251831,0
-2.394134044647217,-4.714786529541016,-0.8786935806274414,0
-2.4880056381225586,-4.679513931274414,-0.696599006652832,0
-2.45898175239563,-4.645721435546875,-0.3987703323364258,0
-2.6363635063171387,-4.751841068267822,-0.2346494197845459,0
-2.7274837493896484,-4.67222261428833,-0.039708614349365234,0
-2.849022388458252,-4.492811679840088,0.10390949249267578,0
-2.8984053134918213,-3.971689224243164,0.1737689971923828,0
-2.7450754642486572,-3.1348958015441895,0.14713025093078613,0
-2.2948384284973145,-1.8889141082763672,0.09932732582092285,0
-1.6458525657653809,-0.32201290130615234,0.03135228157043457,0
-0.9469754099845886,1.4202499389648438,-9.984970092773438E-4,0
-0.24909520149230957,3.2258834838867188,-0.056891679763793945,0
0.40589195489883423,5.126452445983887,0.05550384521484375,0
0.9656214118003845,7.057799339294434,0.3316359519958496,0
1.5307657718658447,8.95082950592041,0.789031982421875,0
2.2241744995117188,10.501672744750977,1.8847131729125977,0
3.117112159729004,11.284550666809082,3.3880295753479004,0
4.135366916656494,10.837915420532227,5.130074501037598,0
5.080336093902588,8.64091682434082,6.662257671356201,0
5.7028608322143555,5.754016876220703,7.812964916229248,0
5.886892795562744,3.3535804748535156,8.554079055786133,0
5.787816047668457,1.7059745788574219,8.78543472290039,0
5.322604179382324,0.8695230484008789,8.458552360534668,0
4.619801044464111,0.7140111923217773,7.427982330322266,0
4.204598903656006,0.9278554916381836,5.9876508712768555,0
3.8392186164855957,1.2883071899414062,4.4022955894470215,0
3.305241823196411,1.790522575378418,2.720921277999878,0
2.460423707962036,2.4130306243896484,1.0233566761016846,0
1.2979393005371094,3.055511474609375,-0.5290088653564453,0
-0.022246956825256348,3.6439695358276367,-1.8387478590011597,0
-1.3931074142456055,4.235898017883301,-2.752916097640991,0
-2.496927499771118,4.474924087524414,-3.3789055347442627,0
-3.3196654319763184,4.5765485763549805,-3.677948474884033,0
-3.890129327774048,4.612709045410156,-3.671912431716919,0
-4.251018524169922,4.593445777893066,-3.4633333683013916,0
-4.69662618637085,4.73712158203125,-3.189373016357422,0
-5.060300350189209,4.504121780395508,-2.8780860900878906,0
-5.402079105377197,3.8507566452026367,-2.534529685974121,0
-5.7342047691345215,2.5777883529663086,-1.942161202430725,0
-5.79041862487793,0.9991750717163086,-0.9769030809402466,0
-5.405799865722656,-0.4486703872680664,0.3814828395843506,0
-4.369687557220459,-1.5720367431640625,1.7030718326568604,0
-2.793795585632324,-2.5212717056274414,2.37798810005188,0
-0.6626008152961731,-3.338111400604248,2.086789131164551,0
0.5174373388290405,-4.051659107208252,1.151463508605957,0
1.2785457372665405,-4.664095401763916,-0.23537814617156982,0
1.679046392440796,-5.115214824676514,-1.8153440952301025,0
1.7173467874526978,-5.466385841369629,-3.6554903984069824,0
1.4918681383132935,-5.508600234985352,-5.328739166259766,0
1.0085350275039673,-5.308310031890869,-6.5366668701171875,0
0.3821311891078949,-4.958397388458252,-7.176242828369141,0
-0.060286879539489746,-4.427481651306152,-7.289478778839111,0
-0.41037124395370483,-3.538515567779541,-7.07047700881958,0
-0.8557277917861938,-2.4066176414489746,-6.376623630523682,0
-1.2421119213104248,-1.123173713684082,-5.2974467277526855,0
-1.690704584121704,0.21537494659423828,-3.8194267749786377,0
-1.9828499555587769,1.5315561294555664,-2.0950143337249756,0
-2.1802003383636475,2.723855972290039,-0.2230243682861328,0
-2.3684024810791016,3.6595211029052734,1.9906487464904785,0
-2.4105703830718994,4.308815002441406,4.072230815887451,0
-1.9233312606811523,4.4921464920043945,5.037650108337402,0
-1.0519452095031738,4.10063362121582,4.414669990539551,0
-0.32873857021331787,3.0118675231933594,2.8303072452545166,0
0.0019533485174179077,1.7037858963012695,1.0322340726852417,0
0.15127931535243988,0.7204456329345703,-0.6528566479682922,0
0.47696030139923096,0.052596092224121094,-2.1463193893432617,0
0.9615655541419983,-0.3284425735473633,-3.3179049491882324,0
1.3245497941970825,-0.5329599380493164,-3.930187225341797,0
1.7014507055282593,-0.6593456268310547,-3.9406652450561523,0
1.9789785146713257,-0.6577081680297852,-3.667080879211426,0
2.2280938625335693,-0.6312665939331055,-3.1897358894348145,0
2.397826910018921,-0.6640281677246094,-2.3706235885620117,0
2.0702600479125977,-0.7323207855224609,-1.3632221221923828,0
1.352911353111267,-0.7861528396606445,-0.5027614235877991,0
0.5155560374259949,-0.7372503280639648,0.1001812219619751,0
-0.24394983053207397,-0.5858335494995117,0.5114649534225464,0
-0.6051204204559326,-0.5352878570556641,0.6503069400787354,0
-0.7687591314315796,-0.5614795684814453,0.44457000494003296,0
-0.9407897591590881,-0.6019783020019531,0.01988673210144043,0
-1.131303310394287,-0.5274572372436523,-0.5320841670036316,0
-1.074772834777832,-0.5483617782592773,-0.8969312906265259,0
-0.8932282328605652,-0.6860589981079102,-1.171182632446289,0
-0.533336877822876,-0.9213218688964844,-1.2375314235687256,0
-0.3152342736721039,-1.1656570434570312,-1.198239803314209,0
-0.16212958097457886,-1.3760967254638672,-1.0788395404815674,0
-0.17264583706855774,-1.6029939651489258,-0.8256511688232422,0
-0.3115796744823456,-1.7698745727539062,-0.5503054857254028,0
-0.3806600570678711,-1.831435203552246,-0.20902401208877563,0
-0.2331622987985611,-1.6419668197631836,0.019070923328399658,0
0.04306656867265701,-1.3619251251220703,-0.02919679880142212,0
-0.06432150304317474,-0.9124050140380859,-0.21616241335868835,0
-0.21878285706043243,-0.6784963607788086,-0.4878646731376648,0
-0.3706429898738861,-0.4279756546020508,-0.5217031240463257,0
-0.2090110182762146,-0.3306865692138672,-0.34119221568107605,0
-0.10748615860939026,-0.20473861694335938,-0.37665584683418274,0
0.07773437350988388,-0.2151651382446289,-0.5512559413909912,0
0.023965932428836823,-0.16809463500976562,-0.8484007120132446,0
0.39984872937202454,-0.21187973022460938,-0.8083081841468811,0
0.5886591672897339,-0.22925949096679688,-0.7393786907196045,0
0.6888275742530823,-0.21548175811767578,-0.7347285747528076,0
0.5443081855773926,-0.24472904205322266,-0.6311590075492859,0
0.40782254934310913,-0.21893024444580078,-0.5262967348098755,0
0.18735498189926147,-0.2338085174560547,-0.44144707918167114,0
0.09055111557245255,-0.2534313201904297,-0.46061471104621887,0
0.27322280406951904,-0.3853607177734375,-0.457348108291626,0
0.5184717178344727,-0.43335819244384766,-0.40083664655685425,0
0.8677776455879211,-0.32816123962402344,-0.21455612778663635,0
0.7874104380607605,-0.3282022476196289,0.048853904008865356,0
0.6307680606842041,-0.27314186096191406,0.11869367957115173,0
0.2817519009113312,-0.1654529571533203,0.14269357919692993,0
0.014667928218841553,-0.029128074645996094,0.2206091582775116,0
0.31133168935775757,0.22667598724365234,0.39548808336257935,0
0.4262581169605255,0.47031116485595703,0.6654319763183594,0
0.36714795231819153,0.5918045043945312,0.755647599697113,0
0.18934227526187897,0.47176551818847656,0.6517303586006165,0
0.15639349818229675,0.36636924743652344,0.4989830553531647,0
-0.28505203127861023,0.15363121032714844,0.3155333995819092,0
-0.6665986776351929,-0.15200233459472656,0.2774428129196167,0
-0.6721709966659546,-0.4332437515258789,0.3913317620754242,0
-0.8852962255477905,-0.4533967971801758,0.43414217233657837,0
-0.5772112607955933,-0.5092182159423828,0.5708299279212952,0
-0.3163691461086273,-0.46190929412841797,0.6916598081588745,0
0.014818847179412842,-0.41676807403564453,0.7035112380981445,0
0.03709399700164795,-0.5244626998901367,0.2540595531463623,0
0.36736559867858887,-0.6174230575561523,0.025833748281002045,0
0.5181411504745483,-0.2796945571899414,-0.25099772214889526,0
0.748346745967865,-0.18622970581054688,-0.38673001527786255,0
1.2578918933868408,-0.11920452117919922,-0.47626835107803345,0
1.577085018157959,0.016974449157714844,-0.5062525272369385,0
1.801580786705017,0.12650203704833984,-0.486869215965271,0
2.024618148803711,0.26435184478759766,-0.7256543636322021,0
2.1070868968963623,0.11719036102294922,-1.1603425741195679,0
2.192528247833252,-0.10182762145996094,-1.6866674423217773,0
2.2762818336486816,-0.18456745147705078,-2.0188868045806885,0
2.3968770503997803,-0.28418636322021484,-2.093898057937622,0
2.6408097743988037,-0.38864898681640625,-1.862808346748352,0
2.8984296321868896,-0.43332576751708984,-1.443685531616211,0
3.0291576385498047,-0.3608427047729492,-0.9587352275848389,0
3.1893906593322754,-0.24061203002929688,-0.6229140758514404,0
3.252986192703247,-0.08458900451660156,-0.4572429955005646,0
3.1292543411254883,0.12633800506591797,-0.4854532480239868,0
2.928342819213867,0.40648746490478516,-0.6241933703422546,0
2.8031599521636963,0.7247400283813477,-0.8025450706481934,0
2.5427651405334473,0.7869863510131836,-0.829759955406189,0
2.3077707290649414,1.1244268417358398,-0.6315560936927795,0
2.0122010707855225,1.6697826385498047,-0.1832178831100464,0
1.5380905866622925,2.4490041732788086,0.31552958488464355,0
0.762290358543396,3.375607490539551,0.757922887802124,0
-0.10145574808120728,4.298667907714844,1.1491317749023438,0
-1.102698802947998,5.000544548034668,1.6493372917175293,0
-1.907296895980835,5.357259750366211,2.013847827911377,0
-2.4594969749450684,5.293011665344238,2.088371753692627,0
-2.8320162296295166,4.9282732009887695,1.923863410949707,0
-3.241183042526245,4.421607971191406,1.624265432357788,0
-3.625790596008301,3.828460693359375,1.3136528730392456,0
-3.900946855545044,3.201669692993164,1.0764975547790527,0
-3.9430317878723145,2.581912040710449,0.955069899559021,0
-3.9223828315734863,1.9571008682250977,0.8411446809768677,0
-3.7893877029418945,1.3916606903076172,0.5901371240615845,0
-3.5307509899139404,0.861485481262207,0.1502436399459839,0
-3.2412281036376953,0.41423988342285156,-0.41818416118621826,0
-2.8823001384735107,0.11664962768554688,-0.9377499222755432,0
-2.4899721145629883,-0.029191970825195312,-1.336560606956482,0
-1.9260154962539673,0.07678413391113281,-1.573506236076355,0
-1.50509774684906,0.34787750244140625,-1.6833635568618774,0
-1.0759215354919434,0.6974678039550781,-1.645882248878479,0
-0.906495213508606,1.0151300430297852,-1.538984775543213,0
-0.8506042957305908,1.1858711242675781,-1.4099080562591553,0
-0.7235912084579468,1.2814950942993164,-1.3017200231552124,0
-0.6060795783996582,1.268655776977539,-1.2676026821136475,0
-0.477742463350296,0.9969587326049805,-1.238884449005127,0
-0.5382041335105896,0.46707916259765625,-1.4706274271011353,0
-0.41616910696029663,0.2583799362182617,-1.8493175506591797,0
-0.16080549359321594,0.162506103515625,-2.0067288875579834,0
-5.976557731628418E-4,0.1265430450439453,-1.8443236351013184,0
-0.10961450636386871,0.15496253967285156,-1.5623691082000732,0
-0.35156917572021484,0.20443439483642578,-1.2342604398727417,0
-0.6066776514053345,0.1719799041748047,-0.9360333681106567,0
-0.7042958736419678,0.1651630401611328,-0.6600173711776733,0
-0.7602384090423584,0.15512561798095703,-0.3509218692779541,0
-0.700839638710022,0.17046451568603516,-0.06379938125610352,0
-0.6438369750976562,0.25176334381103516,0.1507577896118164,0
-0.6088972687721252,0.27463436126708984,0.27298831939697266,0
-0.7142943143844604,0.3396930694580078,0.2709522247314453,0
-0.7842898368835449,0.2724618911743164,0.215562105178833,0
-0.8972749710083008,0.18798828125,0.08456993103027344,0
-1.1319471597671509,-0.033135414123535156,-0.10350561141967773,0
-1.3974673748016357,-0.2949371337890625,-0.2870979309082031,0
-1.6823811531066895,-0.5015439987182617,-0.5385253429412842,0
-2.0207719802856445,-0.6887054443359375,-0.8080021142959595,0
-2.3010318279266357,-0.844365119934082,-1.0431216955184937,0
-2.6270534992218018,-0.9182577133178711,-1.2630541324615479,0
-2.9066226482391357,-0.9344367980957031,-1.4075757265090942,0
-3.057006359100342,-0.9696435928344727,-1.4688149690628052,0
-3.232686996459961,-1.071944236755371,-1.345219373703003,0
-3.289071798324585,-1.1794137954711914,-1.1623815298080444,0
-3.3325815200805664,-1.2708120346069336,-0.945541501045227,0
-3.1967105865478516,-1.3129386901855469,-0.6961801052093506,0
-2.812344789505005,-1.2820911407470703,-0.5191183090209961,0
-2.0708682537078857,-1.266876220703125,-0.43832945823669434,0
-1.3294482231140137,-1.2863492965698242,-0.45902371406555176,0
-0.9076414108276367,-1.263723373413086,-0.5460991859436035,0
-0.9252640008926392,-1.2201509475708008,-0.7389748096466064,0
-1.2277681827545166,-1.1073541641235352,-1.1010181903839111,0
-1.3682301044464111,-1.023167610168457,-1.334004521369934,0
-1.490414023399353,-1.0033349990844727,-1.4144662618637085,0
-1.6559216976165771,-0.8086090087890625,-1.5222537517547607,0
-1.7366900444030762,-0.5753726959228516,-1.6675559282302856,0
-1.9131252765655518,-0.4952106475830078,-1.579522728919983,0
-1.9688379764556885,-0.5709257125854492,-0.8380739688873291,0
-1.2063813209533691,-0.773838996887207,-0.5745034217834473,0
-0.9972822666168213,-0.9363641738891602,-0.5132474899291992,0
-1.3384017944335938,-1.03717041015625,-0.24423861503601074,0
-1.5271426439285278,-1.1697149276733398,9.97781753540039E-4,0
-1.6790127754211426,-1.183455467224121,0.22072982788085938,0
-1.7052913904190063,-1.1431474685668945,0.33631467819213867,0
-1.6316707134246826,-1.051168441772461,0.29505348205566406,0
-1.3806101083755493,-1.079604148864746,0.24017739295959473,0
-1.164359450340271,-1.1156606674194336,0.07288479804992676,0
-0.954042911529541,-1.1183977127075195,-0.05922532081604004,0
-0.9012040495872498,-1.0469837188720703,-0.1759037971496582,0
-0.9474015235900879,-0.913304328918457,-0.2273557186126709,0
-0.9629302024841309,-0.66461181640625,-0.37224316596984863,0
-1.0625118017196655,-0.36060333251953125,-0.4847019910812378,0
-1.0951423645019531,-0.03937339782714844,-0.6377053260803223,0
-1.0791676044464111,0.29922962188720703,-0.748645544052124,0
-0.9655165076255798,0.6242341995239258,-0.8090124130249023,0
-0.6419950723648071,0.9356842041015625,-0.7332518100738525,0
-0.11764858663082123,1.1546506881713867,-0.5694172382354736,0
0.445696622133255,1.3552722930908203,-0.29816317558288574,0
1.1261632442474365,1.4344959259033203,0.11499977111816406,0
1.6549086570739746,1.4041709899902344,0.5084786415100098,0
2.122183322906494,1.1876354217529297,0.897932767868042,0
2.4504733085632324,0.7705287933349609,1.255810260772705,0
2.540497064590454,0.20788860321044922,1.561553716659546,0
2.6371920108795166,-0.23703384399414062,1.5424871444702148,0
2.597052812576294,-0.5689668655395508,1.3703417778015137,0
2.1602392196655273,-0.6898517608642578,1.2214534282684326,0
1.3765513896942139,-0.6907949447631836,1.152878999710083,0
0.6717233657836914,-0.5360813140869141,0.9969913959503174,0
0.22625918686389923,-0.2809028625488281,0.6821770668029785,0
0.1216687262058258,-0.1263866424560547,0.4604511260986328,0
-0.009746991097927094,0.0661306381225586,0.11968445777893066,0
-0.23171032965183258,0.22477149963378906,-0.2963414192199707,0
-0.48811569809913635,0.32308483123779297,-0.5737816095352173,0
-0.7542234659194946,0.41114139556884766,-0.7452690601348877,0
-1.0166476964950562,0.4982318878173828,-0.7044779062271118,0
-1.1035308837890625,0.5124263763427734,-0.6899745464324951,0
