AccX,AccY,AccZ,stepCount
4.373870372772217,3.63767147064209,3.9246816635131836,-5.8737335205078125
3.995509386062622,3.4066104888916016,2.0554652214050293,3.956637382507324
3.563494920730591,3.2959232330322266,0.35433006286621094,-0.7516475915908813
3.0351052284240723,3.2371912002563477,-1.0491913557052612,4.876797676086426
2.448326826095581,3.214240074157715,-1.9141795635223389,0.5335246920585632
1.886783242225647,3.331892967224121,-1.994491696357727,-6.473381519317627
1.157113790512085,3.634113311767578,-1.349500298500061,-1.6105937957763672
0.34845852851867676,4.0734405517578125,-0.34977006912231445,-0.0341874361038208
-0.4978732466697693,4.535430908203125,0.5658736228942871,0.32739317417144775
-1.2303767204284668,4.6361284255981445,0.9290521144866943,0
-1.6109001636505127,4.380066871643066,0.8795082569122314,0
-1.9154577255249023,3.9950408935546875,0.35781002044677734,0
-2.2026195526123047,3.4611196517944336,-0.6660196781158447,0
-2.651005744934082,2.776200294494629,-1.7862112522125244,0
-3.3742899894714355,2.1759347915649414,-2.79579758644104,0
-4.254433631896973,1.4891643524169922,-3.567439079284668,0
-5.176519393920898,0.3724641799926758,-3.7230560779571533,0
-5.782886505126953,-1.049300193786621,-2.986543893814087,0
-6.017242431640625,-2.4154515266418457,-2.153252601623535,0
-5.960659503936768,-3.759486198425293,-1.6984951496124268,0
-5.7410173416137695,-4.9607253074646,-1.908102035522461,0
-5.489395618438721,-5.959709167480469,-2.7614588737487793,0
-4.630156517028809,-6.861287593841553,-4.119880676269531,0
-3.5643932819366455,-7.502111911773682,-5.488077163696289,0
-2.6335506439208984,-7.929471015930176,-6.569983005523682,0
-1.8566691875457764,-8.150099754333496,-7.265567779541016,0
-1.2372910976409912,-8.058542251586914,-7.4931440353393555,0
-0.8592914342880249,-7.793365478515625,-7.402631759643555,0
-0.7290380001068115,-7.294475555419922,-7.028616428375244,0
-0.8932667970657349,-6.344069480895996,-6.562618255615234,0
-1.1375633478164673,-5.06674337387085,-5.952540397644043,0
-1.4274941682815552,-3.663853168487549,-5.079282760620117,0
-1.6489627361297607,-2.143192768096924,-3.9846127033233643,0
-1.8283123970031738,-0.40758514404296875,-2.807382106781006,0
-2.058767795562744,1.3386173248291016,-1.638206124305725,0
-2.3805885314941406,3.0343542098999023,-0.020586729049682617,0
-3.0085973739624023,4.508200645446777,2.2740206718444824,0
-3.589339017868042,5.761356353759766,4.166555404663086,0
-3.741551160812378,6.435085296630859,4.575527191162109,0
-3.037961721420288,6.322841644287109,3.7539844512939453,0
-2.338040590286255,5.441155433654785,2.2337260246276855,0
-1.740901231765747,4.210529327392578,0.6701866388320923,0
-0.9890978336334229,3.074686050415039,-0.6921548247337341,0
0.023458778858184814,1.850184440612793,-1.6579759120941162,0
0.967732310295105,0.8460378646850586,-2.2144157886505127,0
1.6410818099975586,0.21756935119628906,-2.4333205223083496,0
2.125098705291748,-0.13374996185302734,-2.451843500137329,0
2.5516977310180664,-0.2609729766845703,-2.30989146232605,0
2.923898935317993,-0.3701038360595703,-1.9820945262908936,0
3.0441856384277344,-0.5521945953369141,-1.3890323638916016,0
2.824082851409912,-0.7213373184204102,-0.7808873057365417,0
2.051088571548462,-0.746373176574707,-0.4150655269622803,0
1.1839497089385986,-0.7018985748291016,-0.21450912952423096,0
0.5542276501655579,-0.7315988540649414,-0.38102275133132935,0
0.1991288959980011,-0.7277708053588867,-0.7542644143104553,0
-0.13397467136383057,-0.5709142684936523,-1.0045700073242188,0
-0.20006924867630005,-0.5529298782348633,-1.1779582500457764,0
-0.07161056995391846,-0.6114282608032227,-1.3803362846374512,0
0.18167757987976074,-0.894500732421875,-1.4567331075668335,0
0.3487435579299927,-1.0336532592773438,-1.4553065299987793,0
0.5179170370101929,-1.3327140808105469,-1.3715420961380005,0
0.662777841091156,-1.6001911163330078,-1.1841075420379639,0
0.845257043838501,-1.907867431640625,-0.8906115293502808,0
0.9476600885391235,-2.1409478187561035,-0.4838445484638214,0
1.06309175491333,-2.3927745819091797,-0.02631959319114685,0
1.1746580600738525,-2.4792089462280273,0.35480666160583496,0
1.0720796585083008,-2.45304012298584,0.6351783871650696,0
0.9278969168663025,-2.1828956604003906,0.7306755185127258,0
0.6226330399513245,-1.8436274528503418,0.6456758975982666,0
0.45360007882118225,-1.4281225204467773,0.4565257430076599,0
0.4098166227340698,-1.036849021911621,0.23505344986915588,0
0.2503014802932739,-0.6745309829711914,0.07507883012294769,0
0.15718495845794678,-0.2454843521118164,-0.034949835389852524,0
0.1089722216129303,0.20717430114746094,-0.1955009549856186,0
0.022114932537078857,0.4395427703857422,-0.23396705090999603,0
0.0712730884552002,0.5953845977783203,-0.22171325981616974,0
0.05805307626724243,0.6533145904541016,-0.20371517539024353,0
0.12847083806991577,0.560882568359375,-0.16545045375823975,0
0.10575854778289795,0.258544921875,-0.06888693571090698,0
0.15524399280548096,0.06220722198486328,0.023191094398498535,0
0.18588554859161377,-0.10717010498046875,0.1892685741186142,0
0.16685259342193604,-0.5102367401123047,0.3592785894870758,0
0.1918351650238037,-0.7927970886230469,0.5184292197227478,0
0.24887299537658691,-1.0721569061279297,0.7168096303939819,0
0.1102672815322876,-1.3268108367919922,0.9474799633026123,0
0.15430563688278198,-1.5495529174804688,1.1510299444198608,0
0.1875293254852295,-1.6064271926879883,1.359086036682129,0
0.2219552993774414,-1.4760446548461914,1.4956011772155762,0
0.15901106595993042,-1.2829570770263672,1.601638674736023,0
0.23269176483154297,-0.8048772811889648,1.6412009000778198,0
0.15729957818984985,-0.23355484008789062,1.6711666584014893,0
0.20429843664169312,0.500030517578125,1.5900654792785645,0
0.228765606880188,1.0128326416015625,1.4278268814086914,0
0.35892200469970703,1.2427234649658203,1.2935619354248047,0
0.5795748829841614,1.2663698196411133,1.1316652297973633,0
0.8590996265411377,1.1890687942504883,0.9847930073738098,0
1.0943344831466675,1.0538959503173828,0.948777973651886,0
1.378494381904602,0.8608999252319336,1.1053876876831055,0
1.7380014657974243,0.7440195083618164,1.196131944656372,0
1.971822738647461,0.810664176940918,1.26375150680542,0
2.2994511127471924,1.017409324645996,1.3081493377685547,0
2.667356252670288,1.2563581466674805,1.4325722455978394,0
3.1275858879089355,1.532212257385254,1.508575677871704,0
3.510025978088379,1.8401660919189453,1.3863945007324219,0
3.9225707054138184,1.9961309432983398,1.0500669479370117,0
4.210353851318359,1.983658790588379,0.6721091270446777,0
4.4102582931518555,1.7983427047729492,0.36999577283859253,0
4.751277923583984,1.536269187927246,0.05937612056732178,0
5.02462911605835,1.3005380630493164,-0.3182412385940552,0
5.141024112701416,1.1702070236206055,-0.5673224329948425,0
4.952831268310547,1.138096809387207,-0.5463762879371643,0
4.395155906677246,1.2662887573242188,-0.17288750410079956,0
3.7156014442443848,1.5449399948120117,0.4970196783542633,0
3.162299156188965,1.9809942245483398,1.329871416091919,0
2.746598243713379,2.686483383178711,2.0852630138397217,0
2.2887089252471924,3.4216833114624023,2.58321475982666,0
2.0090651512145996,3.985489845275879,2.7028045654296875,0
1.8839190006256104,4.2703704833984375,2.2444751262664795,0
1.2902045249938965,4.345819473266602,1.4548441171646118,0
1.0184893608093262,4.092552185058594,0.47985315322875977,0
0.9862633943557739,3.7599172592163086,-0.4924858808517456,0
0.9030379056930542,3.4248456954956055,-0.9815592765808105,0
0.8827729225158691,3.058953285217285,-0.9681359529495239,0
0.869890570640564,2.6075658798217773,-0.47599077224731445,0
0.9364377856254578,1.984994888305664,0.35352593660354614,0
1.0810394287109375,1.359114646911621,1.3394269943237305,0
0.7251232862472534,0.8831043243408203,2.308647871017456,0
-0.6394859552383423,0.9154729843139648,3.030653715133667,0
-2.0756938457489014,1.2311744689941406,3.2469935417175293,0
-3.011166572570801,1.749368667602539,3.0333809852600098,0
-3.5639724731445312,2.2388181686401367,2.609703540802002,0
-3.875784158706665,2.4707441329956055,2.064845561981201,0
-4.007054328918457,2.6083812713623047,1.5088253021240234,0
-3.996796131134033,2.5296545028686523,0.9431279897689819,0
-3.75008487701416,2.317744255065918,0.23810040950775146,0
-3.4543843269348145,1.9573698043823242,-0.5289257168769836,0
-2.995769739151001,1.72271728515625,-1.2908663749694824,0
-2.7180685997009277,1.6560077667236328,-2.0741934776306152,0
-2.5156755447387695,1.7304563522338867,-2.866529703140259,0
-2.3957955837249756,1.9673500061035156,-3.634380340576172,0
-2.337834119796753,2.2637624740600586,-4.239110469818115,0
-2.43109393119812,2.550644874572754,-4.71977424621582,0
-2.4610252380371094,2.7280683517456055,-4.981382369995117,0
-2.6100080013275146,2.8754615783691406,-5.054810523986816,0
-2.7325963973999023,2.976245880126953,-4.782957077026367,0
-2.773185968399048,3.1286449432373047,-4.195223331451416,0
-2.7520906925201416,3.208733558654785,-3.422337055206299,0
-2.3884994983673096,3.0640859603881836,-2.5108578205108643,0
-1.8596360683441162,2.66903018951416,-1.5207328796386719,0
-0.7059484124183655,2.262958526611328,-0.40548086166381836,0
0.34876710176467896,1.907663345336914,0.8726541996002197,0
1.3671245574951172,1.5928773880004883,2.0765645503997803,0
2.0299670696258545,1.3916969299316406,2.964881181716919,0
2.4383363723754883,1.1186637878417969,3.4688315391540527,0
2.4797234535217285,1.0787639617919922,3.4211502075195312,0
2.2413971424102783,1.0056209564208984,2.825535774230957,0
1.6014245748519897,0.9685792922973633,1.791832447052002,0
0.813480019569397,0.9703550338745117,0.605787992477417,0
0.1960442066192627,0.8704357147216797,-0.5959985256195068,0
-0.16916167736053467,0.6310710906982422,-1.6381909847259521,0
-0.48791658878326416,0.1641216278076172,-2.3472461700439453,0
-0.5728763937950134,-0.00649261474609375,-2.9632465839385986,0
-0.6510246396064758,-0.32842159271240234,-3.476827621459961,0
-0.7727258205413818,-0.6247310638427734,-3.8376498222351074,0
-0.9987136125564575,-1.1632513999938965,-4.057741641998291,0
-1.033236026763916,-1.3722734451293945,-4.251780986785889,0
-1.1981256008148193,-1.7374820709228516,-4.508288860321045,0
-1.4154481887817383,-2.1412253379821777,-4.841907501220703,0
-1.7599561214447021,-2.5472803115844727,-5.12154483795166,0
-2.167307138442993,-2.9934730529785156,-5.333765983581543,0
-2.522510051727295,-3.3286690711975098,-5.49638557434082,0
-2.9619691371917725,-3.595658779144287,-5.622187614440918,0
-3.471203088760376,-3.6510376930236816,-5.589268207550049,0
-4.043083190917969,-3.5812950134277344,-5.311347484588623,0
-4.503753662109375,-3.424933910369873,-5.058451175689697,0
-4.894948482513428,-3.3399181365966797,-4.85165548324585,0
-5.2174458503723145,-3.2452588081359863,-4.517731666564941,0
-5.400301933288574,-3.1989693641662598,-4.0721940994262695,0
-5.422679901123047,-3.1897172927856445,-3.5831329822540283,0
-5.248908996582031,-3.2901177406311035,-2.9580941200256348,0
-4.698721885681152,-3.4341883659362793,-2.3056626319885254,0
-3.9814205169677734,-3.587057590484619,-1.703463077545166,0
-3.3260245323181152,-3.7112464904785156,-1.2101376056671143,0
-2.7921371459960938,-3.838313102722168,-0.8846697807312012,0
-2.3556790351867676,-3.9324889183044434,-0.7052128314971924,0
-2.052521228790283,-4.086973190307617,-0.6645326614379883,0
-1.8131717443466187,-4.275017261505127,-0.7415256500244141,0
-1.6087896823883057,-4.438643455505371,-0.8556332588195801,0
-1.4436872005462646,-4.587017059326172,-0.945375919342041,0
-1.2787688970565796,-4.741422176361084,-0.9778051376342773,0
-1.165539264678955,-4.884922027587891,-0.9390871524810791,0
-1.0287055969238281,-5.0460309982299805,-0.872769832611084,0
-1.0560163259506226,-5.224677085876465,-0.7144556045532227,0
-1.1170332431793213,-5.404019832611084,-0.5265414714813232,0
-1.325400471687317,-5.605497360229492,-0.3353884220123291,0
-1.4773807525634766,-5.7093610763549805,-0.11695432662963867,0
-1.7453590631484985,-5.779903411865234,0.07600545883178711,0
-2.150599479675293,-6.105676651000977,0.19937396049499512,0
-2.4967455863952637,-6.185819149017334,0.2831885814666748,0
-2.4405922889709473,-5.799943923950195,0.3818223476409912,0
-2.6117892265319824,-5.349770545959473,0.4348266124725342,0
-2.6700692176818848,-4.693898677825928,0.4561300277709961,0
-2.443378448486328,-3.6718482971191406,0.42833375930786133,0
-1.9996240139007568,-2.2140774726867676,0.33377718925476074,0
-1.3359802961349487,-0.5140657424926758,0.2789011001586914,0
-0.6401014924049377,1.3692331314086914,0.19174575805664062,0
-0.0553472638130188,3.5662031173706055,0.2090458869934082,0
0.5187060832977295,6.071096420288086,0.369504451751709,0
0.9065016508102417,9.012070655822754,1.0692970752716064,0
1.12527334690094,12.346455574035645,2.4027185440063477,0
1.5780147314071655,15.434207916259766,4.494891166687012,0
2.3486714363098145,17.313129425048828,7.714540481567383,0
3.5046627521514893,17.317630767822266,11.085888862609863,0
4.684351921081543,14.07459831237793,12.579141616821289,0
5.264061450958252,9.629611015319824,11.555593490600586,0
5.496409893035889,6.313546180725098,9.495170593261719,0
5.649845123291016,4.335916519165039,7.067351818084717,0
5.625785827636719,3.301015853881836,4.627250671386719,0
4.943532466888428,2.8857479095458984,2.116931438446045,0
4.009930610656738,2.8274717330932617,-0.19753479957580566,0
2.829383134841919,2.9737462997436523,-2.22497820854187,0
1.3076305389404297,3.331815719604492,-3.7358222007751465,0
-0.07628011703491211,3.719013214111328,-4.360872268676758,0
-0.98720782995224,3.966588020324707,-4.202360153198242,0
-1.7545228004455566,4.180754661560059,-3.648406505584717,0
-2.4482007026672363,4.106692314147949,-3.091822624206543,0
-3.0156588554382324,3.756135940551758,-3.1405739784240723,0
-3.485541820526123,3.079648017883301,-3.8530848026275635,0
-3.9763357639312744,2.105534553527832,-4.818360328674316,0
-4.406074047088623,1.0829238891601562,-5.343092918395996,0
-4.942701816558838,0.2901172637939453,-5.2148895263671875,0
-5.75158166885376,-0.6444902420043945,-4.354852676391602,0
-6.290839195251465,-1.7872271537780762,-2.4846723079681396,0
-6.471530914306641,-2.7080211639404297,-0.46757054328918457,0
-6.352001667022705,-3.4857892990112305,1.2840766906738281,0
-5.66899299621582,-4.226869106292725,2.1804256439208984,0
-4.637186527252197,-4.933455944061279,1.805704116821289,0
-3.649714231491089,-5.554214000701904,0.14871430397033691,0
-2.3999364376068115,-5.985047817230225,-2.052994728088379,0
-1.118147850036621,-6.335124969482422,-3.9498040676116943,0
-0.298721045255661,-6.644434928894043,-5.3281731605529785,0
0.09114676713943481,-6.802541732788086,-6.114554405212402,0
0.19012737274169922,-6.924147605895996,-6.329345703125,0
0.06399370729923248,-6.820441246032715,-6.155234336853027,0
-0.1935938447713852,-6.458512306213379,-5.650147914886475,0
-0.5783185958862305,-5.600060939788818,-4.88650369644165,0
-1.1539838314056396,-4.406459331512451,-3.9765570163726807,0
-1.678951382637024,-3.1177988052368164,-3.128265380859375,0
-2.189664602279663,-1.6464147567749023,-2.3149566650390625,0
-2.8111684322357178,0.20283889770507812,-1.6111904382705688,0
-3.42459774017334,2.1992359161376953,-0.9151527285575867,0
-4.104818344116211,4.322393417358398,0.4743235111236572,0
-4.625342845916748,6.238870620727539,1.9416254758834839,0
-4.35286808013916,7.463491439819336,2.364922523498535,0
-3.2089385986328125,7.577178955078125,1.637007474899292,0
-1.8632010221481323,6.644606590270996,0.45927977561950684,0
-0.7536219358444214,5.177335739135742,-0.6918608546257019,0
0.16433840990066528,3.7816925048828125,-1.5474098920822144,0
1.043241262435913,2.4364662170410156,-2.1094186305999756,0
1.6289440393447876,1.1608819961547852,-2.5934510231018066,0
1.9425286054611206,0.12698650360107422,-3.1843178272247314,0
2.0127058029174805,-0.6679897308349609,-3.7232565879821777,0
1.9904024600982666,-1.1264410018920898,-4.169947624206543,0
1.9258503913879395,-1.4474153518676758,-4.153228759765625,0
1.8789491653442383,-1.8440299034118652,-3.854801654815674,0
1.9261746406555176,-2.0700016021728516,-3.140923261642456,0
1.9068312644958496,-2.331310749053955,-2.20058274269104,0
1.936999797821045,-2.625643253326416,-1.239647626876831,0
1.8663725852966309,-2.8143396377563477,-0.5053154230117798,0
1.7975358963012695,-2.8018856048583984,0.1659163236618042,0
1.5094181299209595,-2.566905975341797,0.7274090051651001,0
0.8611137270927429,-2.181314468383789,0.7150980830192566,0
0.40328484773635864,-1.685861587524414,0.5354530811309814,0
0.21121004223823547,-1.3221349716186523,0.17890405654907227,0
0.13373920321464539,-1.0732393264770508,-0.08782929182052612,0
0.10177275538444519,-0.8410158157348633,-0.21512454748153687,0
0.04201224446296692,-0.6111221313476562,-0.3006877303123474,0
-0.23878759145736694,-0.4792518615722656,-0.25472939014434814,0
-0.43645304441452026,-0.40467071533203125,-0.17175164818763733,0
-0.493049681186676,-0.38251209259033203,-0.0528470054268837,0
-0.4296589493751526,-0.4126729965209961,0.019101865589618683,0
-0.38013947010040283,-0.43288421630859375,0.03488493338227272,0
-0.4525313973426819,-0.38098716735839844,-0.084623783826828,0
-0.477486252784729,-0.3933725357055664,-0.2633439600467682,0
-0.47472673654556274,-0.30260467529296875,-0.34866631031036377,0
-0.3513532280921936,-0.10165977478027344,-0.35797393321990967,0
-0.1171002984046936,0.06107521057128906,-0.2676463723182678,0
0.18724042177200317,0.32433128356933594,-0.08464626967906952,0
0.47348666191101074,0.47043418884277344,0.021363437175750732,0
0.7679908275604248,0.43498802185058594,0.13694679737091064,0
0.8960092067718506,0.32820892333984375,0.1545225828886032,0
0.9551286697387695,0.44185447692871094,0.1577816903591156,0
1.1129446029663086,0.15157032012939453,0.08654344081878662,0
1.2329787015914917,0.04366779327392578,0.11996471881866455,0
1.3057844638824463,-0.1761789321899414,0.3057996332645416,0
1.5613789558410645,-0.5866794586181641,0.5556520819664001,0
1.7011305093765259,-0.8479995727539062,0.735551655292511,0
1.8283315896987915,-1.0415468215942383,1.0062336921691895,0
1.7946393489837646,-1.0788917541503906,1.198368787765503,0
1.7196922302246094,-1.2399425506591797,1.4009331464767456,0
1.6609143018722534,-1.3212575912475586,1.477748990058899,0
1.3786052465438843,-1.1604061126708984,1.4668316841125488,0
1.042198657989502,-0.9467010498046875,1.4822524785995483,0
0.7180845141410828,-0.582341194152832,1.4702624082565308,0
0.4946233034133911,-0.19920730590820312,1.4266960620880127,0
0.4748747944831848,-0.0676279067993164,1.5199027061462402,0
0.32835662364959717,0.032469749450683594,1.5736398696899414,0
0.19551587104797363,0.3017101287841797,1.6203763484954834,0
0.14538657665252686,0.18738460540771484,1.6045811176300049,0
0.23008811473846436,0.08926868438720703,1.6874258518218994,0
0.4586622714996338,0.11023712158203125,1.877715826034546,0
0.7733786106109619,0.2310924530029297,1.9973599910736084,0
1.1618802547454834,0.4181957244873047,1.869924783706665,0
1.6233313083648682,0.6522197723388672,1.8045387268066406,0
2.123073101043701,1.1840057373046875,1.792227029800415,0
2.6261682510375977,1.936446189880371,1.6112829446792603,0
3.033191680908203,2.4809799194335938,1.2931591272354126,0
3.2809505462646484,2.7052431106567383,0.9623331427574158,0
3.536642551422119,2.63826847076416,0.6715922951698303,0
3.810182571411133,2.3761301040649414,0.4470473527908325,0
4.004032135009766,2.1414718627929688,-0.08331692218780518,0
4.154908180236816,1.8339614868164062,-0.4058334231376648,0
4.421770095825195,1.592656135559082,-0.5613160133361816,0
4.777228355407715,1.4083232879638672,-0.32170480489730835,0
5.129140853881836,1.4940338134765625,0.024036169052124023,0
5.378015041351318,1.6727323532104492,0.3708760142326355,0
5.52498197555542,2.063976287841797,0.5024299025535583,0
5.585038661956787,2.715282440185547,0.35668015480041504,0
5.376665115356445,3.442124366760254,-0.040077269077301025,0
5.129504203796387,4.100905418395996,-0.3021395206451416,0
4.850512504577637,4.483790397644043,-0.3606794774532318,0
4.580043792724609,4.536327362060547,-0.0545467734336853,0
4.423012733459473,4.405027389526367,0.5608307123184204,0
4.221269607543945,4.193146705627441,1.5165879726409912,0
3.547880172729492,3.9318599700927734,2.4842543601989746,0
1.114647626876831,3.7881832122802734,3.2985522747039795,0
-0.8913702964782715,3.472543716430664,3.7347636222839355,0
-2.252933979034424,2.9951162338256836,3.82283616065979,0
-2.9158706665039062,2.552947998046875,3.635988712310791,0
-3.5240392684936523,2.350092887878418,3.26369571685791,0
-3.840580463409424,2.4922399520874023,2.7976620197296143,0
-4.002049446105957,2.850421905517578,2.2786500453948975,0
-4.058375835418701,3.1497230529785156,1.791282296180725,0
-3.9564247131347656,3.3304595947265625,1.3032981157302856,0
-3.7006161212921143,3.2418079376220703,0.7659637928009033,0
-3.3800430297851562,3.0077667236328125,0.15455734729766846,0
-3.0442421436309814,2.6754865646362305,-0.5395644903182983,0
-2.6883559226989746,2.509634017944336,-1.2782366275787354,0
-2.4470224380493164,2.337092399597168,-1.955075979232788,0
-2.395890235900879,2.322275161743164,-2.6009585857391357,0
-2.508326768875122,2.416797637939453,-3.1518349647521973,0
-2.5880489349365234,2.414809226989746,-3.6451499462127686,0
-2.8047406673431396,2.362126350402832,-4.047675132751465,0
-3.0837602615356445,2.266598701477051,-4.384629249572754,0
-3.2621374130249023,2.1196508407592773,-4.610279083251953,0
-3.406463623046875,1.864975929260254,-4.570952415466309,0
-3.3706254959106445,1.6949052810668945,-4.214785575866699,0
-3.075356960296631,1.473703384399414,-3.5624637603759766,0
-2.4879517555236816,1.1993579864501953,-2.6544556617736816,0
-1.5548161268234253,1.0488100051879883,-1.5321993827819824,0
-0.7048923969268799,1.066873550415039,-0.24805450439453125,0
0.16718018054962158,1.238144874572754,1.0984508991241455,0
0.8986486792564392,1.4892807006835938,2.490215301513672,0
1.2814643383026123,1.7658004760742188,3.644836187362671,0
1.3319165706634521,1.9228515625,4.182640075683594,0
1.0217666625976562,1.8474206924438477,3.875732183456421,0
0.38626790046691895,1.666325569152832,2.9781463146209717,0
-0.1855451464653015,1.3846473693847656,1.8720166683197021,0
-0.5959384441375732,1.0960168838500977,0.8025286197662354,0
-0.7271130084991455,0.7361335754394531,-0.20546555519104004,0
-0.8705064654350281,0.2815256118774414,-1.0100607872009277,0
-0.9865579605102539,-0.17650508880615234,-1.7564830780029297,0
-0.9351300597190857,-0.5422115325927734,-2.352540969848633,0
-0.9739904999732971,-0.9781961441040039,-2.8302721977233887,0
-1.0742511749267578,-1.4028091430664062,-3.3126957416534424,0
-1.346602201461792,-1.9281368255615234,-3.7766082286834717,0
-1.4494714736938477,-2.2859768867492676,-4.272855281829834,0
-1.70456862449646,-2.7010202407836914,-4.780294895172119,0
-2.026777505874634,-3.070141315460205,-5.2011213302612305,0
-2.297215461730957,-3.4983057975769043,-5.559821128845215,0
-2.5906882286071777,-3.8631300926208496,-5.91208553314209,0
-2.8455257415771484,-4.107113361358643,-6.1577301025390625,0
-3.0669054985046387,-4.29722785949707,-6.306580066680908,0
-3.302727699279785,-4.354602813720703,-6.3372416496276855,0
-3.5167109966278076,-4.267793655395508,-6.086593151092529,0
-3.634629726409912,-4.1233439445495605,-5.817419052124023,0
-3.6535911560058594,-3.916909694671631,-5.478952884674072,0
-3.6157939434051514,-3.7113118171691895,-5.032158374786377,0
-3.5128297805786133,-3.5047659873962402,-4.509891986846924,0
-3.3771591186523438,-3.3457164764404297,-4.011857509613037,0
-3.2870874404907227,-3.2801766395568848,-3.439012050628662,0
-3.0990114212036133,-3.315882682800293,-2.799781084060669,0
-2.9950835704803467,-3.453261375427246,-2.1672704219818115,0
-2.7843475341796875,-3.7023134231567383,-1.487677812576294,0
-2.580294132232666,-3.955598831176758,-0.946707010269165,0
-2.4271240234375,-4.3112006187438965,-0.536529541015625,0
-2.189262866973877,-4.627856254577637,-0.2448439598083496,0
-1.9577670097351074,-4.941422462463379,-0.09061002731323242,0
-1.6003127098083496,-5.139496803283691,0.024250507354736328,0
-1.235245704650879,-5.4301676750183105,0.18313074111938477,0
-0.9637035131454468,-5.7295308113098145,0.3688383102416992,0
-0.7864793539047241,-5.829416275024414,0.6168913841247559,0
-0.7766521573066711,-5.858937740325928,0.9269018173217773,0
-0.9502618312835693,-5.698246955871582,1.3462543487548828,0
-1.2204495668411255,-5.9185075759887695,1.7952361106872559,0
-1.4704887866973877,-5.832322120666504,2.163209915161133,0
-1.6799508333206177,-5.515830039978027,2.4352340698242188,0
-1.8593206405639648,-5.26755428314209,2.5749566555023193,0
-1.8733479976654053,-4.869318962097168,2.6348588466644287,0
-1.8909293413162231,-4.452376842498779,2.5861551761627197,0
-1.7934157848358154,-3.9158692359924316,2.4548463821411133,0
-1.5001767873764038,-3.1448235511779785,2.3195788860321045,0
-0.7951270341873169,-2.0793371200561523,2.112846851348877,0
0.21337103843688965,-0.5325708389282227,1.838050127029419,0
1.073752760887146,1.584442138671875,1.5495729446411133,0
1.6096091270446777,4.1168928146362305,1.1925098896026611,0
2.000835418701172,6.98906135559082,1.0266821384429932,0
2.4373483657836914,10.033807754516602,1.066711187362671,0
2.652824878692627,13.391636848449707,1.6845273971557617,0
2.86356782913208,16.309917449951172,3.1150128841400146,0
3.4440741539001465,17.811538696289062,4.93372106552124,0
4.482355117797852,17.34881591796875,6.781301498413086,0
5.432315826416016,13.95302677154541,7.592921257019043,0
5.875155925750732,9.665913581848145,7.385641098022461,0
5.301155090332031,6.52490234375,6.267122268676758,0
4.449808120727539,4.893239974975586,4.419800281524658,0
3.8363261222839355,4.068633079528809,2.615229606628418,0
3.018805742263794,3.5710573196411133,1.4961156845092773,0
1.9444751739501953,3.1139001846313477,1.2463326454162598,0
0.5513173937797546,2.651759147644043,1.6602044105529785,0
-0.8981990814208984,2.19168758392334,2.1290249824523926,0
-2.349181652069092,2.2575931549072266,2.0312891006469727,0
-3.324117422103882,2.012857437133789,1.073725938796997,0
-3.8091602325439453,1.2640199661254883,-0.7250876426696777,0
-4.276246070861816,0.29740428924560547,-2.9249300956726074,0
-4.762457370758057,-0.5470085144042969,-5.086172103881836,0
-5.222131252288818,-1.1539554595947266,-6.645236015319824,0
-5.987418174743652,-1.6617584228515625,-7.320423126220703,0
-7.134766101837158,-2.2804689407348633,-6.854825019836426,0
-8.195680618286133,-3.040285110473633,-5.615693092346191,0
-8.612634658813477,-3.6373472213745117,-4.043815612792969,0
-8.449063301086426,-3.8692269325256348,-2.895524501800537,0
-7.891236305236816,-3.78155517578125,-2.242595672607422,0
-6.97467041015625,-3.5645346641540527,-2.306361436843872,0
-5.511691093444824,-3.3663406372070312,-3.1384782791137695,0
-3.9764180183410645,-3.142915725708008,-4.556943893432617,0
-2.1976284980773926,-2.905245780944824,-6.113914489746094,0
-0.9026908874511719,-2.765007972717285,-7.245580196380615,0
-0.11996519565582275,-2.6690073013305664,-7.82774543762207,0
0.13585594296455383,-2.5690388679504395,-8.085306167602539,0
0.12356889247894287,-2.280698299407959,-8.154648780822754,0
0.12481480836868286,-1.9642596244812012,-8.092602729797363,0
0.1163407564163208,-1.5504074096679688,-7.728157997131348,0
0.08145695924758911,-1.1135320663452148,-6.887446880340576,0
0.13206440210342407,-0.4674062728881836,-5.616432189941406,0
0.26497337222099304,0.1528482437133789,-3.665266752243042,0
0.6283133625984192,0.9615201950073242,-1.123525619506836,0
0.8425503969192505,1.8350744247436523,1.515740990638733,0
1.2098896503448486,2.613933563232422,4.272391319274902,0
1.5774742364883423,3.0554141998291016,6.196654319763184,0
1.8357648849487305,2.8298444747924805,6.04904842376709,0
1.5839128494262695,2.046717643737793,3.8466262817382812,0
1.0943350791931152,1.2245922088623047,1.212869644165039,0
0.7351073622703552,0.5010108947753906,-1.0072872638702393,0
0.6038026809692383,-0.02999401092529297,-2.669715166091919,0
0.5570400953292847,-0.31307220458984375,-3.7798240184783936,0
0.6100152730941772,-0.4342823028564453,-4.437194347381592,0
0.7015448212623596,-0.3937540054321289,-4.612905502319336,0
0.6749182343482971,-0.31133270263671875,-4.374608039855957,0
0.7705880403518677,-0.28052425384521484,-3.5851664543151855,0
0.6644799709320068,-0.33259105682373047,-2.6398568153381348,0
0.6211851835250854,-0.5274124145507812,-1.7300212383270264,0
0.3330484926700592,-0.726292610168457,-1.0638242959976196,0
0.051685333251953125,-0.8145971298217773,-0.694158136844635,0
-0.17742878198623657,-0.7853364944458008,-0.5769123435020447,0
-0.280508816242218,-0.8227777481079102,-0.611423909664154,0
-0.43304944038391113,-0.8766326904296875,-0.68546062707901,0
-0.4754241704940796,-0.932525634765625,-0.7780018448829651,0
-0.3840855360031128,-1.1099748611450195,-0.8491673469543457,0
-0.168643057346344,-1.3394432067871094,-0.83754962682724,0
0.005942642688751221,-1.6041135787963867,-0.7290775179862976,0
0.1398981213569641,-1.86090087890625,-0.6194019913673401,0
0.2715523838996887,-2.1026511192321777,-0.46999257802963257,0
0.41036444902420044,-2.243321418762207,-0.32108715176582336,0
0.5013656616210938,-2.349982261657715,-0.18433648347854614,0
0.6425566673278809,-2.3126869201660156,-0.08325892686843872,0
0.7260120511054993,-2.1722679138183594,0.006448328495025635,0
0.7612248659133911,-1.9742794036865234,0.0756729245185852,0
0.8366506695747375,-1.7211647033691406,0.09632558375597,0
0.7365953922271729,-1.477555274963379,0.13590937852859497,0
0.5562220811843872,-1.0210847854614258,0.1658671349287033,0
0.3715224266052246,-0.3711671829223633,0.1953614354133606,0
0.36907827854156494,0.2185344696044922,0.22611233592033386,0
0.4004219174385071,0.5831260681152344,0.26715052127838135,0
0.5325080156326294,0.7707223892211914,0.2989656925201416,0
0.5380209684371948,0.7982864379882812,0.3598366379737854,0
0.6298760175704956,0.7592763900756836,0.4090316593647003,0
0.7408257722854614,0.7470054626464844,0.3768842816352844,0
0.8181845545768738,0.5318641662597656,0.3250817060470581,0
0.8737926483154297,0.4344644546508789,0.3319418430328369,0
0.976902186870575,0.28484439849853516,0.3971271514892578,0
1.0128018856048584,0.2623929977416992,0.48704296350479126,0
1.142201542854309,0.1374492645263672,0.6186549067497253,0
1.3082220554351807,0.005873680114746094,0.7706049680709839,0
1.3894410133361816,-0.14897727966308594,0.8378309011459351,0
1.4124228954315186,-0.23855209350585938,0.9977397918701172,0
1.2501835823059082,-0.16487598419189453,1.2796974182128906,0
1.3169405460357666,-0.24370956420898438,1.4898083209991455,0
1.4144619703292847,-0.32419586181640625,1.6248514652252197,0
1.3607555627822876,-0.2677593231201172,1.8679039478302002,0
1.1863735914230347,-0.13219642639160156,2.1600215435028076,0
0.8114962577819824,0.08445167541503906,2.514071464538574,0
0.3740410804748535,0.3219795227050781,2.8929355144500732,0
0.09099984169006348,0.6159677505493164,3.212043046951294,0
-0.11246240139007568,0.8777151107788086,3.380605936050415,0
-0.20754897594451904,1.0713939666748047,3.362981081008911,0
0.11483359336853027,0.9987678527832031,3.0377068519592285,0
0.5123354196548462,1.1719856262207031,2.6501924991607666,0
0.8812806606292725,1.5117769241333008,2.1322379112243652,0
1.2681336402893066,1.9651575088500977,1.6192177534103394,0
1.9152421951293945,2.144500732421875,1.6563221216201782,0
2.617304801940918,2.322298049926758,1.0087183713912964,0
3.169113874435425,2.3880538940429688,0.2504000663757324,0
3.571685791015625,2.188570022583008,-0.2329099178314209,0
3.891653537750244,1.6644296646118164,-0.3968862295150757,0
3.9464364051818848,1.5045204162597656,-0.8012382984161377,0
3.929497241973877,1.1846923828125,-1.1133060455322266,0
4.005921363830566,0.8152122497558594,-1.338606595993042,0
4.056434631347656,0.5158567428588867,-1.4711229801177979,0
4.198192596435547,0.6213464736938477,-1.656404733657837,0
4.220475196838379,0.9829950332641602,-1.83673894405365,0
4.271949768066406,1.5600700378417969,-1.992527723312378,0
4.367772579193115,2.2260265350341797,-2.117655038833618,0
4.574163436889648,2.907329559326172,-1.9511144161224365,0
4.989068984985352,3.4780521392822266,-1.4056119918823242,0
5.651640892028809,3.9918317794799805,-0.3114815354347229,0
6.41262674331665,4.552290916442871,1.02248215675354,0
7.039034366607666,5.207596778869629,2.3321692943573,0
7.503495693206787,5.9839982986450195,3.1790623664855957,0
7.32963752746582,6.730438232421875,3.4623236656188965,0
4.115193843841553,6.7337493896484375,3.4608070850372314,0
0.5165392160415649,5.968111991882324,3.5065014362335205,0
-1.496881127357483,5.039575576782227,3.3127055168151855,0
-2.7366042137145996,4.374356269836426,2.8782906532287598,0
-3.3619534969329834,3.903268814086914,2.2820510864257812,0
-3.6418039798736572,3.6480627059936523,1.687415361404419,0
-3.6273117065429688,3.43670654296875,1.169994831085205,0
-3.484679937362671,3.1139612197875977,0.954693615436554,0
-3.28909969329834,2.720651626586914,0.8796033263206482,0
-3.1038568019866943,2.25656795501709,0.9013844728469849,0
-2.8221144676208496,1.702000617980957,0.8364886045455933,0
-2.5455210208892822,1.2163496017456055,0.6036981344223022,0
-2.244778871536255,0.8584461212158203,0.1221456527709961,0
-1.8507565259933472,0.6729736328125,-0.535804808139801,0
-1.5890522003173828,0.5062646865844727,-1.1573554277420044,0
-1.4134371280670166,0.36998558044433594,-1.7430654764175415,0
-1.4102380275726318,0.3429231643676758,-2.2509360313415527,0
-1.5415394306182861,0.3414020538330078,-2.6351141929626465,0
-1.776532530784607,0.3489665985107422,-2.9173038005828857,0
-2.082285165786743,0.3948545455932617,-3.1416006088256836,0
-2.5605125427246094,0.5277605056762695,-3.504157066345215,0
-3.1098177433013916,0.7270231246948242,-3.8322999477386475,0
-3.513500452041626,0.9288339614868164,-3.954676628112793,0
-3.7213191986083984,1.2439804077148438,-3.8139734268188477,0
-3.6865651607513428,1.5198907852172852,-3.437356472015381,0
-3.432281255722046,1.816575050354004,-2.734943389892578,0
-2.8838844299316406,2.2127342224121094,-1.8571921586990356,0
-2.0703628063201904,2.628843307495117,-0.8033103942871094,0
-1.2906970977783203,2.970709800720215,0.17684483528137207,0
-0.8522443771362305,3.150933265686035,1.3221344947814941,0
-0.618076741695404,3.122709274291992,2.2178494930267334,0
-0.6013205051422119,2.7436676025390625,2.745617151260376,0
-0.7260943651199341,2.1350650787353516,2.766714096069336,0
-0.8939591646194458,1.4328346252441406,2.354217052459717,0
-1.1071367263793945,0.7801933288574219,1.7431738376617432,0
-1.3047521114349365,0.19143009185791016,1.023993968963623,0
-1.5663232803344727,-0.42883968353271484,0.2312488555908203,0
-1.7838146686553955,-1.1015167236328125,-0.5724325180053711,0
-1.877021074295044,-1.6465940475463867,-1.2552781105041504,0
-2.0385518074035645,-2.1281867027282715,-1.922293782234192,0
-2.176420211791992,-2.5553808212280273,-2.558610200881958,0
-2.234483003616333,-2.939702033996582,-3.1444764137268066,0
-2.329214096069336,-3.2833681106567383,-3.7335197925567627,0
-2.4628758430480957,-3.5815067291259766,-4.194762706756592,0
-2.5995514392852783,-3.800502300262451,-4.591159343719482,0
-2.741981029510498,-4.0047831535339355,-5.028573989868164,0
-2.919522285461426,-4.151000499725342,-5.454998016357422,0
-3.015632152557373,-4.286677360534668,-5.792253494262695,0
-3.1481924057006836,-4.411494731903076,-6.000387191772461,0
-3.162024974822998,-4.358012676239014,-6.036574363708496,0
-2.9369254112243652,-4.176814556121826,-5.953531265258789,0
-2.732311725616455,-3.9044666290283203,-5.456562042236328,0
-2.5500128269195557,-3.577446937561035,-4.9613037109375,0
-2.3757855892181396,-3.263185501098633,-4.335297584533691,0
-2.255129337310791,-2.993314743041992,-3.6802761554718018,0
-2.1810197830200195,-2.8400282859802246,-3.0572915077209473,0
-2.1608593463897705,-2.7726807594299316,-2.429133176803589,0
-2.0846264362335205,-2.8516178131103516,-1.6796467304229736,0
-1.9431430101394653,-3.06536865234375,-0.9844651222229004,0
-1.8832179307937622,-3.3975563049316406,-0.37803053855895996,0
-1.7478609085083008,-3.817359447479248,0.11940145492553711,0
-1.563934564590454,-4.231667995452881,0.43215036392211914,0
-1.3385733366012573,-4.6381516456604,0.5940899848937988,0
-1.027840256690979,-5.077475070953369,0.6698112487792969,0
-0.6809200644493103,-5.422760009765625,0.6471030712127686,0
-0.3443797826766968,-5.747979164123535,0.5684106349945068,0
-0.10580754280090332,-6.0001654624938965,0.4474027156829834,0
-0.05068230628967285,-6.233973503112793,0.30975794792175293,0
-0.04963338375091553,-6.422665596008301,0.20516514778137207,0
-0.2613655924797058,-6.388857841491699,0.12371945381164551,0
-0.5953401923179626,-6.33554744720459,0.10554838180541992,0
-0.7135581970214844,-6.683005332946777,-0.02510237693786621,0
-0.8960419297218323,-6.6411590576171875,-0.10383892059326172,0
-1.063783884048462,-6.298535346984863,-0.06436777114868164,0
-1.2255072593688965,-6.049532890319824,-0.03227806091308594,0
-1.2964411973953247,-5.61619234085083,0.005667924880981445,0
-1.300478219985962,-4.864444732666016,0.1349039077758789,0
-1.146962285041809,-3.7249069213867188,0.2613060474395752,0
-0.7676618695259094,-2.3242101669311523,0.33115124702453613,0
-0.29333722591400146,-0.6763525009155273,0.381145715713501,0
0.05373179912567139,1.3553800582885742,0.4355309009552002,0
0.45862069725990295,3.723536491394043,0.5344574451446533,0
0.8822735548019409,6.395223617553711,0.7310359477996826,0
1.1135578155517578,9.430668830871582,1.2189695835113525,0
1.2735406160354614,12.662392616271973,2.0925214290618896,0
1.3447265625,15.66623592376709,3.679474353790283,0
1.8268355131149292,17.703784942626953,6.347321510314941,0
2.563605308532715,17.907814025878906,8.979135513305664,0
3.316781997680664,15.941598892211914,10.788442611694336,0
3.80287766456604,12.383637428283691,11.135122299194336,0
3.832012891769409,9.268773078918457,10.54077434539795,0
3.4668517112731934,7.283541679382324,9.211467742919922,0
3.070176124572754,6.2553300857543945,7.4648847579956055,0
2.550557851791382,5.901567459106445,5.664147853851318,0
1.6587918996810913,6.1023359298706055,3.9816172122955322,0
0.40629521012306213,6.502814292907715,2.5036728382110596,0
-0.8824721574783325,6.408356666564941,1.1089622974395752,0
-2.0173988342285156,6.026030540466309,-0.03928685188293457,0
-3.1431379318237305,5.278043746948242,-1.093441128730774,0
-4.337367057800293,4.2523651123046875,-2.222409248352051,0
-5.439307689666748,2.6071853637695312,-3.556525707244873,0
-6.367654800415039,0.4512014389038086,-5.0435614585876465,0
-7.070682048797607,-1.7430205345153809,-6.346238136291504,0
-7.535571575164795,-3.5893759727478027,-7.10936164855957,0
-7.694406509399414,-5.271470069885254,-7.212234020233154,0
-7.510974884033203,-6.595284938812256,-6.896195411682129,0
-7.3094072341918945,-7.403227806091309,-6.317005634307861,0
-6.880059719085693,-7.779482841491699,-5.713785171508789,0
-6.294511795043945,-7.968199729919434,-5.190202236175537,0
-5.17540979385376,-7.906952857971191,-4.605355739593506,0
-3.0186767578125,-7.306208610534668,-3.901129722595215,0
-0.6511556506156921,-6.223572731018066,-3.1730122566223145,0
1.2105659246444702,-4.982080459594727,-2.604620933532715,0
2.3803610801696777,-3.887765407562256,-2.4188930988311768,0
2.7880616188049316,-3.201017379760742,-2.6047191619873047,0
2.7519237995147705,-2.758786201477051,-3.032132387161255,0
2.519641876220703,-2.4772214889526367,-3.4599714279174805,0
2.1325974464416504,-2.107668876647949,-3.8545050621032715,0
1.6438161134719849,-1.6458120346069336,-4.035312652587891,0
1.1135962009429932,-1.0683507919311523,-3.991459369659424,0
0.578169584274292,-0.39275074005126953,-3.7503395080566406,0
0.03066912293434143,0.39452552795410156,-3.3346288204193115,0
-0.576541543006897,1.2040691375732422,-2.778892993927002,0
-1.1258697509765625,2.0972042083740234,-2.118039846420288,0
-1.6449118852615356,2.896113395690918,-1.3058719635009766,0
-2.100397825241089,3.497526168823242,-0.3399348258972168,0
-2.5474984645843506,3.8032264709472656,0.9230829477310181,0
-2.8761065006256104,3.9736242294311523,2.2741012573242188,0
-2.6692891120910645,3.6771669387817383,2.8475606441497803,0
-1.8781249523162842,2.8272104263305664,2.4377284049987793,0
-1.0425890684127808,1.7891883850097656,1.4879599809646606,0
-0.26011621952056885,0.9205913543701172,0.45349323749542236,0
0.49607565999031067,0.3222379684448242,-0.6090729236602783,0
1.064025640487671,-0.11831188201904297,-1.4646027088165283,0
1.4494155645370483,-0.4705696105957031,-2.0700831413269043,0
1.5693118572235107,-0.7372016906738281,-2.6053805351257324,0
1.357793927192688,-0.875544548034668,-2.99953031539917,0
0.9235563278198242,-0.8765897750854492,-3.0982706546783447,0
0.32718002796173096,-0.7792139053344727,-3.0788016319274902,0
-0.26590102910995483,-0.7489795684814453,-2.771085023880005,0
-0.8384624719619751,-0.8889684677124023,-2.4555625915527344,0
-1.1911625862121582,-1.0891456604003906,-2.157897710800171,0
-1.1915111541748047,-1.354135513305664,-2.164299488067627,0
-1.0874414443969727,-1.6190423965454102,-2.370448589324951,0
-1.110473394393921,-1.6922969818115234,-2.5749359130859375,0
-1.1553981304168701,-1.8608369827270508,-2.595942735671997,0
-1.212876319885254,-2.0693774223327637,-2.445310115814209,0
-1.1349574327468872,-2.241245746612549,-2.1487877368927,0
-1.0371527671813965,-2.381241798400879,-1.6286847591400146,0
-0.9103121161460876,-2.510920524597168,-0.7856485247612,0
-0.7522802352905273,-2.4987921714782715,0.0923779308795929,0
-0.431609570980072,-2.1920299530029297,0.9407775402069092,0
-0.2955886125564575,-1.638869285583496,1.55877685546875,0
-0.04790329933166504,-1.0022687911987305,1.8873509168624878,0
0.17953944206237793,-0.5071315765380859,1.9275295734405518,0
0.3435133397579193,-0.23221206665039062,1.695030689239502,0
0.5350553393363953,-0.03853607177734375,1.2149953842163086,0
0.6898723244667053,0.023838043212890625,0.584074854850769,0
0.7459734082221985,0.12489891052246094,9.851492941379547E-4,0
0.5618795156478882,0.3578500747680664,-0.5179360508918762,0
0.5082676410675049,0.6340665817260742,-0.8942440748214722,0
0.5513991117477417,0.8315668106079102,-1.0086150169372559,0
0.554867148399353,0.8930988311767578,-0.9303976893424988,0
0.7411799430847168,0.7328214645385742,-0.7236149311065674,0
0.8757102489471436,0.4060678482055664,-0.3687252104282379,0
0.9654924869537354,0.06849861145019531,-0.0022028088569641113,0
1.1180616617202759,-0.28226184844970703,0.32245489954948425,0
1.2352298498153687,-0.6271276473999023,0.6564526557922363,0
1.2594406604766846,-0.8992824554443359,0.8784364461898804,0
1.382352590560913,-1.1228094100952148,1.0948247909545898,0
1.4916949272155762,-1.2619876861572266,1.2903577089309692,0
1.6932917833328247,-1.2977676391601562,1.4696978330612183,0
1.79372239112854,-1.2302045822143555,1.6550949811935425,0
1.864850640296936,-1.0999631881713867,1.800140619277954,0
1.7819839715957642,-0.8400745391845703,1.870671033859253,0
1.798256278038025,-0.45307445526123047,1.781437873840332,0
1.7458547353744507,-0.09221935272216797,1.5848660469055176,0
1.7030606269836426,0.19924449920654297,1.315704345703125,0
1.4417970180511475,0.5262050628662109,1.0772227048873901,0
1.2845040559768677,0.6275653839111328,1.0249786376953125,0
1.2833421230316162,0.5941181182861328,1.1569745540618896,0
1.3568869829177856,0.5119295120239258,1.5104176998138428,0
1.5770325660705566,0.32131099700927734,2.0352847576141357,0
1.8908090591430664,0.3692188262939453,2.546478271484375,0
2.28109073638916,0.5168237686157227,2.957578182220459,0
2.7496776580810547,0.9266071319580078,3.18145751953125,0
3.3819663524627686,1.1198644638061523,2.9792871475219727,0
3.736668348312378,1.5269851684570312,2.662444829940796,0
4.016117095947266,1.8197507858276367,2.151780605316162,0
4.51315450668335,2.270519256591797,1.5501172542572021,0
4.7432026863098145,2.6397933959960938,1.183907151222229,0
4.746831893920898,2.616931915283203,0.9709765911102295,0
4.803895950317383,2.4343481063842773,0.5072957873344421,0
4.828800201416016,1.8484878540039062,0.1206974983215332,0
4.932633399963379,1.2139835357666016,-0.0385737419128418,0
5.154904365539551,0.7797946929931641,-0.10102653503417969,0
5.408072471618652,0.7824640274047852,-0.2003568410873413,0
5.511044979095459,1.1856040954589844,-0.24982929229736328,0
5.591921806335449,1.8814210891723633,0.010881185531616211,0
5.577908039093018,2.659531593322754,0.3523596525192261,0
5.429598808288574,3.3049535751342773,0.6073698997497559,0
5.135878562927246,3.8203229904174805,0.47351789474487305,0
4.546380043029785,4.1244096755981445,-0.012784361839294434,0
3.9839601516723633,4.272407531738281,-0.5611762404441833,0
3.469609260559082,4.305257797241211,-0.7843433618545532,0
3.0172817707061768,4.185112953186035,-0.49473875761032104,0
2.535411834716797,3.996121406555176,0.2572128474712372,0
1.3924685716629028,3.707186698913574,1.4169247150421143,0
-0.6975657939910889,3.590500831604004,2.6104817390441895,0
-2.67971134185791,3.404054641723633,3.526505947113037,0
-3.9446496963500977,3.3896284103393555,4.057359218597412,0
-4.823472023010254,3.428116798400879,4.200005531311035,0
-5.161256313323975,3.6445999145507812,3.911447286605835,0
-5.185998916625977,3.9033966064453125,3.363259792327881,0
-5.118264198303223,4.186103820800781,2.6400861740112305,0
-4.939398765563965,4.409601211547852,1.9403719902038574,0
-4.721675872802734,4.437978744506836,1.4158552885055542,0
-4.45389461517334,4.362290382385254,0.9199516773223877,0
-4.096566200256348,4.096229553222656,0.3632439970970154,0
-3.811765432357788,3.880899429321289,-0.2242523431777954,0
-3.584998369216919,3.689150810241699,-0.8085073232650757,0
-3.286987781524658,3.4748544692993164,-1.4672490358352661,0
-2.9370410442352295,3.297307014465332,-1.9875991344451904,0
-2.6762635707855225,3.17282772064209,-2.418123245239258,0
-2.40183687210083,3.0795888900756836,-2.8053646087646484,0
-2.128563165664673,2.979278564453125,-3.0436103343963623,0
-1.9076117277145386,2.754985809326172,-3.1931710243225098,0
-1.5970458984375,2.5339555740356445,-3.2209506034851074,0
-1.2200249433517456,2.362081527709961,-3.2109715938568115,0
-0.7353405356407166,1.9960126876831055,-3.1252617835998535,0
-0.134447380900383,1.4747724533081055,-2.9345483779907227,0
0.4416210651397705,1.035536766052246,-2.574723720550537,0
0.9841359853744507,0.5993270874023438,-2.057274341583252,0
1.3960018157958984,0.45794010162353516,-1.477765679359436,0
1.6593726873397827,0.4699716567993164,-0.9029284715652466,0
1.6538803577423096,0.41489410400390625,-0.3575015068054199,0
1.5104010105133057,0.5671558380126953,0.2012474536895752,0
1.1824246644973755,0.6747636795043945,0.6890869140625,0
0.7839194536209106,0.8710556030273438,0.9447686672210693,0
0.3660659193992615,0.9520225524902344,1.0128355026245117,0
0.003186464309692383,0.9386425018310547,0.904409646987915,0
-0.30069035291671753,0.8376989364624023,0.625429630279541,0
-0.6232126951217651,0.648991584777832,0.16460132598876953,0
-0.8313158750534058,0.35814952850341797,-0.36789989471435547,0
-1.148992657661438,0.020249366760253906,-0.8954758644104004,0
-1.3756910562515259,-0.26897525787353516,-1.4185643196105957,0
-1.5258162021636963,-0.5310888290405273,-1.83720862865448,0
-1.7142140865325928,-0.8616447448730469,-2.2000184059143066,0
-1.8431328535079956,-1.2842254638671875,-2.529386520385742,0
-1.9793375730514526,-1.4923787117004395,-2.8861119747161865,0
-2.1828818321228027,-1.7945008277893066,-3.2997376918792725,0
-2.5023717880249023,-2.1613988876342773,-3.727940082550049,0
-2.7708096504211426,-2.3964948654174805,-4.200349807739258,0
-3.068006992340088,-2.7004213333129883,-4.662625789642334,0
-3.265265464782715,-3.025022506713867,-5.026756286621094,0
-3.477689743041992,-3.3582611083984375,-5.254657745361328,0
-3.7535181045532227,-3.6784520149230957,-5.425601959228516,0
-4.0503668785095215,-3.842010974884033,-5.549267292022705,0
-4.3183488845825195,-3.9232192039489746,-5.632800102233887,0
-4.564743995666504,-3.9486050605773926,-5.453512668609619,0
-4.370246887207031,-3.8299202919006348,-5.506567478179932,0
-3.996401309967041,-3.7160720825195312,-5.32733678817749,0
-3.640385150909424,-3.5526914596557617,-4.891299724578857,0
-3.31805157661438,-3.426647663116455,-4.338591575622559,0
-3.090956687927246,-3.321897029876709,-3.694338083267212,0
-2.915498733520508,-3.3418264389038086,-3.0748090744018555,0
-2.7460498809814453,-3.453300952911377,-2.522127628326416,0
-2.572877883911133,-3.675743579864502,-1.994863748550415,0
-2.3241899013519287,-4.035886764526367,-1.3149380683898926,0
-2.144348621368408,-4.457305908203125,-0.775867223739624,0
-1.9410053491592407,-4.916176795959473,-0.305051326751709,0
-1.7122271060943604,-5.326513290405273,0.1029062271118164,0
-1.4696061611175537,-5.666939735412598,0.41243457794189453,0
-1.1905840635299683,-5.920823097229004,0.6714253425598145,0
-1.0700232982635498,-6.059501647949219,0.8510169982910156,0
-1.0684398412704468,-6.164100170135498,1.003312349319458,0
-1.187554955482483,-6.181689739227295,1.1589665412902832,0
-1.386553406715393,-5.844133377075195,1.3558218479156494,0
-1.666149377822876,-6.306187629699707,1.53759765625,0
-1.94119393825531,-6.6481428146362305,1.7153003215789795,0
-2.0950655937194824,-6.487061023712158,1.9173533916473389,0
-2.4150009155273438,-6.545078277587891,2.083308219909668,0
-2.6477746963500977,-6.331011772155762,2.0401289463043213,0
-2.8425369262695312,-5.875672817230225,1.940633773803711,0
-2.919093132019043,-5.205183982849121,1.7822296619415283,0
-2.911658763885498,-4.19039249420166,1.5674066543579102,0
-2.5142922401428223,-2.893280029296875,1.1540181636810303,0
-2.0913004875183105,-1.1817703247070312,0.595038652420044,0
-1.4131196737289429,0.9617156982421875,0.030141115188598633,0
-0.6785971522331238,3.454753875732422,-0.4610111713409424,0
0.125308558344841,6.3227434158325195,-0.6001279354095459,0
0.7081208229064941,9.875197410583496,-0.3509066104888916,0
1.1715645790100098,13.700161933898926,0.39944005012512207,0
1.6028122901916504,17.195541381835938,2.0415689945220947,0
2.2586722373962402,19.11520767211914,4.578707695007324,0
3.2353687286376953,18.94599151611328,7.537939071655273,0
4.122925281524658,15.841862678527832,9.579391479492188,0
4.646223068237305,11.041862487792969,10.181949615478516,0
4.830565452575684,7.108757019042969,9.819395065307617,0
4.643253326416016,4.670574188232422,8.546749114990234,0
3.747044086456299,3.53256893157959,6.5723676681518555,0
2.741955041885376,3.2755308151245117,4.551187038421631,0
1.5675737857818604,3.642862319946289,2.7276761531829834,0
0.32861506938934326,4.147931098937988,1.2101576328277588,0
-1.0013195276260376,4.5288496017456055,-0.09905767440795898,0
-2.182870388031006,4.428466796875,-1.4914453029632568,0
-3.448998212814331,3.820699691772461,-3.1190497875213623,0
-4.4542436599731445,2.438685417175293,-4.8634443283081055,0
-5.176456928253174,1.180720329284668,-6.277688980102539,0
-5.506866455078125,-0.07694339752197266,-7.190916061401367,0
-5.591100692749023,-0.9579401016235352,-7.411728858947754,0
-5.670037746429443,-1.7554612159729004,-6.8698883056640625,0
-5.89616584777832,-2.4039134979248047,-5.468920707702637,0
-5.764483451843262,-2.851158618927002,-3.282475471496582,0
-4.576869964599609,-2.9170498847961426,-0.9922897219657898,0
-2.845381736755371,-2.93057918548584,0.6415423154830933,0
-0.984899640083313,-2.8991622924804688,1.0755105018615723,0
1.2551473379135132,-3.0545358657836914,0.2178788185119629,0
2.85756778717041,-3.410531520843506,-1.4401987791061401,0
3.5486907958984375,-3.7849254608154297,-3.2141408920288086,0
3.519136667251587,-4.189425468444824,-4.809446811676025,0
3.074448347091675,-4.396672248840332,-6.024441719055176,0
2.617241859436035,-4.700747966766357,-6.84470272064209,0
2.211857557296753,-4.828673362731934,-7.301151752471924,0
1.7569986581802368,-4.732612133026123,-7.412336349487305,0
1.32558274269104,-4.419835567474365,-7.098237991333008,0
0.9282099604606628,-3.8642263412475586,-6.364284038543701,0
0.3749563694000244,-2.970484733581543,-5.286745548248291,0
-0.3917907774448395,-2.176724433898926,-4.027250289916992,0
-1.2793864011764526,-1.2224626541137695,-2.559568405151367,0
-2.1701810359954834,-0.1609334945678711,-1.1722724437713623,0
-2.9615886211395264,1.0046348571777344,0.17764055728912354,0
-3.70697021484375,2.2253952026367188,1.2777551412582397,0
-4.2582831382751465,3.3591575622558594,2.220078945159912,0
-4.574975490570068,4.180305480957031,3.026646375656128,0
-4.1995673179626465,4.679415702819824,2.907318353652954,0
-2.9655673503875732,4.123444557189941,1.7185087203979492,0
-1.5735048055648804,3.0001516342163086,0.146484375,0
-0.4500579535961151,1.6005048751831055,-1.2902493476867676,0
0.06473827362060547,0.4970359802246094,-2.4555516242980957,0
0.5592361092567444,-0.2527780532836914,-3.293517589569092,0
1.011547327041626,-0.7136869430541992,-3.90255069732666,0
1.261035680770874,-1.0127019882202148,-4.202868461608887,0
1.3379641771316528,-1.1070747375488281,-4.201914310455322,0
1.3364856243133545,-1.0737648010253906,-3.865443468093872,0
1.2523541450500488,-1.0566158294677734,-3.3643064498901367,0
1.0765652656555176,-1.1681346893310547,-2.7213668823242188,0
0.7190406918525696,-1.3102245330810547,-2.0601043701171875,0
0.13020451366901398,-1.4064931869506836,-1.1633563041687012,0
-0.48131290078163147,-1.3304061889648438,-0.45509225130081177,0
-1.01236891746521,-1.1133146286010742,-0.022452831268310547,0
-1.302520751953125,-0.8892898559570312,0.14975345134735107,0
-1.3518588542938232,-0.6558675765991211,0.06365793943405151,0
-1.328309178352356,-0.5133943557739258,-0.19544854760169983,0
-1.2418692111968994,-0.4521217346191406,-0.4131379723548889,0
-1.0787670612335205,-0.42169952392578125,-0.48972001671791077,0
-0.8993208408355713,-0.4531669616699219,-0.5022071003913879,0
-0.644066572189331,-0.5273189544677734,-0.39341384172439575,0
-0.406404584646225,-0.6632318496704102,-0.32362687587738037,0
-0.2583252191543579,-0.7484626770019531,-0.09409835934638977,0
-0.25745218992233276,-0.8930854797363281,0.18534472584724426,0
-0.13871842622756958,-0.8794622421264648,0.15149013698101044,0
0.05467188358306885,-0.8440847396850586,0.07062341272830963,0
0.30381980538368225,-0.8443393707275391,-0.10453107208013535,0
0.448630690574646,-0.935145378112793,-0.2324117124080658,0
0.4388146996498108,-0.848567008972168,-0.23655062913894653,0
0.3698914051055908,-0.5776405334472656,-0.25382229685783386,0
0.4573707580566406,-0.36167144775390625,-0.19856475293636322,0
0.5987140536308289,-0.33443260192871094,-0.044323377311229706,0
0.7704787254333496,-0.3856191635131836,0.17356498539447784,0
0.848854124546051,-0.737401008605957,0.41267314553260803,0
0.9131466150283813,-1.1262836456298828,0.5417011976242065,0
0.8988175988197327,-1.3226070404052734,0.4695820212364197,0
0.8224387168884277,-1.584834098815918,0.3893848955631256,0
0.6789911985397339,-1.5972623825073242,0.2977895736694336,0
0.5926423072814941,-1.6662769317626953,0.363965779542923,0
0.40962469577789307,-1.7010164260864258,0.3888622224330902,0
0.3522253632545471,-1.6776275634765625,0.48716557025909424,0
0.40828752517700195,-1.6942501068115234,0.4694153666496277,0
0.28557902574539185,-1.5309228897094727,0.47647804021835327,0
0.27579545974731445,-1.2931270599365234,0.5561263561248779,0
0.45769399404525757,-0.8661975860595703,0.729823648929596,0
0.6755523085594177,-0.27190399169921875,1.0741147994995117,0
0.9530014395713806,0.4249114990234375,1.4642446041107178,0
1.1219679117202759,1.0326366424560547,1.8468098640441895,0
1.2440571784973145,1.4100151062011719,2.158299684524536,0
1.4072598218917847,1.631134033203125,2.3709237575531006,0
1.6782954931259155,1.6337614059448242,2.4619596004486084,0
1.8700835704803467,1.5040178298950195,2.462108612060547,0
2.068021774291992,1.3757743835449219,2.3048083782196045,0
2.252349853515625,1.2537107467651367,2.0508828163146973,0
2.480025053024292,1.2549457550048828,1.8186622858047485,0
2.6646804809570312,1.2645740509033203,1.8387620449066162,0
3.0696969032287598,1.1989545822143555,1.8697525262832642,0
3.383923292160034,1.2470808029174805,1.9861130714416504,0
3.77229642868042,1.4183712005615234,2.1380133628845215,0
4.220075607299805,1.6959095001220703,2.2733240127563477,0
4.494750022888184,2.0388240814208984,2.2894320487976074,0
4.693977355957031,2.284304618835449,2.045351982116699,0
4.805608749389648,2.2769813537597656,1.7420190572738647,0
4.817733287811279,2.105623245239258,1.4892183542251587,0
4.986569881439209,1.90911865234375,1.1329153776168823,0
4.958301544189453,1.7640504837036133,0.8063081502914429,0
4.907988548278809,1.7326412200927734,0.6766246557235718,0
4.950976848602295,1.779139518737793,0.7777888774871826,0
4.953824996948242,1.9276189804077148,0.86152184009552,0
4.871407508850098,2.221133232116699,0.9231608510017395,0
4.845287322998047,2.6022157669067383,0.8232452273368835,0
4.775148868560791,2.9488019943237305,0.5240235328674316,0
4.704389572143555,3.1653127670288086,-9.031295776367188E-4,0
4.468051910400391,3.2806777954101562,-0.521780788898468,0
4.233536720275879,3.228281021118164,-0.7000131607055664,0
4.139645099639893,3.092442512512207,-0.4630131125450134,0
4.196354389190674,2.8092174530029297,0.24909371137619019,0
4.3063154220581055,2.560969352722168,1.1807054281234741,0
4.307984828948975,2.3575477600097656,2.247582197189331,0
3.8475279808044434,2.4548282623291016,3.1315338611602783,0
1.2927184104919434,3.014698028564453,3.6168642044067383,0
-1.2151374816894531,3.577535629272461,3.7018964290618896,0
-2.988337993621826,4.177458763122559,3.6492087841033936,0
-4.241660118103027,4.803452491760254,3.5270071029663086,0
-4.977618217468262,5.23893928527832,3.5156326293945312,0
-5.319657802581787,5.609292030334473,3.672992706298828,0
-5.5156145095825195,5.8645782470703125,3.899078607559204,0
-5.7729973793029785,5.95418643951416,4.047532081604004,0
-6.044444561004639,5.7982282638549805,3.826300621032715,0
-5.917855739593506,5.328742980957031,2.8192262649536133,0
-5.896210193634033,4.81260871887207,1.2834110260009766,0
-5.760828495025635,4.29163932800293,-0.551325798034668,0
-5.591794967651367,3.7218809127807617,-2.411595106124878,0
-5.423812389373779,3.107436180114746,-3.9409701824188232,0
-5.099819183349609,2.7156944274902344,-4.865357398986816,0
-4.9190521240234375,2.316852569580078,-5.285517692565918,0
-4.7668890953063965,1.8278684616088867,-5.440370559692383,0
-4.7773966789245605,1.405531883239746,-5.572947025299072,0
-4.294034957885742,1.1637725830078125,-5.60430908203125,0
-3.4052700996398926,1.0441741943359375,-5.431031227111816,0
-2.472795009613037,1.0978946685791016,-4.923174858093262,0
-1.3021414279937744,1.0575227737426758,-4.0989556312561035,0
-0.2966553568840027,1.1434612274169922,-3.113590717315674,0
0.5334295034408569,1.2743263244628906,-2.0754752159118652,0
1.3660056591033936,1.3708868026733398,-1.0176112651824951,0
2.0967342853546143,1.4515399932861328,0.04255938529968262,0
2.9638288021087646,1.2831153869628906,1.0999488830566406,0
3.764765739440918,0.9070062637329102,2.135847806930542,0
4.3853254318237305,0.36922740936279297,2.8150432109832764,0
4.374475955963135,-0.19533824920654297,2.863145589828491,0
3.661672592163086,-0.7565336227416992,2.293898344039917,0
2.476109266281128,-1.1351299285888672,1.3415820598602295,0
1.5828766822814941,-1.4411792755126953,0.3018317222595215,0
1.0127689838409424,-1.9373927116394043,-0.69797682762146,0
0.5120862722396851,-2.426934242248535,-1.5690079927444458,0
-0.050715088844299316,-2.4597702026367188,-2.2820639610290527,0
-0.542022705078125,-2.791471481323242,-2.7792410850524902,0
-1.003021001815796,-3.062265396118164,-3.18227481842041,0
-1.218369483947754,-3.147280693054199,-3.490602493286133,0
-1.408598780632019,-3.139516830444336,-3.703169822692871,0
-1.5307729244232178,-3.131967544555664,-3.8903849124908447,0
-1.532243251800537,-3.0503273010253906,-4.040795803070068,0
-1.523547887802124,-2.9067912101745605,-4.089336395263672,0
-1.6944072246551514,-2.770906448364258,-4.143101692199707,0
-1.792317509651184,-2.6858162879943848,-4.191819667816162,0
-2.067448854446411,-2.6466355323791504,-4.30925989151001,0
-2.339226245880127,-2.6175103187561035,-4.298680305480957,0
-2.7041544914245605,-2.6582818031311035,-4.3056793212890625,0
-3.0314314365386963,-2.6731162071228027,-4.232252597808838,0
-3.343754768371582,-2.7526931762695312,-4.112255573272705,0
-3.6107640266418457,-2.793997287750244,-3.9435231685638428,0
-3.804381847381592,-2.8281354904174805,-3.7356574535369873,0
-3.991574287414551,-2.9412646293640137,-3.4957823753356934,0
-4.17218542098999,-3.021090507507324,-3.2259445190429688,0
-4.3791608810424805,-3.232807159423828,-2.985696792602539,0
-4.513216018676758,-3.5000123977661133,-2.7052512168884277,0
-4.685035705566406,-3.8804030418395996,-2.4319424629211426,0
-4.840808868408203,-4.371745586395264,-2.181980609893799,0
-4.737435340881348,-4.782904148101807,-1.986009120941162,0
-4.390168190002441,-5.111896991729736,-1.711970329284668,0
-4.056548118591309,-5.354343414306641,-1.4190566539764404,0
-3.8463656902313232,-5.5368194580078125,-1.1473362445831299,0
-3.6690404415130615,-5.628325462341309,-0.9059488773345947,0
-3.5854499340057373,-5.595345497131348,-0.682746171951294,0
-3.4247794151306152,-5.313385486602783,-0.41095495223999023,0
-3.4676830768585205,-5.2581682205200195,-0.21321702003479004,0
-3.506563186645508,-5.032105445861816,0.08689260482788086,0
-3.5153815746307373,-4.66849946975708,0.40003013610839844,0
-3.434263229370117,-4.109626770019531,0.708240270614624,0
-3.3274712562561035,-3.386322021484375,0.9767837524414062,0
-3.11590576171875,-2.5604166984558105,1.2090098857879639,0
-2.640465021133423,-1.5143232345581055,1.3436598777770996,0
-2.0279345512390137,-0.20717144012451172,1.4487149715423584,0
-1.1973185539245605,1.1913585662841797,1.5992555618286133,0
-0.39233991503715515,2.547548294067383,1.7723214626312256,0
0.3426179885864258,3.8091773986816406,1.9136567115783691,0
1.1980684995651245,5.0389909744262695,2.1048738956451416,0
1.9438378810882568,6.1584320068359375,2.3539037704467773,0
2.8979296684265137,6.9931230545043945,2.8227763175964355,0
3.7416679859161377,7.566936492919922,3.576937198638916,0
4.647091865539551,7.630784034729004,4.723793983459473,0
5.488468647003174,6.904533386230469,5.926888942718506,0
6.462497234344482,5.440716743469238,7.1348161697387695,0
7.019504070281982,3.5622053146362305,8.070627212524414,0
7.370455741882324,1.9001483917236328,8.334880828857422,0
7.584750652313232,0.7765302658081055,7.88690710067749,0
7.325863361358643,0.28841209411621094,6.83358907699585,0
6.19869327545166,0.33199119567871094,5.5994744300842285,0
5.517858028411865,0.5071191787719727,4.400435447692871,0
4.79978084564209,0.7226667404174805,3.2652742862701416,0
3.9252986907958984,1.0335731506347656,2.232034683227539,0
2.6387202739715576,1.461400032043457,1.3454740047454834,0
1.2382245063781738,2.068596839904785,0.6735873222351074,0
-0.2664618492126465,2.934417724609375,0.21948552131652832,0
-1.9101667404174805,3.9992456436157227,0.08956098556518555,0
-3.180224895477295,4.746574401855469,0.14469099044799805,0
-4.351881504058838,6.233576774597168,0.39530277252197266,0
-5.36607551574707,7.466983795166016,0.5837585926055908,0
-5.8737335205078125,8.145938873291016,0.6074912548065186,0
-6.371905326843262,8.584826469421387,0.5346717834472656,0
-6.999305725097656,8.851666450500488,0.11615753173828125,0
-7.809798240661621,8.452563285827637,-0.8000353574752808,0
-8.636320114135742,7.171457290649414,-2.0719492435455322,0
-9.111449241638184,5.095815658569336,-2.954233169555664,0
-9.05066967010498,2.467365264892578,-3.180614948272705,0
-8.382827758789062,-1.25885009765625E-4,-2.7704291343688965,0
-6.673828601837158,-2.0744199752807617,-2.2860283851623535,0
-3.8442437648773193,-3.7136693000793457,-2.5177218914031982,0
-1.5553146600723267,-5.166647911071777,-3.5212345123291016,0
-0.2063676416873932,-6.473044395446777,-4.924035549163818,0
0.41856902837753296,-7.478565692901611,-6.339969635009766,0
0.7064831852912903,-8.122549057006836,-7.33367395401001,0
0.8229814171791077,-8.440404891967773,-7.737419128417969,0
0.892019510269165,-8.575332641601562,-7.6483869552612305,0
0.8064369559288025,-8.569968223571777,-7.213625431060791,0
0.4239444136619568,-8.26375961303711,-6.483004570007324,0
-0.0643484890460968,-7.482243537902832,-5.671036720275879,0
-0.5807960033416748,-6.446078300476074,-4.785094738006592,0
-1.0886951684951782,-5.206381320953369,-3.8432466983795166,0
-1.4720790386199951,-3.8814806938171387,-2.842951774597168,0
-1.710315465927124,-2.594529151916504,-1.9421305656433105,0
-1.844894528388977,-1.1052465438842773,-1.2801132202148438,0
-2.1207404136657715,0.7090673446655273,-0.8871810436248779,0
-2.360964775085449,2.6171207427978516,-0.6822848320007324,0
-2.538686752319336,4.61276912689209,-0.5204743146896362,0
-2.6433236598968506,6.235700607299805,-0.14494597911834717,0
-2.5969696044921875,7.564365386962891,0.710260272026062,0
-2.2574052810668945,8.046420097351074,1.4478907585144043,0
-1.5350197553634644,7.257763862609863,1.7526881694793701,0
-0.4133058786392212,5.3615217208862305,1.3564316034317017,0
0.6375134587287903,3.195315361022949,0.4818136692047119,0
1.4542683362960815,1.468815803527832,-0.5386981964111328,0
1.9365086555480957,0.3380756378173828,-1.450711727142334,0
2.414266586303711,-0.44554615020751953,-2.376664161682129,0
2.7603795528411865,-0.8940086364746094,-3.1719257831573486,0
2.852328300476074,-1.0410995483398438,-3.7163219451904297,0
2.7923314571380615,-0.8897237777709961,-4.007138252258301,0
2.541480541229248,-0.6150283813476562,-4.0113654136657715,0
2.0893397331237793,-0.5307149887084961,-3.706763744354248,0
1.4777940511703491,-0.6416721343994141,-3.242727518081665,0
0.8248913288116455,-0.8189430236816406,-2.708035945892334,0
0.3159806728363037,-1.1847162246704102,-1.954660177230835,0
-0.02640378475189209,-1.4423713684082031,-1.38908851146698,0
-0.20642995834350586,-1.5513553619384766,-1.1464942693710327,0
-0.3917851448059082,-1.5452747344970703,-1.0926291942596436,0
-0.478152871131897,-1.5461368560791016,-1.2259635925292969,0
-0.6725689172744751,-1.6327104568481445,-0.9723179340362549,0
-0.7848821878433228,-1.6780481338500977,-0.8178021907806396,0
-0.7758424282073975,-1.8591070175170898,-0.386882483959198,0
-0.5652135610580444,-1.9198527336120605,0.0021824240684509277,0
-0.2249830961227417,-1.965597152709961,0.3165915012359619,0
0.15165448188781738,-1.9461374282836914,0.5650557279586792,0
0.35197025537490845,-1.8592209815979004,0.743116557598114,0
0.4242206811904907,-1.6476249694824219,0.8786391615867615,0
0.38982319831848145,-1.4192523956298828,0.9453182816505432,0
0.21974778175354004,-1.1527538299560547,0.9408106207847595,0
0.10259687900543213,-0.9582738876342773,0.8046431541442871,0
0.1578277349472046,-0.7233438491821289,0.5114578008651733,0
0.2894117832183838,-0.5723400115966797,0.14962151646614075,0
0.5594159364700317,-0.4907665252685547,-0.26468124985694885,0
0.6542910933494568,-0.3972177505493164,-0.6652980446815491,0
0.9112875461578369,-0.37538909912109375,-0.8710718154907227,0
1.124375343322754,-0.33913516998291016,-0.9062660932540894,0
1.2885193824768066,-0.16178226470947266,-0.7994999289512634,0
1.5784341096878052,-0.22607135772705078,-0.6245054006576538,0
1.8411709070205688,-0.2973213195800781,-0.347243070602417,0
2.149196147918701,-0.37300872802734375,-0.10149363428354263,0
2.342423677444458,-0.6395740509033203,0.16556048393249512,0
2.4114465713500977,-0.8982820510864258,0.38435861468315125,0
2.437746286392212,-1.1538944244384766,0.5066318511962891,0
2.498002529144287,-1.4924697875976562,0.6297696828842163,0
2.487105131149292,-1.5313100814819336,0.6549668312072754,0
2.34285831451416,-1.5410146713256836,0.7945704460144043,0
2.127570629119873,-1.7774872779846191,0.9931406378746033,0
1.9970507621765137,-1.9821677207946777,1.183575987815857,0
1.657171607017517,-1.944666862487793,1.3563573360443115,0
1.0362281799316406,-1.6987886428833008,1.6002988815307617,0
0.4743471145629883,-1.168233871459961,1.8842793703079224,0
0.14676439762115479,-0.5086498260498047,2.1866607666015625,0
-0.16852951049804688,0.05034828186035156,2.4735140800476074,0
-0.4473278522491455,0.44190120697021484,2.6766114234924316,0
-0.40209054946899414,0.6757488250732422,2.6985509395599365,0
-0.2718517780303955,0.7998075485229492,2.58280873298645,0
-0.12387394905090332,0.670527458190918,2.3157167434692383,0
0.03625059127807617,0.5677452087402344,2.033010959625244,0
0.2259596586227417,0.5055131912231445,1.8886618614196777,0
0.6515514850616455,0.7059488296508789,1.8149142265319824,0
1.2492802143096924,1.0227346420288086,1.7512308359146118,0
1.8623292446136475,1.4818801879882812,1.7756786346435547,0
2.492032766342163,1.946791648864746,1.880201816558838,0
3.1159214973449707,2.3527374267578125,1.9198887348175049,0
3.587228298187256,2.697185516357422,1.8020122051239014,0
3.821836471557617,2.9704408645629883,1.5504734516143799,0
3.968022584915161,2.9476490020751953,1.2409785985946655,0
4.169748783111572,2.7271461486816406,0.8289341330528259,0
4.241035461425781,2.469363212585449,0.41546890139579773,0
4.314223289489746,2.2126855850219727,0.09746289253234863,0
4.370903015136719,2.0960092544555664,-0.11071330308914185,0
4.3925371170043945,1.9497079849243164,-0.06879770755767822,0
4.36791467666626,1.9344091415405273,0.21336770057678223,0
4.407825946807861,2.043119430541992,0.6060308814048767,0
4.376811981201172,2.388302803039551,0.8321537375450134,0
4.239824295043945,2.895601272583008,0.8307483196258545,0
3.956637382507324,3.5072813034057617,0.7302787899971008,0
3.659012794494629,4.029345512390137,0.7110576033592224,0
3.3538103103637695,4.442612648010254,0.7552739977836609,0
3.188718318939209,4.63957405090332,0.7844448089599609,0
2.8514938354492188,4.606170654296875,0.7915781140327454,0
2.546482563018799,4.526885032653809,0.9149034023284912,0
2.3177435398101807,4.569283485412598,1.2218706607818604,0
2.1767220497131348,4.594780921936035,1.7276315689086914,0
2.0209271907806396,4.536730766296387,2.2788455486297607,0
0.3755422830581665,4.237245559692383,2.8155949115753174,0
-1.3726869821548462,3.8065309524536133,3.1292295455932617,0
-2.730970859527588,3.2500057220458984,3.208329916000366,0
-3.597576856613159,2.7026472091674805,3.133641004562378,0
-4.263035774230957,2.3710107803344727,2.928661584854126,0
-4.820889472961426,2.2246360778808594,2.539959669113159,0
-4.979532241821289,2.335702896118164,2.0611813068389893,0
-4.909553527832031,2.4626693725585938,1.687591552734375,0
-4.9343132972717285,2.514481544494629,1.3141870498657227,0
-4.631007194519043,2.3686113357543945,0.9202475547790527,0
-4.293018341064453,2.0626049041748047,0.30455124378204346,0
-3.893524646759033,1.7439823150634766,-0.5542240142822266,0
-3.490393877029419,1.5794029235839844,-1.512013554573059,0
-3.2453184127807617,1.5203485488891602,-2.411888599395752,0
-2.9809422492980957,1.6476058959960938,-3.2216720581054688,0
-2.799832344055176,1.9223709106445312,-3.8180222511291504,0
-2.314842700958252,2.098165512084961,-4.214447975158691,0
-1.6306443214416504,2.2852468490600586,-4.5225114822387695,0
-1.1177690029144287,2.469496726989746,-4.557520866394043,0
-0.6192285418510437,2.6082286834716797,-4.211958408355713,0
-0.14280977845191956,2.66141414642334,-3.5537753105163574,0
0.3895080089569092,2.472165107727051,-2.8688676357269287,0
0.9322872757911682,2.1417579650878906,-2.261590003967285,0
1.3456119298934937,1.7615795135498047,-1.6340274810791016,0
1.9052659273147583,1.6283140182495117,-0.9828977584838867,0
2.3904199600219727,1.3351421356201172,-0.19211483001708984,0
3.0269925594329834,1.159377098083496,0.6011898517608643,0
3.594576120376587,0.880192756652832,1.279897928237915,0
3.9558026790618896,0.7070398330688477,1.7967948913574219,0
4.08951997756958,0.6243047714233398,2.0802950859069824,0
3.7526793479919434,0.4922351837158203,2.0844695568084717,0
3.2327775955200195,0.5040416717529297,1.6880989074707031,0
2.5052168369293213,0.5422525405883789,1.044180154800415,0
1.875455379486084,0.4994010925292969,0.26668524742126465,0
1.2969868183135986,0.3448619842529297,-0.5595345497131348,0
0.5340057015419006,-0.1980762481689453,-1.2661752700805664,0
0.16336339712142944,-0.16738319396972656,-1.9406605958938599,0
-0.17131906747817993,-0.4340476989746094,-2.4903359413146973,0
-0.36921435594558716,-0.581700325012207,-2.903571128845215,0
-0.49751684069633484,-0.9405231475830078,-3.2714037895202637,0
-0.7722573280334473,-1.3405189514160156,-3.5196592807769775,0
-0.7967989444732666,-1.585547924041748,-3.811142921447754,0
-0.9785813689231873,-2.036871910095215,-4.148106575012207,0
-1.220114827156067,-2.5004963874816895,-4.432504653930664,0
-1.4259926080703735,-2.921206474304199,-4.755734443664551,0
-1.790358543395996,-3.325079917907715,-5.051408290863037,0
-2.160327434539795,-3.685455322265625,-5.351485252380371,0
-2.485518217086792,-3.8826208114624023,-5.5393385887146,0
-2.8451433181762695,-4.057716369628906,-5.615364074707031,0
-3.232633113861084,-4.153268814086914,-5.6252264976501465,0
-3.6606740951538086,-4.104841709136963,-5.508980751037598,0
-4.0752105712890625,-3.989253520965576,-5.282989978790283,0
-4.378787517547607,-3.79008150100708,-4.965858459472656,0
-4.619406223297119,-3.591437816619873,-4.647839069366455,0
-4.864191055297852,-3.4462146759033203,-4.206330299377441,0
-4.835415363311768,-3.330927848815918,-3.6452767848968506,0
-4.628360271453857,-3.2986536026000977,-3.0715019702911377,0
-4.153410911560059,-3.321204662322998,-2.5151238441467285,0
-3.5984880924224854,-3.432577610015869,-1.9512748718261719,0
-3.111265182495117,-3.6451587677001953,-1.3909275531768799,0
-2.6725382804870605,-3.9138131141662598,-0.8235900402069092,0
-2.3515262603759766,-4.269984245300293,-0.28893399238586426,0
-1.937593936920166,-4.584725856781006,0.1707763671875,0
-1.6341681480407715,-4.850946426391602,0.39093923568725586,0
-1.3473376035690308,-5.047069549560547,0.5224118232727051,0
-1.1768884658813477,-5.223113059997559,0.5051150321960449,0
-1.1459991931915283,-5.335613250732422,0.41501832008361816,0
-1.1989578008651733,-5.429565906524658,0.3015890121459961,0
-1.2896862030029297,-5.497328281402588,0.19994068145751953,0
-1.482142686843872,-5.583975791931152,0.1430211067199707,0
-1.6586387157440186,-5.6125874519348145,0.14946889877319336,0
-1.8665318489074707,-5.532686233520508,0.21649622917175293,0
-2.0932178497314453,-5.563940525054932,0.3386375904083252,0
-2.3547935485839844,-5.47381591796875,0.48650121688842773,0
-2.5028271675109863,-5.075445652008057,0.6522095203399658,0
-2.623403787612915,-4.550375938415527,0.7464110851287842,0
-2.6115007400512695,-3.692567825317383,0.6870169639587402,0
-2.42730975151062,-2.523374080657959,0.521073579788208,0
-2.120333671569824,-1.2074146270751953,0.1704695224761963,0
-1.7577793598175049,0.39943599700927734,-0.39096546173095703,0
-1.36910080909729,2.108816146850586,-1.0326203107833862,0
-1.026792287826538,3.8903913497924805,-1.665771722793579,0
-0.5806359648704529,5.783323287963867,-2.0002565383911133,0
-0.15741537511348724,8.194731712341309,-1.6960539817810059,0
0.038198232650756836,10.894620895385742,-0.7246067523956299,0
0.1351207047700882,13.547575950622559,1.1484708786010742,0
0.26972660422325134,15.681669235229492,4.154107093811035,0
0.7560359835624695,15.97531509399414,8.117110252380371,0
1.786190390586853,13.691206932067871,11.484829902648926,0
3.042328119277954,10.195093154907227,13.799577713012695,0
4.105991363525391,7.253971099853516,14.22754955291748,0
4.783163547515869,5.37409782409668,12.756616592407227,0
4.778290748596191,4.208529472351074,10.255234718322754,0
4.272879600524902,3.2340822219848633,7.565885543823242,0
3.555907726287842,2.358448028564453,5.028539657592773,0
2.7193870544433594,1.5967178344726562,2.66584849357605,0
1.6467283964157104,1.0926694869995117,0.6478285789489746,0
0.4361630976200104,0.8578929901123047,-0.887244462966919,0
-0.7516475915908813,0.9033746719360352,-1.9113099575042725,0
-1.8627698421478271,1.4165210723876953,-2.4661076068878174,0
-2.7867929935455322,2.120285987854004,-2.785707950592041,0
-3.5029304027557373,2.7667274475097656,-3.1327521800994873,0
-4.094391822814941,2.972714424133301,-3.9394655227661133,0
-4.42368221282959,2.727473258972168,-5.307119369506836,0
-4.379176139831543,2.174287796020508,-6.66883659362793,0
-4.532007694244385,1.846461296081543,-7.393948554992676,0
-4.82965087890625,1.6769819259643555,-7.439958095550537,0
-5.278073787689209,1.3598461151123047,-6.783567428588867,0
-5.289819240570068,0.42168331146240234,-5.486813068389893,0
-4.57063627243042,-0.8119163513183594,-3.68086576461792,0
-3.1250462532043457,-1.8623929023742676,-2.0833942890167236,0
-1.5418378114700317,-2.7073535919189453,-0.866644561290741,0
-0.27442291378974915,-3.268411636352539,-0.13844096660614014,0
0.9151884317398071,-3.8084330558776855,-0.369052529335022,0
1.5552839040756226,-4.261983394622803,-1.4757628440856934,0
1.8077479600906372,-4.649815082550049,-2.912475824356079,0
1.7448350191116333,-4.921139717102051,-4.231031894683838,0
1.435389757156372,-5.121079921722412,-5.284256935119629,0
0.9116108417510986,-5.311605930328369,-5.955301284790039,0
0.3819631338119507,-5.3682541847229,-6.284110069274902,0
-0.18733397126197815,-5.152474880218506,-6.321451187133789,0
-0.7729452848434448,-4.738799095153809,-6.093039512634277,0
-1.452947735786438,-4.0009565353393555,-5.644993782043457,0
-2.2104222774505615,-2.94693660736084,-4.89076042175293,0
-2.985358476638794,-1.4605865478515625,-3.967595338821411,0
-3.5332367420196533,0.22974395751953125,-2.840641975402832,0
-3.9824039936065674,1.8957633972167969,-1.3447972536087036,0
-4.468240737915039,3.4810361862182617,1.0876808166503906,0
-4.673731803894043,4.874139785766602,3.8169658184051514,0
-3.930476427078247,5.651810646057129,4.644818305969238,0
-2.7556867599487305,5.155721664428711,3.5680670738220215,0
-1.7473218441009521,3.7234182357788086,1.7643297910690308,0
-0.6614214777946472,2.150989532470703,0.13117730617523193,0
0.03387981653213501,0.9463138580322266,-1.287163496017456,0
0.5909854173660278,0.12851715087890625,-2.353839635848999,0
1.0135561227798462,-0.4365406036376953,-3.167588233947754,0
1.2669830322265625,-0.7418804168701172,-3.780885696411133,0
1.5084669589996338,-0.8666219711303711,-4.159768104553223,0
1.596207618713379,-0.7726860046386719,-4.365226745605469,0
1.6657264232635498,-0.6325597763061523,-4.145977020263672,0
1.5800707340240479,-0.6066179275512695,-3.5266387462615967,0
1.5207455158233643,-0.6685867309570312,-2.3074045181274414,0
1.4390811920166016,-0.837672233581543,-0.9720301628112793,0
1.2430815696716309,-0.9393196105957031,0.04578554630279541,0
0.9736533761024475,-0.8732748031616211,0.6364385485649109,0
0.593853235244751,-0.7904214859008789,0.5183639526367188,0
0.32023370265960693,-0.7480764389038086,0.008071959018707275,0
0.12786251306533813,-0.8513011932373047,-0.3922244906425476,0
-0.013089537620544434,-1.006643295288086,-0.6563306450843811,0
0.1192505955696106,-1.3479413986206055,-0.6975961923599243,0
0.2781798243522644,-1.7434682846069336,-0.5818170309066772,0
0.4063425362110138,-2.107109546661377,-0.28310924768447876,0
0.458526611328125,-2.3887224197387695,0.0024956613779067993,0
0.2745310068130493,-2.4975996017456055,0.3334648013114929,0
0.07225555181503296,-2.3813858032226562,0.5962918400764465,0
0.10592126846313477,-1.8944406509399414,0.6411486864089966,0
0.12223607301712036,-1.424539566040039,0.49481669068336487,0
0.1498820185661316,-1.03143310546875,0.26993247866630554,0
