AccX,AccY,AccZ,SampleRate
-2.187466621398926,-2.4350180625915527,-1.1814051866531372,0
-2.230320453643799,-1.9340605735778809,-1.2315318584442139,0.01
-2.105501651763916,-1.4380731582641602,-1.1956093311309814,0.02
-1.6440436840057373,-1.0426740646362305,-1.1187435388565063,0.03
-1.1838215589523315,-0.759709358215332,-0.9670531153678894,0.04
-0.6336851119995117,-0.4935188293457031,-0.7805624008178711,0.05
-0.127211332321167,-0.33985233306884766,-0.6519412994384766,0.060000000000000005
0.2785453796386719,-0.23406505584716797,-0.5928627848625183,0.07
0.624691367149353,-0.2813739776611328,-0.5504694581031799,0.08
0.9595425128936768,-0.45295238494873047,-0.436290979385376,0.09
1.1638987064361572,-0.6602334976196289,-0.2886106073856354,0.09999999999999999
1.3361419439315796,-0.9342756271362305,-0.1578764021396637,0.10999999999999999
1.3592501878738403,-1.210444450378418,-0.037059932947158813,0.11999999999999998
1.3506900072097778,-1.5198278427124023,0.06392639875411987,0.12999999999999998
1.2889258861541748,-1.8312759399414062,0.17804259061813354,0.13999999999999999
1.3078328371047974,-1.8817520141601562,0.3742642402648926,0.15
1.3089154958724976,-1.9441194534301758,0.5184400677680969,0.16
1.3350216150283813,-2.0016088485717773,0.577073335647583,0.17
1.2784613370895386,-1.9585957527160645,0.7012357115745544,0.18000000000000002
1.4163460731506348,-1.645400047302246,0.773957371711731,0.19000000000000003
1.3222551345825195,-1.5787572860717773,0.6924008727073669,0.20000000000000004
1.1995117664337158,-1.698561668395996,0.6744821071624756,0.21000000000000005
1.4790306091308594,-1.1056175231933594,0.9598234295845032,0.22000000000000006
1.3132891654968262,-0.8671646118164062,0.8187008500099182,0.23000000000000007
1.331789255142212,-0.8584394454956055,0.6606737971305847,0.24000000000000007
1.2356643676757812,-1.0457258224487305,0.44532036781311035,0.25000000000000006
1.2743912935256958,-0.7617559432983398,0.632562518119812,0.26000000000000006
1.1415488719940186,-0.5355205535888672,0.5838906168937683,0.2700000000000001
1.0022733211517334,-0.6849422454833984,0.37806811928749084,0.2800000000000001
0.9071335792541504,-0.8389759063720703,0.2872975170612335,0.2900000000000001
0.8565101623535156,-0.8470439910888672,0.3341808319091797,0.3000000000000001
0.7261325120925903,-0.9460849761962891,0.33801060914993286,0.3100000000000001
0.5733126401901245,-0.9088239669799805,0.6571474671363831,0.3200000000000001
0.3547341823577881,-0.9003973007202148,0.7934933304786682,0.3300000000000001
0.21164679527282715,-0.9279651641845703,0.8741550445556641,0.34000000000000014
0.06726622581481934,-0.5419378280639648,1.0381629467010498,0.35000000000000014
-0.22768092155456543,-0.24960041046142578,1.0900012254714966,0.36000000000000015
-0.48946547508239746,0.047267913818359375,1.0252761840820312,0.37000000000000016
-0.4260736107826233,0.2936134338378906,0.9230160117149353,0.38000000000000017
-0.43204522132873535,0.9748334884643555,0.9744820594787598,0.3900000000000002
-0.5626424551010132,1.3587560653686523,1.2086091041564941,0.4000000000000002
-0.6693357229232788,1.5796432495117188,1.4485516548156738,0.4100000000000002
-0.5936388373374939,1.9030389785766602,1.7665350437164307,0.4200000000000002
-0.45241469144821167,2.1422595977783203,2.0050225257873535,0.4300000000000002
-0.377258837223053,2.206544876098633,1.9749727249145508,0.4400000000000002
-0.05719411373138428,2.469118118286133,2.0444819927215576,0.45000000000000023
0.07389211654663086,2.343992233276367,1.9500759840011597,0.46000000000000024
0.45093512535095215,2.106675148010254,1.8184165954589844,0.47000000000000025
0.9561477899551392,1.8147306442260742,1.7669825553894043,0.48000000000000026
1.3879199028015137,1.5352411270141602,1.8078887462615967,0.49000000000000027
1.867954969406128,1.2634401321411133,1.9436155557632446,0.5000000000000002
2.3218705654144287,1.042384147644043,2.169804096221924,0.5100000000000002
2.766458511352539,1.0011234283447266,2.474677562713623,0.5200000000000002
3.340200185775757,0.9098987579345703,2.549605369567871,0.5300000000000002
3.7604117393493652,0.9050970077514648,2.6581361293792725,0.5400000000000003
4.206963062286377,0.9244155883789062,2.6332993507385254,0.5500000000000003
4.483430862426758,0.9869699478149414,2.3149240016937256,0.5600000000000003
4.498613357543945,1.2123003005981445,1.9324592351913452,0.5700000000000003
4.474631309509277,1.593062400817871,1.4971745014190674,0.5800000000000003
4.3227338790893555,2.0262622833251953,0.9893965125083923,0.5900000000000003
4.119324684143066,2.526198387145996,0.5354335904121399,0.6000000000000003
3.7924962043762207,3.1477975845336914,-0.10718667507171631,0.6100000000000003
3.3636629581451416,3.7307233810424805,-0.9250538349151611,0.6200000000000003
2.6532928943634033,4.095731735229492,-1.7348049879074097,0.6300000000000003
1.881703495979309,4.02076530456543,-2.501038074493408,0.6400000000000003
1.0325719118118286,3.628337860107422,-3.054255247116089,0.6500000000000004
0.21429824829101562,3.0025291442871094,-3.2036964893341064,0.6600000000000004
-0.502822995185852,2.3898792266845703,-2.8927383422851562,0.6700000000000004
-1.0409462451934814,1.948105812072754,-2.430903673171997,0.6800000000000004
-1.4421379566192627,1.6315155029296875,-1.854278326034546,0.6900000000000004
-1.6435742378234863,1.5021209716796875,-1.3423504829406738,0.7000000000000004
-1.673976182937622,1.4952163696289062,-1.3189879655838013,0.7100000000000004
-1.5454511642456055,1.5581884384155273,-1.8038225173950195,0.7200000000000004
-1.4447753429412842,1.518977165222168,-2.437714099884033,0.7300000000000004
-1.2761276960372925,1.3730497360229492,-2.795698642730713,0.7400000000000004
-1.1424254179000854,1.1947307586669922,-2.995213270187378,0.7500000000000004
-1.0581202507019043,1.1658029556274414,-3.1992034912109375,0.7600000000000005
-0.9278207421302795,1.321929931640625,-3.4989724159240723,0.7700000000000005
-0.6779285073280334,1.6269512176513672,-3.741952657699585,0.7800000000000005
-0.5417100191116333,2.0185108184814453,-3.8571619987487793,0.7900000000000005
-0.48449206352233887,2.4702272415161133,-3.8030731678009033,0.8000000000000005
-0.5233933329582214,2.7787294387817383,-3.522045135498047,0.8100000000000005
-0.6010717749595642,3.0780563354492188,-3.0408055782318115,0.8200000000000005
-0.9082765579223633,3.3322677612304688,-2.434248924255371,0.8300000000000005
-1.2334405183792114,3.6345624923706055,-1.7678406238555908,0.8400000000000005
-1.6162655353546143,3.951321601867676,-1.09517502784729,0.8500000000000005
-1.9410699605941772,4.258526802062988,-0.4887070059776306,0.8600000000000005
-2.252870559692383,4.458110809326172,0.06070125102996826,0.8700000000000006
-2.5347859859466553,4.466488838195801,0.4692634344100952,0.8800000000000006
-2.769972085952759,4.071069717407227,0.7034934759140015,0.8900000000000006
-2.942094326019287,3.5570268630981445,0.6985273361206055,0.9000000000000006
-2.8963210582733154,2.9366455078125,0.5354324579238892,0.9100000000000006
-2.6140835285186768,2.1815099716186523,0.31199634075164795,0.9200000000000006
-2.147993803024292,1.2965097427368164,0.10733747482299805,0.9300000000000006
-1.7200549840927124,0.43945980072021484,-0.0782766342163086,0.9400000000000006
-1.367743730545044,-0.3038167953491211,-0.32818055152893066,0.9500000000000006
-1.2244102954864502,-1.0029783248901367,-0.6372177600860596,0.9600000000000006
-1.0789347887039185,-1.5721759796142578,-0.9213532209396362,0.9700000000000006
-0.8659967184066772,-2.1385316848754883,-1.2187528610229492,0.9800000000000006
-0.6305849552154541,-2.7284741401672363,-1.4195770025253296,0.9900000000000007
-0.42024481296539307,-3.260730266571045,-1.6174439191818237,1.0000000000000007
-0.3587731122970581,-3.642308235168457,-1.8313153982162476,1.0100000000000007
-0.2881253957748413,-3.8757872581481934,-2.061361312866211,1.0200000000000007
-0.11497354507446289,-4.00206184387207,-2.1568610668182373,1.0300000000000007
0.2515907287597656,-4.14575719833374,-2.0339441299438477,1.0400000000000007
0.4477066993713379,-4.208958148956299,-1.754457950592041,1.0500000000000007
0.5281295776367188,-4.19183874130249,-1.430424690246582,1.0600000000000007
0.6410775184631348,-4.19022274017334,-1.1093852519989014,1.0700000000000007
0.5707659721374512,-4.141936779022217,-0.7885677814483643,1.0800000000000007
0.2927670478820801,-3.8914871215820312,-0.5779411792755127,1.0900000000000007
0.07953119277954102,-3.654283046722412,-0.44861745834350586,1.1000000000000008
-0.18909835815429688,-3.3250460624694824,-0.3884272575378418,1.1100000000000008
-0.3964005708694458,-3.099978446960449,-0.3969700336456299,1.1200000000000008
-0.6720250844955444,-2.845036506652832,-0.3783409595489502,1.1300000000000008
-0.8803763389587402,-2.574490547180176,-0.3492550849914551,1.1400000000000008
-1.1608198881149292,-2.5202536582946777,-0.2689368724822998,1.1500000000000008
-1.4538559913635254,-2.349595546722412,-0.12567543983459473,1.1600000000000008
-1.592233657836914,-2.3902134895324707,-0.08943772315979004,1.1700000000000008
-1.6937658786773682,-2.35960054397583,-0.06453776359558105,1.1800000000000008
-1.7298868894577026,-2.4299516677856445,-0.03443741798400879,1.1900000000000008
-1.712243914604187,-2.6824722290039062,0.029317378997802734,1.2000000000000008
-1.6714750528335571,-2.8612866401672363,0.12929821014404297,1.2100000000000009
-1.6168197393417358,-3.064624309539795,0.19854283332824707,1.2200000000000009
-1.4905593395233154,-3.3068952560424805,0.2275540828704834,1.2300000000000009
-1.3281148672103882,-3.6288561820983887,0.22366642951965332,1.2400000000000009
-1.1003375053405762,-3.9252729415893555,0.17726922035217285,1.2500000000000009
-0.9409714937210083,-4.172252178192139,0.07868123054504395,1.260000000000001
-0.8763691186904907,-4.369818687438965,-0.007486104965209961,1.270000000000001
-0.8565123081207275,-4.360100746154785,-0.08618044853210449,1.280000000000001
-0.7570586204528809,-4.258067607879639,-0.16232872009277344,1.290000000000001
-0.583100438117981,-4.104379653930664,-0.15957260131835938,1.300000000000001
-0.5504534244537354,-3.977879047393799,-0.097198486328125,1.310000000000001
-0.5064531564712524,-3.8855834007263184,0.03902697563171387,1.320000000000001
-0.43495380878448486,-3.765228271484375,0.24201059341430664,1.330000000000001
-0.4179924726486206,-3.702777862548828,0.42552924156188965,1.340000000000001
-0.45567119121551514,-3.547402858734131,0.536754846572876,1.350000000000001
-0.521822452545166,-3.4209518432617188,0.4963371753692627,1.360000000000001
-0.6213716268539429,-3.2203826904296875,0.4498441219329834,1.370000000000001
-0.7324049472808838,-2.9457173347473145,0.4590461254119873,1.380000000000001
-0.7587184906005859,-2.561148166656494,0.5354244709014893,1.390000000000001
-0.7119644284248352,-2.2078027725219727,0.5731892585754395,1.400000000000001
-0.531867265701294,-1.734912395477295,0.5358977317810059,1.410000000000001
-0.3183401823043823,-1.211869239807129,0.4396698474884033,1.420000000000001
-0.042368531227111816,-0.6075010299682617,0.2982046604156494,1.430000000000001
0.27238738536834717,0.030303001403808594,0.2498939037322998,1.440000000000001
0.540064811706543,0.6392154693603516,0.3163440227508545,1.450000000000001
0.7727693319320679,1.2335147857666016,0.37811923027038574,1.460000000000001
0.9180407524108887,1.7605772018432617,0.416135311126709,1.470000000000001
1.0215413570404053,2.3065547943115234,0.4208362102508545,1.480000000000001
0.9710345268249512,2.8332958221435547,0.33676886558532715,1.490000000000001
0.8191372156143188,3.388871192932129,0.3140385150909424,1.500000000000001
0.5414488315582275,3.9112548828125,0.49100208282470703,1.5100000000000011
0.19682979583740234,4.391048431396484,0.8914811611175537,1.5200000000000011
-0.06029820442199707,4.670511245727539,1.5061519145965576,1.5300000000000011
-0.24745678901672363,4.811800956726074,2.290524482727051,1.5400000000000011
-0.35046494007110596,4.726157188415527,3.1335678100585938,1.5500000000000012
-0.4027080535888672,4.470858573913574,3.818784236907959,1.5600000000000012
-0.45205068588256836,4.062727928161621,4.186550140380859,1.5700000000000012
-0.42936474084854126,3.5594568252563477,4.294350624084473,1.5800000000000012
-0.3227534294128418,2.999513626098633,4.476937294006348,1.5900000000000012
-0.18947386741638184,2.517345428466797,4.220859527587891,1.6000000000000012
-0.17244017124176025,2.240536689758301,3.4563851356506348,1.6100000000000012
-0.34523916244506836,2.339606285095215,2.6279523372650146,1.6200000000000012
-0.7436286807060242,2.884157180786133,1.9631080627441406,1.6300000000000012
-1.2508546113967896,3.802030563354492,1.4762225151062012,1.6400000000000012
-1.6667320728302002,5.025554656982422,0.9175598621368408,1.6500000000000012
-1.840683937072754,6.403041839599609,0.46172213554382324,1.6600000000000013
-1.595308542251587,7.80870246887207,0.20070576667785645,1.6700000000000013
-1.0912926197052002,9.037690162658691,-0.3226053714752197,1.6800000000000013
-0.6285413503646851,9.95479965209961,-1.3998416662216187,1.6900000000000013
-0.3099510669708252,10.518180847167969,-2.6291158199310303,1.7000000000000013
-0.1527547836303711,10.518542289733887,-3.533092737197876,1.7100000000000013
-0.2378394603729248,9.66833782196045,-4.07874870300293,1.7200000000000013
-0.6663069725036621,7.643230438232422,-4.311967849731445,1.7300000000000013
-1.594072699546814,4.651776313781738,-4.485138893127441,1.7400000000000013
-2.3402678966522217,1.335688591003418,-4.572226047515869,1.7500000000000013
-2.547849655151367,-1.112605094909668,-4.141976833343506,1.7600000000000013
-2.2951278686523438,-2.8347716331481934,-3.2256243228912354,1.7700000000000014
-1.967498779296875,-3.8454723358154297,-2.4161338806152344,1.7800000000000014
-1.5778402090072632,-4.3672027587890625,-1.9376609325408936,1.7900000000000014
-1.1868494749069214,-4.619763374328613,-1.8182215690612793,1.8000000000000014
-0.7312209010124207,-4.684166431427002,-1.7552070617675781,1.8100000000000014
-0.49730384349823,-4.42645788192749,-1.3351078033447266,1.8200000000000014
-0.5966917276382446,-3.9593753814697266,-0.8613307476043701,1.8300000000000014
-0.37437903881073,-3.3860840797424316,-0.6993223428726196,1.8400000000000014
0.1987764835357666,-2.618594169616699,-0.6711373329162598,1.8500000000000014
0.8079328536987305,-1.8249611854553223,-0.737600564956665,1.8600000000000014
1.2482630014419556,-1.0819377899169922,-1.0873098373413086,1.8700000000000014
1.5754224061965942,-0.44931983947753906,-1.4832148551940918,1.8800000000000014
1.9600695371627808,0.07031917572021484,-1.8265395164489746,1.8900000000000015
2.405672550201416,0.27802371978759766,-2.036809206008911,1.9000000000000015
2.791135311126709,0.28591156005859375,-2.3154830932617188,1.9100000000000015
2.982724189758301,0.06980514526367188,-2.5216851234436035,1.9200000000000015
2.865588665008545,-0.23415851593017578,-2.614943742752075,1.9300000000000015
2.6145076751708984,-0.5185222625732422,-2.691735029220581,1.9400000000000015
2.095750331878662,-0.78076171875,-2.885861396789551,1.9500000000000015
1.3497422933578491,-0.8744163513183594,-2.973808765411377,1.9600000000000015
0.4499112367630005,-0.9351282119750977,-2.7523550987243652,1.9700000000000015
-0.3347426652908325,-0.9524812698364258,-2.389317035675049,1.9800000000000015
-1.032144546508789,-0.8803606033325195,-1.9323842525482178,1.9900000000000015
-1.4090373516082764,-0.9000730514526367,-1.4983062744140625,2.0000000000000013
-1.5211929082870483,-0.9634256362915039,-1.0524682998657227,2.010000000000001
-1.5434590578079224,-1.120528221130371,-0.6625509858131409,2.020000000000001
-1.4681884050369263,-1.4527006149291992,-0.3095815181732178,2.0300000000000007
-1.3206324577331543,-1.8380517959594727,-0.13700926303863525,2.0400000000000005
-1.1878315210342407,-2.33902645111084,-0.15410888195037842,2.0500000000000003
-1.1234447956085205,-2.795588493347168,-0.2458096742630005,2.06
-1.2008217573165894,-3.0956082344055176,-0.4645165205001831,2.07
-1.3982130289077759,-3.232215404510498,-0.7069884538650513,2.0799999999999996
-1.5343109369277954,-3.1769070625305176,-0.9202771782875061,2.0899999999999994
-1.6026480197906494,-2.975356101989746,-1.055956244468689,2.099999999999999
-1.5798771381378174,-2.5990734100341797,-1.1468565464019775,2.109999999999999
-1.4470546245574951,-2.29941463470459,-1.2138288021087646,2.1199999999999988
-1.1395721435546875,-2.026149272918701,-1.3066422939300537,2.1299999999999986
-0.7505344748497009,-1.7171525955200195,-1.3676687479019165,2.1399999999999983
-0.4255492687225342,-1.456207275390625,-1.339592456817627,2.149999999999998
-0.09012281894683838,-1.2193660736083984,-1.2132093906402588,2.159999999999998
0.24873030185699463,-1.068751335144043,-1.061051845550537,2.1699999999999977
0.3999241590499878,-0.9875106811523438,-0.8625011444091797,2.1799999999999975
0.5910148620605469,-0.8584079742431641,-0.649483323097229,2.1899999999999973
0.6522966623306274,-0.7269573211669922,-0.5063496828079224,2.199999999999997
0.5884255170822144,-0.7079238891601562,-0.2729939818382263,2.209999999999997
0.451890230178833,-0.7437896728515625,0.10112860798835754,2.2199999999999966
0.2999911308288574,-0.8560237884521484,0.5158219337463379,2.2299999999999964
0.18998849391937256,-0.9680252075195312,0.8158302307128906,2.239999999999996
0.004863739013671875,-1.0296363830566406,1.0372036695480347,2.249999999999996
-0.11166048049926758,-0.9644632339477539,1.1852400302886963,2.259999999999996
-0.25314831733703613,-0.9089326858520508,1.128710389137268,2.2699999999999956
-0.3478665351867676,-0.8893394470214844,1.006782054901123,2.2799999999999954
-0.3766282796859741,-0.7406826019287109,0.9969233870506287,2.289999999999995
-0.3130812644958496,-0.6783418655395508,1.0516351461410522,2.299999999999995
-0.19538342952728271,-0.6639814376831055,1.1157903671264648,2.3099999999999947
0.015135407447814941,-0.8434686660766602,1.076631784439087,2.3199999999999945
0.15822672843933105,-0.8148584365844727,1.2738096714019775,2.3299999999999943
0.18042564392089844,-0.8173685073852539,1.2474981546401978,2.339999999999994
0.2680795192718506,-0.9537391662597656,1.112142562866211,2.349999999999994
0.4880019426345825,-1.0970897674560547,0.8888143301010132,2.3599999999999937
0.6150851249694824,-0.8983068466186523,0.737281322479248,2.3699999999999934
0.6059170961380005,-0.7642650604248047,0.7167778611183167,2.3799999999999932
0.7758246660232544,-0.5609645843505859,0.6732381582260132,2.389999999999993
0.9569919109344482,-0.338714599609375,0.6948246955871582,2.399999999999993
1.2596440315246582,-0.028255462646484375,0.834343671798706,2.4099999999999926
1.31974458694458,0.32732486724853516,1.0302400588989258,2.4199999999999924
1.3017985820770264,0.4578895568847656,1.0966832637786865,2.429999999999992
1.3420848846435547,0.6602420806884766,1.2260305881500244,2.439999999999992
1.2059400081634521,0.8410806655883789,1.3972777128219604,2.4499999999999917
1.101693868637085,0.899993896484375,1.5891748666763306,2.4599999999999915
1.1400182247161865,1.372645378112793,2.009915828704834,2.4699999999999913
1.1632782220840454,1.5220069885253906,2.255061149597168,2.479999999999991
1.2489105463027954,1.5922508239746094,2.367697238922119,2.489999999999991
1.5409923791885376,1.616872787475586,2.393439531326294,2.4999999999999907
1.8627270460128784,1.526540756225586,2.375305652618408,2.5099999999999905
2.0324268341064453,1.5174503326416016,2.1886179447174072,2.5199999999999902
2.422420024871826,1.3170032501220703,1.7756845951080322,2.52999999999999
2.7111785411834717,1.229212760925293,1.5291335582733154,2.53999999999999
3.288386344909668,1.2778902053833008,1.4709181785583496,2.5499999999999896
3.6264636516571045,1.2143220901489258,1.2495158910751343,2.5599999999999894
3.976306915283203,1.2539119720458984,1.188530683517456,2.569999999999989
4.430471897125244,1.1407537460327148,1.0274406671524048,2.579999999999989
4.641665458679199,1.1189918518066406,1.2237719297409058,2.5899999999999888
4.784415245056152,1.0976877212524414,1.2537424564361572,2.5999999999999885
4.6812639236450195,1.2179698944091797,1.2058417797088623,2.6099999999999883
4.436936378479004,1.4558143615722656,0.9720592498779297,2.619999999999988
4.051078796386719,1.8996009826660156,0.8440037965774536,2.629999999999988
3.7675423622131348,2.592148780822754,0.7185492515563965,2.6399999999999877
3.507455348968506,3.5044431686401367,0.5257723331451416,2.6499999999999875
3.1301238536834717,4.411386489868164,0.08510246872901917,2.6599999999999873
2.643415927886963,5.06662654876709,-0.4971230626106262,2.669999999999987
2.105745315551758,5.276694297790527,-1.231429100036621,2.679999999999987
1.6404517889022827,5.070699691772461,-1.9437562227249146,2.6899999999999866
1.2658315896987915,4.503954887390137,-2.460580348968506,2.6999999999999864
0.9475144147872925,3.7464675903320312,-2.5444247722625732,2.709999999999986
0.5575889348983765,3.0183029174804688,-2.3260750770568848,2.719999999999986
-0.015660524368286133,2.460491180419922,-1.9707940816879272,2.7299999999999858
-0.5522351264953613,1.9964313507080078,-1.7985889911651611,2.7399999999999856
-0.9757910966873169,1.783951759338379,-1.7487527132034302,2.7499999999999853
-1.375687599182129,1.787093162536621,-1.8782418966293335,2.759999999999985
-1.7098480463027954,2.0178117752075195,-2.126723051071167,2.769999999999985
-1.8495681285858154,2.2631969451904297,-2.330639362335205,2.7799999999999847
-2.079838991165161,2.6046648025512695,-2.3807871341705322,2.7899999999999845
-2.192610502243042,2.9369401931762695,-2.2727298736572266,2.7999999999999843
-2.2527108192443848,3.238511085510254,-2.2365188598632812,2.809999999999984
-2.425765037536621,3.547694206237793,-2.351867437362671,2.819999999999984
-2.623753547668457,3.761664390563965,-2.5218629837036133,2.8299999999999836
-2.7896852493286133,3.8733301162719727,-2.6236610412597656,2.8399999999999834
-2.983705759048462,3.88995361328125,-2.6857218742370605,2.849999999999983
-3.150723934173584,3.711153984069824,-2.6435546875,2.859999999999983
-3.2091615200042725,3.454254150390625,-2.43790602684021,2.869999999999983
-3.2758638858795166,3.2699594497680664,-2.1872448921203613,2.8799999999999826
-3.242672920227051,3.0864524841308594,-1.8595292568206787,2.8899999999999824
-3.2024435997009277,3.0543994903564453,-1.4393813610076904,2.899999999999982
-3.078371524810791,3.044574737548828,-0.9160911440849304,2.909999999999982
-2.930168390274048,2.9542198181152344,-0.39088451862335205,2.9199999999999817
-2.7122931480407715,2.6543502807617188,0.030904173851013184,2.9299999999999815
-2.465451240539551,2.2002649307250977,0.21798300743103027,2.9399999999999813
-2.105952501296997,1.7116832733154297,0.1783360242843628,2.949999999999981
-1.7437291145324707,1.174208641052246,-0.03688812255859375,2.959999999999981
-1.3594220876693726,0.5615215301513672,-0.42235326766967773,2.9699999999999807
-0.9504022598266602,-0.009221076965332031,-0.7551427483558655,2.9799999999999804
-0.6022944450378418,-0.6243324279785156,-1.0204870700836182,2.9899999999999802
-0.37648797035217285,-1.221806526184082,-1.2659953832626343,2.99999999999998
-0.1452960968017578,-1.8402009010314941,-1.6204121112823486,3.00999999999998
-0.01776599884033203,-2.460659980773926,-1.8777079582214355,3.0199999999999796
0.00670623779296875,-3.052299976348877,-2.0353686809539795,3.0299999999999794
-0.11980915069580078,-3.526702880859375,-2.03365421295166,3.039999999999979
-0.15312445163726807,-3.996613025665283,-1.9294694662094116,3.049999999999979
-0.09063458442687988,-4.3116607666015625,-1.9614603519439697,3.0599999999999787
-0.1337834596633911,-4.608219146728516,-2.012558698654175,3.0699999999999785
-0.1950078010559082,-4.754626750946045,-1.9057643413543701,3.0799999999999783
-0.24396812915802002,-4.77011251449585,-1.5837171077728271,3.089999999999978
-0.24055254459381104,-4.728930950164795,-1.216298222541809,3.099999999999978
-0.37671375274658203,-4.463706016540527,-0.8776147365570068,3.1099999999999777
-0.5762720108032227,-4.173128604888916,-0.6082106828689575,3.1199999999999775
-0.7942198514938354,-3.8547520637512207,-0.43677568435668945,3.1299999999999772
-1.0786751508712769,-3.4821815490722656,-0.33725452423095703,3.139999999999977
-1.3149391412734985,-3.1342878341674805,-0.3721034526824951,3.149999999999977
-1.5032062530517578,-2.753602981567383,-0.40264225006103516,3.1599999999999766
-1.6436944007873535,-2.4812941551208496,-0.4286978244781494,3.1699999999999764
-1.7224760055541992,-2.317232131958008,-0.44771289825439453,3.179999999999976
-1.7852458953857422,-2.170473575592041,-0.4762401580810547,3.189999999999976
-1.7914539575576782,-2.084101676940918,-0.49498629570007324,3.1999999999999758
-1.717226505279541,-2.1393752098083496,-0.523104190826416,3.2099999999999755
-1.7228753566741943,-2.230954170227051,-0.5701038837432861,3.2199999999999753
-1.6596672534942627,-2.4066853523254395,-0.6193318367004395,3.229999999999975
-1.6062575578689575,-2.642658233642578,-0.6109545230865479,3.239999999999975
-1.6296427249908447,-2.855175018310547,-0.5783483982086182,3.2499999999999747
-1.5428732633590698,-3.168776035308838,-0.48780107498168945,3.2599999999999745
-1.558557391166687,-3.5572681427001953,-0.32218408584594727,3.2699999999999743
-1.4178295135498047,-4.039871692657471,-0.17460155487060547,3.279999999999974
-1.3524527549743652,-4.441957950592041,-0.1431887149810791,3.289999999999974
-1.2377893924713135,-4.7397074699401855,-0.12273764610290527,3.2999999999999736
-1.1240267753601074,-4.851860046386719,-0.10877275466918945,3.3099999999999734
-0.9946462512016296,-4.898135185241699,-0.08221626281738281,3.319999999999973
-1.025031566619873,-4.677599906921387,-0.012013673782348633,3.329999999999973
-0.9502177834510803,-4.324343204498291,0.039537906646728516,3.3399999999999728
-0.8281132578849792,-4.017767429351807,0.2039191722869873,3.3499999999999726
-0.7092048525810242,-3.678837776184082,0.4689481258392334,3.3599999999999723
-0.5936472415924072,-3.33620023727417,0.7291321754455566,3.369999999999972
-0.505689263343811,-3.066154956817627,0.8716177940368652,3.379999999999972
-0.4865231513977051,-2.8253369331359863,0.9176540374755859,3.3899999999999717
-0.40989387035369873,-2.5919713973999023,0.9171733856201172,3.3999999999999715
-0.3216705322265625,-2.3276143074035645,0.8865959644317627,3.4099999999999713
-0.260684609413147,-2.0130090713500977,0.8926446437835693,3.419999999999971
-0.2129431962966919,-1.7700862884521484,0.9878201484680176,3.429999999999971
-0.0901726484298706,-1.565218448638916,1.0738739967346191,3.4399999999999706
0.11283218860626221,-1.3147249221801758,1.110088586807251,3.4499999999999704
0.37758541107177734,-1.0928258895874023,1.1919217109680176,3.45999999999997
0.7051793336868286,-0.8493518829345703,1.249634027481079,3.46999999999997
1.0919818878173828,-0.5222206115722656,1.335373878479004,3.47999999999997
1.4695905447006226,-0.12824726104736328,1.3241186141967773,3.4899999999999696
1.8076388835906982,0.32062339782714844,1.2606322765350342,3.4999999999999694
2.0563061237335205,0.8843278884887695,1.0937268733978271,3.509999999999969
2.1605610847473145,1.4721488952636719,0.9396967887878418,3.519999999999969
2.175405263900757,2.0340633392333984,0.8934168815612793,3.5299999999999687
2.0503628253936768,2.579831123352051,0.9782423973083496,3.5399999999999685
1.725427508354187,3.1119613647460938,1.198660135269165,3.5499999999999683
1.171732783317566,3.6279754638671875,1.557499647140503,3.559999999999968
0.5851330757141113,4.1324052810668945,2.189772844314575,3.569999999999968
-0.10168921947479248,4.608274459838867,2.8356618881225586,3.5799999999999677
-0.7524637579917908,5.007665634155273,3.3666086196899414,3.5899999999999674
-1.4504790306091309,5.299359321594238,3.8765881061553955,3.5999999999999672
-2.034842014312744,5.440160751342773,4.406947612762451,3.609999999999967
-2.5386743545532227,5.362900733947754,4.887052536010742,3.619999999999967
-2.871255874633789,4.964727401733398,5.2893290519714355,3.6299999999999666
-3.1456942558288574,4.2893266677856445,4.979664325714111,3.6399999999999664
-3.2257776260375977,3.6006383895874023,4.119619369506836,3.649999999999966
-3.199803113937378,3.327535629272461,3.075089931488037,3.659999999999966
-3.125138282775879,3.5490875244140625,2.3079376220703125,3.6699999999999657
-3.042583703994751,4.1859893798828125,1.7838375568389893,3.6799999999999655
-2.7613582611083984,5.1995038986206055,1.2111034393310547,3.6899999999999653
-2.3492159843444824,6.311641693115234,0.6170668601989746,3.699999999999965
-1.6227675676345825,7.4428253173828125,0.19762706756591797,3.709999999999965
-0.96143639087677,8.40783977508545,-0.3495199680328369,3.7199999999999647
-0.5073452591896057,9.176856994628906,-1.2157530784606934,3.7299999999999645
-0.2605780363082886,9.60531997680664,-2.260463237762451,3.7399999999999642
-0.1268521547317505,9.524962425231934,-3.0687899589538574,3.749999999999964
-0.269720196723938,8.727355003356934,-3.5525825023651123,3.759999999999964
-0.730623185634613,7.153229713439941,-3.8048253059387207,3.7699999999999636
-1.4128931760787964,4.768155097961426,-3.745875835418701,3.7799999999999634
-2.024461269378662,1.7226686477661133,-3.5422000885009766,3.789999999999963
-2.414656400680542,-0.9217004776000977,-3.2028896808624268,3.799999999999963
-2.394233226776123,-2.7865123748779297,-2.73179030418396,3.8099999999999627
-2.1257333755493164,-4.036955833435059,-2.217836856842041,3.8199999999999625
-1.659801721572876,-4.874040603637695,-1.8806660175323486,3.8299999999999623
-1.1644723415374756,-5.331271171569824,-1.6761958599090576,3.839999999999962
-0.7102149724960327,-5.444580078125,-1.5885672569274902,3.849999999999962
-0.6769508123397827,-5.075463771820068,-1.5003979206085205,3.8599999999999617
-0.5470988750457764,-4.521233081817627,-1.0251681804656982,3.8699999999999615
-0.18737900257110596,-3.8686747550964355,-0.5798850059509277,3.8799999999999613
0.3545917272567749,-3.1470727920532227,-0.49541449546813965,3.889999999999961
1.0129611492156982,-2.4119253158569336,-0.6939045190811157,3.899999999999961
1.5733784437179565,-1.6992506980895996,-1.0482195615768433,3.9099999999999606
1.9844413995742798,-1.1525144577026367,-1.5394651889801025,3.9199999999999604
2.445786476135254,-0.6209630966186523,-1.9452741146087646,3.92999999999996
2.893868923187256,-0.37018871307373047,-2.2990622520446777,3.93999999999996
3.3319239616394043,-0.30936145782470703,-2.5400474071502686,3.9499999999999598
3.6669411659240723,-0.31907176971435547,-2.7982940673828125,3.9599999999999596
3.812670946121216,-0.38038063049316406,-3.0003511905670166,3.9699999999999593
3.8002638816833496,-0.40262603759765625,-2.9866943359375,3.979999999999959
3.616010904312134,-0.3764324188232422,-2.9406843185424805,3.989999999999959
2.9612627029418945,-0.35175609588623047,-2.9681591987609863,3.9999999999999587
2.010385036468506,-0.31827259063720703,-3.090324878692627,4.009999999999959
0.8939023017883301,-0.3205251693725586,-3.0611400604248047,4.019999999999959
-0.13851118087768555,-0.2979278564453125,-2.7205708026885986,4.0299999999999585
-0.9947172403335571,-0.2954750061035156,-2.140111207962036,4.039999999999958
-1.567519187927246,-0.42294883728027344,-1.5747990608215332,4.049999999999958
-2.0338046550750732,-0.5893878936767578,-1.0180106163024902,4.059999999999958
-2.4479846954345703,-1.0005559921264648,-0.6492993831634521,4.069999999999958
-2.76133394241333,-1.4698982238769531,-0.41337090730667114,4.079999999999957
-2.9129042625427246,-2.0359058380126953,-0.35306066274642944,4.089999999999957
-3.0595691204071045,-2.490703582763672,-0.41548752784729004,4.099999999999957
-3.234355926513672,-2.856088161468506,-0.5360082387924194,4.109999999999957
-3.3057973384857178,-3.0915627479553223,-0.7026896476745605,4.119999999999957
-3.3271312713623047,-3.0777196884155273,-0.8507810235023499,4.129999999999956
-3.2323873043060303,-2.8315439224243164,-0.9894949197769165,4.139999999999956
-3.001324415206909,-2.4464635848999023,-1.0683186054229736,4.149999999999956
-2.59421706199646,-2.0230579376220703,-1.086571216583252,4.159999999999956
-1.9899523258209229,-1.6164426803588867,-1.0791971683502197,4.1699999999999555
-1.3943792581558228,-1.119084358215332,-1.0882611274719238,4.179999999999955
-0.8072922229766846,-0.7367992401123047,-1.1441782712936401,4.189999999999955
-0.28346872329711914,-0.4073162078857422,-1.275174617767334,4.199999999999955
0.15354740619659424,-0.16646385192871094,-1.3447413444519043,4.209999999999955
0.48480141162872314,-0.0786752700805664,-1.2955719232559204,4.2199999999999545
0.7656307220458984,-0.19635391235351562,-1.1329939365386963,4.229999999999954
0.9032734632492065,-0.47862815856933594,-0.9270519614219666,4.239999999999954
0.9916565418243408,-0.86077880859375,-0.6404035091400146,4.249999999999954
1.0431751012802124,-1.141876220703125,-0.3050999939441681,4.259999999999954
1.0604724884033203,-1.4105606079101562,-0.039259299635887146,4.269999999999953
1.0651835203170776,-1.5425529479980469,0.20948348939418793,4.279999999999953
1.1219958066940308,-1.6265449523925781,0.4387779235839844,4.289999999999953
1.175706148147583,-1.686518669128418,0.6225968599319458,4.299999999999953
1.2644996643066406,-1.7727327346801758,0.6485077142715454,4.3099999999999525
1.309294581413269,-1.7990784645080566,0.712787389755249,4.319999999999952
1.40104341506958,-1.8756518363952637,0.7029213905334473,4.329999999999952
1.5109730958938599,-1.7728633880615234,0.6857318878173828,4.339999999999952
1.5888457298278809,-1.77789306640625,0.6492810249328613,4.349999999999952
1.618077039718628,-1.8977956771850586,0.5702584981918335,4.3599999999999515
1.5387275218963623,-1.7498035430908203,0.6528993248939514,4.369999999999951
1.5228949785232544,-1.7167692184448242,0.6444734334945679,4.379999999999951
1.4268667697906494,-1.5402565002441406,0.6317766904830933,4.389999999999951
1.4251620769500732,-1.4953880310058594,0.6244328618049622,4.399999999999951
1.4412353038787842,-1.4194154739379883,0.6699329614639282,4.40999999999995
1.4679056406021118,-1.2741422653198242,0.7507953643798828,4.41999999999995
1.3301196098327637,-0.9328994750976562,0.9571032524108887,4.42999999999995
1.2740427255630493,-0.5393972396850586,1.2570101022720337,4.43999999999995
1.160697102546692,-0.3208780288696289,1.48734450340271,4.4499999999999496
1.0354126691818237,-0.17193126678466797,1.65264093875885,4.459999999999949
0.8094712495803833,0.043837547302246094,1.8535268306732178,4.469999999999949
0.6262048482894897,0.19724655151367188,1.8391400575637817,4.479999999999949
0.4566029906272888,0.7212257385253906,2.103145122528076,4.489999999999949
0.19278794527053833,1.0080080032348633,2.062174081802368,4.4999999999999485
0.03082406520843506,1.3065567016601562,1.9938890933990479,4.509999999999948
-0.18249785900115967,1.5188026428222656,2.046419143676758,4.519999999999948
-0.3225940465927124,1.6208839416503906,2.1475749015808105,4.529999999999948
-0.2746696472167969,1.5985279083251953,2.0552334785461426,4.539999999999948
-0.2109350562095642,1.7913904190063477,2.192732095718384,4.549999999999947
-0.021503984928131104,1.6229238510131836,2.0790023803710938,4.559999999999947
0.4063715934753418,1.5239067077636719,1.9795197248458862,4.569999999999947
0.8502222895622253,1.5061664581298828,1.951429843902588,4.579999999999947
1.2862348556518555,1.4284849166870117,2.0181336402893066,4.589999999999947
1.810609221458435,1.2789058685302734,2.1192538738250732,4.599999999999946
2.2488081455230713,1.1938095092773438,2.142368793487549,4.609999999999946
2.770406723022461,1.1971378326416016,2.1268956661224365,4.619999999999946
3.322505474090576,1.3750200271606445,2.187307357788086,4.629999999999946
3.816072463989258,1.5193815231323242,2.1006836891174316,4.6399999999999455
4.0257792472839355,1.5969057083129883,2.1243767738342285,4.649999999999945
4.171622276306152,1.40447998046875,2.277941942214966,4.659999999999945
3.9949159622192383,1.1934471130371094,2.115253210067749,4.669999999999945
3.8496992588043213,1.1071748733520508,1.6634082794189453,4.679999999999945
3.603546142578125,1.284128189086914,1.040648341178894,4.689999999999944
3.375189781188965,1.7335624694824219,0.3159778118133545,4.699999999999944
3.151352882385254,2.574763298034668,-0.5512152314186096,4.709999999999944
2.7034952640533447,3.57058048248291,-1.4847497940063477,4.719999999999944
2.0478601455688477,4.4076032638549805,-2.248720407485962,4.729999999999944
1.4167697429656982,4.724957466125488,-2.8107335567474365,4.739999999999943
0.8781829476356506,4.46107292175293,-3.1599435806274414,4.749999999999943
0.5530902743339539,3.855714797973633,-3.1899216175079346,4.759999999999943
0.2733005881309509,3.28702449798584,-2.8253889083862305,4.769999999999943
0.12153506278991699,2.9462461471557617,-2.1431233882904053,4.7799999999999425
0.01939105987548828,2.9336118698120117,-1.3986616134643555,4.789999999999942
0.11294877529144287,3.160329818725586,-1.082115888595581,4.799999999999942
0.33996665477752686,3.4444618225097656,-1.3346062898635864,4.809999999999942
0.4659889340400696,3.623469352722168,-1.8039014339447021,4.819999999999942
0.5508456230163574,3.6259164810180664,-2.309434413909912,4.8299999999999415
0.5325325131416321,3.4162864685058594,-2.748879909515381,4.839999999999941
0.2984926700592041,3.2484169006347656,-3.154045343399048,4.849999999999941
-0.03436315059661865,3.1606035232543945,-3.4611012935638428,4.859999999999941
-0.3395985960960388,3.186264991760254,-3.6617326736450195,4.869999999999941
-0.524049699306488,3.248720169067383,-3.738473653793335,4.87999999999994
-0.6860525012016296,3.2761754989624023,-3.5692200660705566,4.88999999999994
-0.9332550168037415,3.2710437774658203,-3.1470565795898438,4.89999999999994
-1.3131725788116455,3.2500667572021484,-2.6183454990386963,4.90999999999994
-1.6743110418319702,3.2275428771972656,-2.086719274520874,4.9199999999999395
-2.027649164199829,3.2224912643432617,-1.6269474029541016,4.929999999999939
-2.479757785797119,3.2276058197021484,-1.2347939014434814,4.939999999999939
-2.884122371673584,3.3002099990844727,-0.8652682900428772,4.949999999999939
-3.226405143737793,3.3397865295410156,-0.5160559415817261,4.959999999999939
-3.5788259506225586,3.3033809661865234,-0.12475895881652832,4.9699999999999385
-3.8392674922943115,3.1696624755859375,0.2250838279724121,4.979999999999938
-3.986692428588867,2.9148826599121094,0.47154664993286133,4.989999999999938
-3.9614288806915283,2.476994514465332,0.6078287363052368,4.999999999999938
-3.803973913192749,1.8489551544189453,0.6199913024902344,5.009999999999938
-3.530594825744629,1.0451936721801758,0.5036370754241943,5.019999999999937
-3.1404647827148438,0.1398611068725586,0.270840048789978,5.029999999999937
-2.6354217529296875,-0.8431625366210938,0.005413413047790527,5.039999999999937
-2.1373727321624756,-1.6217412948608398,-0.22301054000854492,5.049999999999937
-1.7443926334381104,-2.2607574462890625,-0.4142798185348511,5.0599999999999365
-1.3343815803527832,-2.755664825439453,-0.5779595375061035,5.069999999999936
-0.9692200422286987,-3.149786949157715,-0.7451576590538025,5.079999999999936
-0.7010782957077026,-3.450564384460449,-0.9420498013496399,5.089999999999936
-0.5080927610397339,-3.60325288772583,-1.1946744918823242,5.099999999999936
-0.2898526191711426,-3.648797035217285,-1.4212403297424316,5.1099999999999355
-0.08264899253845215,-3.604123115539551,-1.5927197933197021,5.119999999999935
0.06758570671081543,-3.5242857933044434,-1.6446242332458496,5.129999999999935
0.17723608016967773,-3.3615479469299316,-1.6484843492507935,5.139999999999935
0.2027040719985962,-3.118305206298828,-1.7120846509933472,5.149999999999935
0.22224128246307373,-2.897249221801758,-1.689988613128662,5.159999999999934
0.3022031784057617,-2.691077709197998,-1.4699896574020386,5.169999999999934
0.2390131950378418,-2.5261058807373047,-1.1381927728652954,5.179999999999934
0.14490115642547607,-2.3424863815307617,-0.9505268335342407,5.189999999999934
-0.16925430297851562,-2.219080924987793,-0.8926506042480469,5.199999999999934
-0.5742977857589722,-2.0122838020324707,-0.9024142026901245,5.209999999999933
-0.8885588049888611,-1.978001594543457,-0.932058572769165,5.219999999999933
-1.0975990295410156,-2.0538907051086426,-1.0103322267532349,5.229999999999933
-1.3232152462005615,-2.2183876037597656,-1.1012489795684814,5.239999999999933
-1.4694393873214722,-2.404594898223877,-1.163833498954773,5.2499999999999325
-1.5361900329589844,-2.6939282417297363,-1.2169575691223145,5.259999999999932
-1.5447834730148315,-2.940518856048584,-1.2533364295959473,5.269999999999932
-1.5165822505950928,-3.2091217041015625,-1.3229566812515259,5.279999999999932
-1.3195931911468506,-3.550145149230957,-1.2724202871322632,5.289999999999932
-1.2190589904785156,-3.8585009574890137,-1.1612672805786133,5.299999999999931
-1.0162029266357422,-4.232422351837158,-1.0538057088851929,5.309999999999931
-0.8688843250274658,-4.511725425720215,-0.9163267612457275,5.319999999999931
-0.7219613790512085,-4.749199867248535,-0.7654645442962646,5.329999999999931
-0.513177752494812,-5.0023322105407715,-0.5891985893249512,5.339999999999931
-0.44344425201416016,-5.225642204284668,-0.40201497077941895,5.34999999999993
-0.44354915618896484,-5.277976036071777,-0.23517918586730957,5.35999999999993
-0.4854464530944824,-5.233412742614746,-0.13686895370483398,5.36999999999993
-0.57923424243927,-5.02251672744751,-0.049942731857299805,5.37999999999993
-0.6175522804260254,-4.803149700164795,0.10660290718078613,5.3899999999999295
-0.5648444890975952,-4.6111159324646,0.36847591400146484,5.399999999999929
-0.569992184638977,-4.45818567276001,0.6564629077911377,5.409999999999929
-0.6122289299964905,-4.303464412689209,0.9631664752960205,5.419999999999929
-0.6012539267539978,-4.146796703338623,1.2118465900421143,5.429999999999929
-0.6141083836555481,-4.047867774963379,1.2972912788391113,5.4399999999999284
-0.6250808835029602,-3.970559597015381,1.1428959369659424,5.449999999999928
-0.5532243847846985,-3.871596336364746,0.8249216079711914,5.459999999999928
-0.4178442358970642,-3.779587745666504,0.5608022212982178,5.469999999999928
-0.15911459922790527,-3.6370925903320312,0.3765249252319336,5.479999999999928
0.24707067012786865,-3.4393038749694824,0.20931434631347656,5.489999999999927
0.5975130796432495,-3.2028822898864746,0.046526432037353516,5.499999999999927
1.0122745037078857,-2.8655738830566406,-0.0432281494140625,5.509999999999927
1.3679310083389282,-2.3701744079589844,0.04717373847961426,5.519999999999927
1.6654186248779297,-1.7696075439453125,0.25047850608825684,5.5299999999999265
1.8766123056411743,-0.9995107650756836,0.5019199848175049,5.539999999999926
1.8011986017227173,-0.0695333480834961,0.587871789932251,5.549999999999926
1.719596266746521,0.9605493545532227,0.6749341487884521,5.559999999999926
1.603499412536621,2.026205062866211,0.8077073097229004,5.569999999999926
1.386143445968628,3.0652379989624023,0.9955060482025146,5.5799999999999255
1.0574599504470825,4.027563095092773,1.2071728706359863,5.589999999999925
0.6046042442321777,4.872644424438477,1.5125548839569092,5.599999999999925
0.09132599830627441,5.440312385559082,2.027311086654663,5.609999999999925
-0.4855484962463379,5.7787580490112305,2.5555412769317627,5.619999999999925
-1.0496344566345215,5.9431915283203125,3.0809195041656494,5.629999999999924
-1.5646013021469116,5.983768463134766,3.6974897384643555,5.639999999999924
-2.085052967071533,5.957704544067383,4.3128461837768555,5.649999999999924
-2.3878731727600098,5.862476348876953,4.712184429168701,5.659999999999924
-2.637646198272705,5.712815284729004,4.6002421379089355,5.6699999999999235
-2.737975597381592,5.6865739822387695,3.873863935470581,5.679999999999923
-2.872422695159912,5.973560333251953,2.9196062088012695,5.689999999999923
-3.0712032318115234,6.545565605163574,1.959411859512329,5.699999999999923
-3.190739631652832,7.737757682800293,1.1371517181396484,5.709999999999923
-3.1668941974639893,9.262630462646484,0.598909854888916,5.7199999999999225
-2.667755126953125,11.11428451538086,0.39789605140686035,5.729999999999922
-1.708386778831482,12.7814302444458,0.3696444034576416,5.739999999999922
-0.32557666301727295,13.876872062683105,0.2228994369506836,5.749999999999922
0.8335839509963989,13.726359367370605,-0.40616774559020996,5.759999999999922
1.4604170322418213,13.646367073059082,-1.4255222082138062,5.769999999999921
1.427720546722412,12.102527618408203,-2.359593391418457,5.779999999999921
0.40347397327423096,9.285895347595215,-2.8223891258239746,5.789999999999921
-1.3029884099960327,5.307305335998535,-2.7639973163604736,5.799999999999921
-2.644814968109131,1.3842315673828125,-2.4185919761657715,5.809999999999921
-3.1751155853271484,-1.7605514526367188,-1.7965130805969238,5.81999999999992
-3.4835827350616455,-3.8903584480285645,-1.4273120164871216,5.82999999999992
-3.3399710655212402,-5.136466026306152,-1.5472379922866821,5.83999999999992
-2.910945415496826,-6.237399101257324,-2.1175098419189453,5.84999999999992
-2.291806221008301,-6.9936418533325195,-2.9434421062469482,5.8599999999999195
-1.6147558689117432,-7.407313346862793,-3.2690656185150146,5.869999999999919
-1.4397848844528198,-7.296952247619629,-2.869770050048828,5.879999999999919
-1.159452199935913,-6.909801483154297,-2.138852596282959,5.889999999999919
-0.4167589545249939,-6.318553924560547,-1.5857985019683838,5.899999999999919
0.5271837711334229,-5.404816627502441,-1.2911206483840942,5.909999999999918
1.48667311668396,-4.291685104370117,-1.2907077074050903,5.919999999999918
2.1204848289489746,-3.0418167114257812,-1.4807970523834229,5.929999999999918
2.618374824523926,-1.6624698638916016,-1.7300212383270264,5.939999999999918
3.0531327724456787,-0.45020484924316406,-1.9840056896209717,5.949999999999918
3.6056666374206543,0.7982587814331055,-2.0802383422851562,5.959999999999917
4.136009693145752,2.1493825912475586,-2.0250372886657715,5.969999999999917
4.422140121459961,3.2033185958862305,-2.070539951324463,5.979999999999917
4.526303291320801,3.8811120986938477,-2.14522123336792,5.989999999999917
4.13474702835083,3.984638214111328,-2.374256134033203,5.9999999999999165
3.126807928085327,3.3380489349365234,-2.6352250576019287,6.009999999999916
1.62302827835083,2.0005035400390625,-2.6830687522888184,6.019999999999916
0.5399324893951416,0.5233688354492188,-2.479128122329712,6.029999999999916
-0.23614132404327393,-0.679203987121582,-2.2791907787323,6.039999999999916
-0.8216085433959961,-1.499608039855957,-1.958664059638977,6.0499999999999154
-1.3767229318618774,-2.0742297172546387,-1.522118091583252,6.059999999999915
-1.7369024753570557,-2.462829113006592,-0.9761228561401367,6.069999999999915
-1.9822027683258057,-2.653390884399414,-0.4249436855316162,6.079999999999915
-2.1396236419677734,-2.8086910247802734,-0.09627640247344971,6.089999999999915
-2.2359278202056885,-2.936020851135254,0.07481849193572998,6.099999999999914
-2.189882516860962,-2.985352039337158,0.043444037437438965,6.109999999999914
-2.2047929763793945,-3.052623748779297,-0.08667504787445068,6.119999999999914
-2.1796786785125732,-3.1237335205078125,-0.2379601001739502,6.129999999999914
-2.168907642364502,-3.210908889770508,-0.3448418378829956,6.1399999999999135
-2.174158811569214,-3.204408645629883,-0.39429259300231934,6.149999999999913
-2.0941898822784424,-3.283886432647705,-0.5913534164428711,6.159999999999913
-1.9687377214431763,-3.423102855682373,-0.9093433618545532,6.169999999999913
-1.7929593324661255,-3.4617671966552734,-1.1353925466537476,6.179999999999913
-1.5747452974319458,-3.3257365226745605,-1.1957484483718872,6.1899999999999125
-1.1617217063903809,-2.9696788787841797,-1.2007993459701538,6.199999999999912
-0.729204535484314,-2.412928581237793,-1.1862800121307373,6.209999999999912
-0.26572155952453613,-1.9210615158081055,-1.283795714378357,6.219999999999912
0.07046389579772949,-1.470005989074707,-1.4144741296768188,6.229999999999912
0.3221549987792969,-0.9807310104370117,-1.430128574371338,6.239999999999911
0.675966739654541,-0.6804332733154297,-1.412320852279663,6.249999999999911
0.8234764337539673,-0.5091257095336914,-1.3467609882354736,6.259999999999911
0.9013463258743286,-0.4762258529663086,-1.185746192932129,6.269999999999911
0.8643907308578491,-0.5935392379760742,-0.9176669120788574,6.2799999999999105
0.8040707111358643,-0.8752851486206055,-0.734371542930603,6.28999999999991
0.737581729888916,-1.1611261367797852,-0.526375949382782,6.29999999999991
0.6173776388168335,-1.412856101989746,-0.27765601873397827,6.30999999999991
0.6159094572067261,-1.5492887496948242,-0.012681305408477783,6.31999999999991
0.6566404104232788,-1.5467205047607422,0.24916446208953857,6.3299999999999095
0.7299731969833374,-1.4938430786132812,0.5078819394111633,6.339999999999909
0.7639526128768921,-1.4026927947998047,0.6797991394996643,6.349999999999909
0.8828953504562378,-1.3713808059692383,0.7722797393798828,6.359999999999909
0.9455459117889404,-1.3209505081176758,0.8236009478569031,6.369999999999909
1.1146025657653809,-1.3327665328979492,0.8671507835388184,6.379999999999908
1.248975396156311,-1.2991981506347656,0.8765904903411865,6.389999999999908
1.461119294166565,-1.2538118362426758,0.926133394241333,6.399999999999908
1.6552108526229858,-1.1487903594970703,1.076045274734497,6.409999999999908
1.7806355953216553,-0.9674129486083984,1.1809885501861572,6.419999999999908
1.8466079235076904,-0.8770751953125,1.1796488761901855,6.429999999999907
1.8888663053512573,-0.7771787643432617,1.197414517402649,6.439999999999907
1.8283002376556396,-0.6700639724731445,1.2253774404525757,6.449999999999907
1.7966406345367432,-0.6298675537109375,1.249177098274231,6.459999999999907
1.731787919998169,-0.6039466857910156,1.337446928024292,6.4699999999999065
1.5933055877685547,-0.5445461273193359,1.3669449090957642,6.479999999999906
1.4676182270050049,-0.5187845230102539,1.3314841985702515,6.489999999999906
1.31416916847229,-0.45258045196533203,1.2684853076934814,6.499999999999906
1.1472430229187012,-0.17143535614013672,1.3909611701965332,6.509999999999906
0.9287539720535278,0.2478790283203125,1.4793436527252197,6.519999999999905
0.7518160343170166,0.8865537643432617,1.6684085130691528,6.529999999999905
0.5034846067428589,1.3187799453735352,1.6620395183563232,6.539999999999905
0.41108375787734985,1.8341245651245117,1.6421623229980469,6.549999999999905
0.38383960723876953,2.2889699935913086,1.649196982383728,6.559999999999905
0.5561487078666687,2.4537668228149414,1.7353681325912476,6.569999999999904
0.526247501373291,2.331284523010254,2.1257452964782715,6.579999999999904
0.5571427941322327,1.9888734817504883,2.399250030517578,6.589999999999904
0.8351119756698608,1.7544116973876953,2.47477388381958,6.599999999999904
1.3476505279541016,1.6516761779785156,2.342621326446533,6.6099999999999035
1.8088032007217407,1.3936071395874023,2.0334243774414062,6.619999999999903
2.2104153633117676,1.2577848434448242,1.8312389850616455,6.629999999999903
2.681023359298706,1.320603370666504,1.8672828674316406,6.639999999999903
3.1545159816741943,1.3021535873413086,1.873664140701294,6.649999999999903
3.6996235847473145,1.5374383926391602,2.065000534057617,6.659999999999902
4.299793243408203,1.8158540725708008,2.161526679992676,6.669999999999902
4.672946929931641,2.101560592651367,2.079017162322998,6.679999999999902
4.883229732513428,2.1411561965942383,1.5553278923034668,6.689999999999902
4.648398399353027,2.260128974914551,1.1406928300857544,6.699999999999902
4.356598377227783,2.4463071823120117,0.603835940361023,6.709999999999901
4.060791969299316,2.909900665283203,0.2850610315799713,6.719999999999901
3.746798276901245,3.628957748413086,-0.05879509449005127,6.729999999999901
3.4215266704559326,4.347301483154297,-0.5575768947601318,6.739999999999901
2.9001104831695557,4.859344482421875,-1.3192811012268066,6.7499999999999005
2.261080503463745,5.024316787719727,-2.310704231262207,6.7599999999999
1.6359425783157349,4.809200286865234,-3.259737491607666,6.7699999999999
0.8142500519752502,4.338839530944824,-3.851569414138794,6.7799999999999
0.11253625154495239,3.702023506164551,-3.95341157913208,6.7899999999999
-0.43882235884666443,2.9921064376831055,-3.547520160675049,6.7999999999998995
-0.9213286638259888,2.4648704528808594,-2.6735196113586426,6.809999999999899
-1.3618923425674438,2.1462841033935547,-1.6119890213012695,6.819999999999899
-1.6016957759857178,2.212991714477539,-1.088282585144043,6.829999999999899
-1.5853267908096313,2.516267776489258,-1.3489971160888672,6.839999999999899
-1.4108911752700806,2.862227439880371,-1.9085206985473633,6.849999999999898
-1.2841780185699463,3.100360870361328,-2.2543299198150635,6.859999999999898
-1.2170252799987793,3.1401500701904297,-2.430142402648926,6.869999999999898
-1.3151260614395142,3.1924962997436523,-2.61030912399292,6.879999999999898
-1.5817444324493408,3.2934608459472656,-2.784707546234131,6.8899999999998975
-1.8094408512115479,3.443068504333496,-2.926785945892334,6.899999999999897
-1.9967609643936157,3.6173715591430664,-3.063248634338379,6.909999999999897
-2.233123302459717,3.7422237396240234,-3.183615207672119,6.919999999999897
-2.353766679763794,3.7985048294067383,-3.185058355331421,6.929999999999897
-2.5454294681549072,3.7862462997436523,-2.8647572994232178,6.9399999999998965
-2.8054394721984863,3.7915468215942383,-2.2331275939941406,6.949999999999896
-3.0063648223876953,3.826230049133301,-1.4967052936553955,6.959999999999896
-3.2001302242279053,3.8758087158203125,-0.8069751262664795,6.969999999999896
-3.2378392219543457,3.866086959838867,-0.2534032464027405,6.979999999999896
-3.2771997451782227,3.6943531036376953,0.16309094429016113,6.989999999999895
-3.184387683868408,3.406338691711426,0.4154869318008423,6.999999999999895
-3.0362679958343506,2.932962417602539,0.5369011163711548,7.009999999999895
-2.7468149662017822,2.2960338592529297,0.4985687732696533,7.019999999999895
-2.3566744327545166,1.5244245529174805,0.32729148864746094,7.0299999999998946
-1.863095998764038,0.7520866394042969,0.07874727249145508,7.039999999999894
-1.3330605030059814,0.05311870574951172,-0.27071237564086914,7.049999999999894
-0.7565828561782837,-0.5965948104858398,-0.601158618927002,7.059999999999894
-0.32671403884887695,-1.2403783798217773,-0.8833293318748474,7.069999999999894
0.00999462604522705,-1.8378429412841797,-1.0951247215270996,7.0799999999998935
0.19436109066009521,-2.389256477355957,-1.386857271194458,7.089999999999893
0.2965761423110962,-2.9761900901794434,-1.5908865928649902,7.099999999999893
0.40579330921173096,-3.6490020751953125,-1.6761536598205566,7.109999999999893
0.40526819229125977,-4.204569339752197,-1.6638919115066528,7.119999999999893
0.25204265117645264,-4.585743427276611,-1.7955232858657837,7.129999999999892
-0.07578730583190918,-4.838099479675293,-1.8700748682022095,7.139999999999892
-0.11932814121246338,-5.083713531494141,-1.83497953414917,7.149999999999892
0.0011860132217407227,-5.260419845581055,-1.6711483001708984,7.159999999999892
0.05766868591308594,-5.23909854888916,-1.4479707479476929,7.169999999999892
-0.02688443660736084,-5.0629777908325195,-1.2180408239364624,7.179999999999891
-0.16698753833770752,-4.832536220550537,-1.0794672966003418,7.189999999999891
-0.33212804794311523,-4.519000053405762,-0.953455924987793,7.199999999999891
-0.4675534963607788,-4.206125736236572,-0.8352473974227905,7.209999999999891
-0.6477787494659424,-3.869962692260742,-0.7104883193969727,7.2199999999998905
-0.820541501045227,-3.601388931274414,-0.6818666458129883,7.22999999999989
-0.9574812650680542,-3.3788766860961914,-0.6795495748519897,7.23999999999989
-1.0970649719238281,-3.1020150184631348,-0.6769652366638184,7.24999999999989
-1.2969142198562622,-2.8762259483337402,-0.5899176597595215,7.25999999999989
-1.4544479846954346,-2.7446508407592773,-0.5470316410064697,7.269999999999889
-1.5580344200134277,-2.726388454437256,-0.5001428127288818,7.279999999999889
-1.6267609596252441,-2.752077579498291,-0.47539210319519043,7.289999999999889
-1.6844743490219116,-2.840850353240967,-0.43215107917785645,7.299999999999889
-1.6428920030593872,-2.9160971641540527,-0.44942522048950195,7.309999999999889
-1.6242551803588867,-3.0065226554870605,-0.4363136291503906,7.319999999999888
-1.5135035514831543,-3.203110694885254,-0.3376576900482178,7.329999999999888
-1.3749980926513672,-3.472473621368408,-0.1244206428527832,7.339999999999888
-1.2704694271087646,-3.8553318977355957,0.028896331787109375,7.349999999999888
-1.1395323276519775,-4.289408206939697,0.08864378929138184,7.3599999999998875
-1.0798840522766113,-4.599986553192139,0.030489444732666016,7.369999999999887
-1.0982683897018433,-4.873128414154053,-0.021811485290527344,7.379999999999887
-1.0529332160949707,-4.984403133392334,-0.06662321090698242,7.389999999999887
-0.9772735238075256,-5.141895294189453,-0.05902266502380371,7.399999999999887
-1.0225186347961426,-4.996189594268799,-0.006735801696777344,7.4099999999998865
-0.8971738219261169,-4.731683254241943,0.14989972114562988,7.419999999999886
-0.7854936718940735,-4.475224018096924,0.42738986015319824,7.429999999999886
-0.6114654541015625,-4.224344730377197,0.7635266780853271,7.439999999999886
-0.5481165647506714,-3.9358506202697754,1.0482163429260254,7.449999999999886
-0.5005840063095093,-3.616757869720459,1.1618151664733887,7.459999999999885
-0.44336211681365967,-3.348252773284912,1.2407827377319336,7.469999999999885
-0.40108275413513184,-3.1110777854919434,1.311633586883545,7.479999999999885
-0.328668475151062,-2.9267306327819824,1.357917070388794,7.489999999999885
-0.22423958778381348,-2.881131172180176,1.2839910984039307,7.4999999999998845
-0.018506765365600586,-2.7707152366638184,1.134967565536499,7.509999999999884
0.29626739025115967,-2.581108570098877,0.9795563220977783,7.519999999999884
0.6684185266494751,-2.3003997802734375,0.8719737529754639,7.529999999999884
1.1134535074234009,-1.7900795936584473,0.8475253582000732,7.539999999999884
1.505852222442627,-1.1317834854125977,0.735727071762085,7.5499999999998835
1.7675596475601196,-0.4045724868774414,0.5743095874786377,7.559999999999883
1.9424517154693604,0.4346179962158203,0.3958861827850342,7.569999999999883
1.9978402853012085,1.3380632400512695,0.2755751609802246,7.579999999999883
1.8747096061706543,2.3753652572631836,0.14931654930114746,7.589999999999883
1.5398818254470825,3.4917449951171875,0.14221954345703125,7.599999999999882
1.0426443815231323,4.639604568481445,0.4425034523010254,7.609999999999882
0.45549893379211426,5.572900772094727,0.9686009883880615,7.619999999999882
-0.09649527072906494,6.334961891174316,1.8098373413085938,7.629999999999882
-0.5209868550300598,6.707958221435547,2.992141008377075,7.6399999999998816
-0.8827459216117859,6.746590614318848,4.147518157958984,7.649999999999881
-1.169446349143982,6.541446685791016,4.953169822692871,7.659999999999881
-1.4308842420578003,6.178560256958008,5.360274314880371,7.669999999999881
-1.7074475288391113,5.605404853820801,5.584738731384277,7.679999999999881
-1.8200722932815552,4.738616943359375,5.8371076583862305,7.6899999999998805
-1.7738312482833862,3.777708053588867,5.521940231323242,7.69999999999988
-1.7886738777160645,3.1184844970703125,4.595150947570801,7.70999999999988
-1.8851101398468018,2.8981523513793945,3.30134654045105,7.71999999999988
-1.9278068542480469,3.0882349014282227,2.286046266555786,7.72999999999988
-2.294768810272217,3.8841915130615234,1.6838431358337402,7.739999999999879
-2.6950325965881348,5.169817924499512,1.2729661464691162,7.749999999999879
-2.7272326946258545,6.663582801818848,0.9188883304595947,7.759999999999879
-1.9391250610351562,8.074356079101562,0.4898207187652588,7.769999999999879
-0.7450498938560486,9.137301445007324,-0.20233869552612305,7.779999999999879
0.16034507751464844,9.97786808013916,-1.3244543075561523,7.789999999999878
0.621768593788147,10.226676940917969,-2.4825382232666016,7.799999999999878
0.521174430847168,9.59872817993164,-3.224494218826294,7.809999999999878
-0.04417002201080322,7.951082229614258,-3.6072537899017334,7.819999999999878
-1.0216166973114014,5.225969314575195,-3.845829963684082,7.8299999999998775
-1.9172450304031372,2.0698938369750977,-4.078896522521973,7.839999999999877
-2.365997314453125,-0.5751733779907227,-4.002429962158203,7.849999999999877
-2.351069927215576,-2.4125423431396484,-3.451981782913208,7.859999999999877
-2.1039445400238037,-3.562387466430664,-2.7883315086364746,7.869999999999877
-1.779760718345642,-4.170624256134033,-2.815335750579834,7.879999999999876
-1.457382321357727,-4.36121129989624,-3.3371469974517822,7.889999999999876
-0.8951333165168762,-4.33024787902832,-3.1498987674713135,7.899999999999876
-0.30411720275878906,-4.085068225860596,-2.2979233264923096,7.909999999999876
-0.006313443183898926,-3.506409168243408,-1.371902585029602,7.919999999999876
0.3511388301849365,-2.776704788208008,-0.7599931955337524,7.929999999999875
0.7417565584182739,-2.0569381713867188,-0.4358251094818115,7.939999999999875
1.1499677896499634,-1.2566967010498047,-0.4148540496826172,7.949999999999875
1.589004397392273,-0.38822078704833984,-0.5581340789794922,7.959999999999875
1.8042142391204834,0.5771551132202148,-0.8568633794784546,7.9699999999998745
2.0791568756103516,1.4265117645263672,-1.2710131406784058,7.979999999999874
2.19650936126709,2.1144046783447266,-1.601657509803772,7.989999999999874
