AccX,AccY,AccZ,SampleRate
-1.6056616306304932,1.6609745025634766,-2.415923833847046,0
-2.2169060707092285,0.945958137512207,-1.7784221172332764,0.01
-2.433614730834961,0.11854934692382812,-1.0998070240020752,0.02
-2.413158416748047,-0.7158689498901367,-0.5651248693466187,0.03
-2.209902286529541,-1.564509391784668,-0.23213839530944824,0.04
-2.0935921669006348,-2.31510066986084,-0.13182556629180908,0.05
-2.049360752105713,-2.8125553131103516,-0.05791473388671875,0.060000000000000005
-1.9187723398208618,-3.220045566558838,-0.1220465898513794,0.07
-1.8231329917907715,-3.461411476135254,-0.27561819553375244,0.08
-1.747636318206787,-3.5728559494018555,-0.5875585079193115,0.09
-1.7641897201538086,-3.516305446624756,-0.887803852558136,0.09999999999999999
-1.7416858673095703,-3.4162673950195312,-1.1787643432617188,0.10999999999999999
-1.7066727876663208,-3.215423107147217,-1.4125359058380127,0.11999999999999998
-1.6572813987731934,-3.023869037628174,-1.567528486251831,0.12999999999999998
-1.369030237197876,-2.7125329971313477,-1.6219035387039185,0.13999999999999999
-1.0836079120635986,-2.4609479904174805,-1.7619388103485107,0.15
-1.0037868022918701,-2.3886284828186035,-1.9515433311462402,0.16
-0.45644962787628174,-2.019639492034912,-2.0900919437408447,0.17
-0.15427368879318237,-1.779958724975586,-2.2495579719543457,0.18000000000000002
0.02733433246612549,-1.5641956329345703,-2.2720565795898438,0.19000000000000003
0.2629817724227905,-1.2169008255004883,-2.1336731910705566,0.20000000000000004
0.3612252473831177,-1.1542158126831055,-2.0213587284088135,0.21000000000000005
0.38686859607696533,-1.1653270721435547,-1.846911072731018,0.22000000000000006
0.39021795988082886,-1.1951045989990234,-1.6299314498901367,0.23000000000000007
0.2709696292877197,-1.3462963104248047,-1.4691270589828491,0.24000000000000007
0.5051047801971436,-1.1046504974365234,-1.1667201519012451,0.25000000000000006
0.4558470845222473,-0.8962059020996094,-0.9727224111557007,0.26000000000000006
0.4102802872657776,-0.7041730880737305,-0.7874094247817993,0.2700000000000001
0.30097347497940063,-0.3444385528564453,-0.5130761861801147,0.2800000000000001
0.21835535764694214,-0.02525615692138672,-0.2839714288711548,0.2900000000000001
0.2506241798400879,0.0883951187133789,-0.047522544860839844,0.3000000000000001
0.31624484062194824,-0.010440826416015625,0.12915894389152527,0.3100000000000001
0.3553365468978882,-0.19004249572753906,0.2365800142288208,0.3200000000000001
0.36768338084220886,-0.37384033203125,0.33722877502441406,0.3300000000000001
0.4321434497833252,-0.5618858337402344,0.35984092950820923,0.34000000000000014
0.6206310391426086,-0.6657676696777344,0.4272361099720001,0.35000000000000014
0.7801073789596558,-0.6928119659423828,0.55207359790802,0.36000000000000015
0.8530170917510986,-0.5761928558349609,0.6490132212638855,0.37000000000000016
1.0283271074295044,-0.5097799301147461,0.7545182704925537,0.38000000000000017
1.205745816230774,-0.4959230422973633,0.8282541036605835,0.3900000000000002
1.4165925979614258,-0.5489101409912109,0.898842990398407,0.4000000000000002
1.582099199295044,-0.5730257034301758,0.985264778137207,0.4100000000000002
1.7001030445098877,-0.4583244323730469,1.1352975368499756,0.4200000000000002
1.7011973857879639,-0.3771352767944336,1.3081724643707275,0.4300000000000002
1.664100170135498,-0.2457275390625,1.4631528854370117,0.4400000000000002
1.5909132957458496,-0.05938148498535156,1.5186232328414917,0.45000000000000023
1.497788906097412,0.17705154418945312,1.5317904949188232,0.46000000000000024
1.4177463054656982,0.40849971771240234,1.5669721364974976,0.47000000000000025
1.3051257133483887,0.611048698425293,1.7652952671051025,0.48000000000000026
1.2268493175506592,0.834925651550293,1.9925817251205444,0.49000000000000027
1.1759562492370605,1.120737075805664,2.2007243633270264,0.5000000000000002
1.1073882579803467,1.4181756973266602,2.4732396602630615,0.5100000000000002
1.1027206182479858,1.7630882263183594,2.7792587280273438,0.5200000000000002
1.0806571245193481,2.095635414123535,2.9709036350250244,0.5300000000000002
1.3328086137771606,2.391922950744629,2.7614753246307373,0.5400000000000003
1.7436398267745972,2.541996955871582,2.1439836025238037,0.5500000000000003
2.333902597427368,2.562774658203125,1.497062087059021,0.5600000000000003
2.8636043071746826,2.583531379699707,1.1375075578689575,0.5700000000000003
3.438051223754883,2.6377439498901367,1.0710351467132568,0.5800000000000003
4.005403995513916,2.6153831481933594,1.149795413017273,0.5900000000000003
4.377544403076172,2.4830684661865234,1.1653374433517456,0.6000000000000003
4.5354766845703125,2.3628740310668945,0.8990999460220337,0.6100000000000003
4.335467338562012,2.3910675048828125,0.3958553373813629,0.6200000000000003
4.100185394287109,2.698955535888672,-0.10815338790416718,0.6300000000000003
3.8648526668548584,3.2192344665527344,-0.45523881912231445,0.6400000000000003
3.2837843894958496,4.226606369018555,-0.408534973859787,0.6500000000000004
3.121664524078369,4.984004020690918,-0.4728531837463379,0.6600000000000004
2.815873622894287,5.475015640258789,-0.6893824338912964,0.6700000000000004
2.306715250015259,5.43697452545166,-1.3054558038711548,0.6800000000000004
1.431627631187439,5.004478454589844,-2.1212148666381836,0.6900000000000004
0.9253079891204834,4.068085670471191,-3.150153398513794,0.7000000000000004
0.4150314927101135,3.003904342651367,-3.6661765575408936,0.7100000000000004
-0.03125106915831566,2.111074447631836,-3.646688938140869,0.7200000000000004
-0.36193668842315674,1.4133920669555664,-2.953936815261841,0.7300000000000004
-0.726726770401001,1.0924434661865234,-1.9997986555099487,0.7400000000000004
-0.928834080696106,1.1885242462158203,-1.3653942346572876,0.7500000000000004
-1.0754157304763794,1.541041374206543,-1.3182411193847656,0.7600000000000005
-0.9246045351028442,2.0278921127319336,-1.8248927593231201,0.7700000000000005
-0.9642722606658936,2.4195728302001953,-2.510122299194336,0.7800000000000005
-1.3239293098449707,2.910116195678711,-2.9072539806365967,0.7900000000000005
-1.6591602563858032,3.3034534454345703,-3.0000829696655273,0.8000000000000005
-1.912656545639038,3.661844253540039,-2.936258316040039,0.8100000000000005
-2.2570347785949707,3.9445295333862305,-2.7699267864227295,0.8200000000000005
-2.6997315883636475,4.180047035217285,-2.7109603881835938,0.8300000000000005
-2.980029821395874,4.2103118896484375,-2.7232580184936523,0.8400000000000005
-3.2561354637145996,4.104608535766602,-2.709476947784424,0.8500000000000005
-3.5375609397888184,3.9011049270629883,-2.5996603965759277,0.8600000000000005
-3.80501389503479,3.6835060119628906,-2.3395533561706543,0.8700000000000006
-4.037073612213135,3.4925317764282227,-1.9068769216537476,0.8800000000000006
-4.272332191467285,3.3354949951171875,-1.3275679349899292,0.8900000000000006
-4.324544906616211,3.133692741394043,-0.6587229371070862,0.9000000000000006
-4.203875541687012,2.9185495376586914,-0.03845047950744629,0.9100000000000006
-4.00162935256958,2.6018428802490234,0.5345633029937744,0.9200000000000006
-3.6844983100891113,2.255631446838379,0.8013776540756226,0.9300000000000006
-3.29779052734375,1.8465909957885742,0.8552452325820923,0.9400000000000006
-2.771503448486328,1.4250354766845703,0.6437474489212036,0.9500000000000006
-2.128608465194702,0.9789638519287109,0.2725139856338501,0.9600000000000006
-1.4012384414672852,0.5034542083740234,-0.14557385444641113,0.9700000000000006
-0.8105812072753906,-0.016091346740722656,-0.5953434705734253,0.9800000000000006
-0.39165133237838745,-0.5129690170288086,-1.07339608669281,0.9900000000000007
-0.04797685146331787,-1.126145362854004,-1.5026161670684814,1.0000000000000007
0.14191687107086182,-1.78873872756958,-1.930396318435669,1.0100000000000007
0.4131077527999878,-2.515368938446045,-2.0283896923065186,1.0200000000000007
0.720655083656311,-3.327690601348877,-2.13399338722229,1.0300000000000007
0.9283424615859985,-3.993696689605713,-2.240298271179199,1.0400000000000007
1.0575199127197266,-4.506377696990967,-2.227947950363159,1.0500000000000007
1.1199705600738525,-4.853921413421631,-2.24080228805542,1.0600000000000007
1.1203937530517578,-5.103531837463379,-2.147228240966797,1.0700000000000007
1.0082623958587646,-5.181193828582764,-2.095579147338867,1.0800000000000007
0.9961221218109131,-5.177940845489502,-2.0021677017211914,1.0900000000000007
0.8967827558517456,-5.115367889404297,-1.7904133796691895,1.1000000000000008
0.7288031578063965,-4.917025089263916,-1.5487072467803955,1.1100000000000008
0.4751904010772705,-4.702760696411133,-1.3124723434448242,1.1200000000000008
0.2503162622451782,-4.4656195640563965,-1.0689929723739624,1.1300000000000008
-0.08776378631591797,-4.236835479736328,-0.884634256362915,1.1400000000000008
-0.3816847801208496,-3.975877285003662,-0.7468929290771484,1.1500000000000008
-0.7060713171958923,-3.709071636199951,-0.7514030933380127,1.1600000000000008
-0.8098864555358887,-3.5465054512023926,-0.7161462306976318,1.1700000000000008
-0.9686072468757629,-3.421126365661621,-0.6459472179412842,1.1800000000000008
-1.050855278968811,-3.3400888442993164,-0.5838887691497803,1.1900000000000008
-1.16706383228302,-3.202925205230713,-0.5179667472839355,1.2000000000000008
-1.2722184658050537,-3.083850860595703,-0.4504837989807129,1.2100000000000009
-1.3594441413879395,-3.0402002334594727,-0.4006621837615967,1.2200000000000009
-1.4027870893478394,-3.007297992706299,-0.38048744201660156,1.2300000000000009
-1.3736265897750854,-3.083118438720703,-0.3470950126647949,1.2400000000000009
-1.3341772556304932,-3.248347759246826,-0.3318061828613281,1.2500000000000009
-1.2218538522720337,-3.3833370208740234,-0.30844640731811523,1.260000000000001
-1.0911297798156738,-3.600557804107666,-0.2914755344390869,1.270000000000001
-0.9151479005813599,-3.83542537689209,-0.2545938491821289,1.280000000000001
-0.8345006704330444,-4.056842803955078,-0.21950149536132812,1.290000000000001
-0.6571842432022095,-4.3055243492126465,-0.12648558616638184,1.300000000000001
-0.5049314498901367,-4.555058479309082,-0.06437444686889648,1.310000000000001
-0.3319646716117859,-4.762310981750488,-0.007154941558837891,1.320000000000001
-0.293759822845459,-4.874561786651611,-6.628036499023438E-4,1.330000000000001
-0.3044074773788452,-4.762645721435547,-0.04034852981567383,1.340000000000001
-0.2658693194389343,-4.620394229888916,-0.12405037879943848,1.350000000000001
-0.20222675800323486,-4.416635036468506,-0.2926340103149414,1.360000000000001
-0.1449434757232666,-4.137002944946289,-0.39786624908447266,1.370000000000001
-0.13298505544662476,-3.850905418395996,-0.38704848289489746,1.380000000000001
-0.04763442277908325,-3.644461154937744,-0.22887372970581055,1.390000000000001
-0.011484384536743164,-3.326404094696045,-0.009080171585083008,1.400000000000001
0.053788602352142334,-2.990102767944336,0.17914509773254395,1.410000000000001
0.11239856481552124,-2.587714672088623,0.2830996513366699,1.420000000000001
0.26299214363098145,-2.1001620292663574,0.4413411617279053,1.430000000000001
0.417691707611084,-1.5106244087219238,0.5646054744720459,1.440000000000001
0.615510880947113,-0.8308792114257812,0.5705559253692627,1.450000000000001
0.8232274651527405,-0.060601234436035156,0.45077991485595703,1.460000000000001
0.9262709617614746,0.7407627105712891,0.31160998344421387,1.470000000000001
0.9176052212715149,1.6141929626464844,0.21883845329284668,1.480000000000001
0.8094534277915955,2.5193910598754883,0.1374835968017578,1.490000000000001
0.5733955502510071,3.4806528091430664,0.1976318359375,1.500000000000001
0.2952927350997925,4.337719917297363,0.6501796245574951,1.5100000000000011
-0.09085005521774292,5.038191795349121,1.0739636421203613,1.5200000000000011
-0.4242151081562042,5.587453842163086,1.2483210563659668,1.5300000000000011
-0.6298561096191406,5.945111274719238,1.6783440113067627,1.5400000000000011
-0.6487429738044739,6.077341079711914,2.552222967147827,1.5500000000000012
-0.4974342882633209,5.959458351135254,3.7529890537261963,1.5600000000000012
-0.6106858849525452,5.758066177368164,4.86966609954834,1.5700000000000012
-0.716929018497467,5.462848663330078,5.631994247436523,1.5800000000000012
-0.7458922266960144,4.88692569732666,6.041524410247803,1.5900000000000012
-0.7708762884140015,3.9945478439331055,6.154056072235107,1.6000000000000012
-0.7934513688087463,2.9823808670043945,5.785001754760742,1.6100000000000012
-0.896355152130127,2.0836029052734375,4.79768180847168,1.6200000000000012
-1.275296926498413,1.5414924621582031,3.153927803039551,1.6300000000000012
-1.9097094535827637,1.4792814254760742,1.4096567630767822,1.6400000000000012
-2.9530434608459473,1.851792335510254,0.08011674880981445,1.6500000000000012
-3.8640780448913574,2.835386276245117,-0.8366165161132812,1.6600000000000013
-4.202170372009277,4.70135498046875,-1.6119848489761353,1.6700000000000013
-3.669240713119507,7.177399635314941,-2.1623764038085938,1.6800000000000013
-2.5542523860931396,9.680274963378906,-2.675711154937744,1.6900000000000013
-1.0841875076293945,11.791369438171387,-3.372955083847046,1.7000000000000013
0.29837632179260254,13.600564956665039,-4.235551834106445,1.7100000000000013
1.2777247428894043,14.736198425292969,-5.3248515129089355,1.7200000000000013
1.1999449729919434,14.159669876098633,-5.901032447814941,1.7300000000000013
-0.08708089590072632,11.602365493774414,-6.270310401916504,1.7400000000000013
-2.383232593536377,7.376893997192383,-6.809772968292236,1.7500000000000013
-4.3371968269348145,3.324474334716797,-6.60209846496582,1.7600000000000013
-5.60800838470459,0.11990165710449219,-5.613860130310059,1.7700000000000014
-5.39646577835083,-2.4362497329711914,-4.269711971282959,1.7800000000000014
-4.1247100830078125,-3.959306240081787,-3.0472843647003174,1.7900000000000014
-2.870046615600586,-4.738846778869629,-2.056212902069092,1.8000000000000014
-1.893139362335205,-4.906364917755127,-1.3193117380142212,1.8100000000000014
-1.1867845058441162,-4.864006519317627,-0.7788317203521729,1.8200000000000014
-0.9912949204444885,-4.557078838348389,-0.5867457389831543,1.8300000000000014
-0.9864445924758911,-4.0506439208984375,-0.8185005187988281,1.8400000000000014
-0.6174881458282471,-3.529345989227295,-1.174243688583374,1.8500000000000014
-0.18907701969146729,-2.893209934234619,-1.5768563747406006,1.8600000000000014
0.816799521446228,-2.112013339996338,-1.9586423635482788,1.8700000000000014
1.5550940036773682,-1.298874855041504,-2.311941623687744,1.8800000000000014
1.9875457286834717,-0.5067367553710938,-2.6699461936950684,1.8900000000000015
2.222710609436035,0.2330608367919922,-2.8095483779907227,1.9000000000000015
2.411529064178467,0.5257062911987305,-2.940236806869507,1.9100000000000015
2.486846923828125,0.5888557434082031,-2.961998224258423,1.9200000000000015
2.348153591156006,0.4105215072631836,-3.1339480876922607,1.9300000000000015
1.8667206764221191,0.08912277221679688,-3.5225090980529785,1.9400000000000015
1.0303454399108887,-0.13303279876708984,-3.805872917175293,1.9500000000000015
-0.0641602873802185,-0.2120523452758789,-3.9315409660339355,1.9600000000000015
-1.3804149627685547,-0.19739151000976562,-3.8088576793670654,1.9700000000000015
-2.5760669708251953,-0.19603729248046875,-3.4449260234832764,1.9800000000000015
-3.2821598052978516,-0.24582481384277344,-2.8676533699035645,1.9900000000000015
-3.445352077484131,-0.4134397506713867,-2.1044509410858154,2.0000000000000013
-3.1145100593566895,-0.7537345886230469,-1.273037075996399,2.010000000000001
-2.4621078968048096,-1.173426628112793,-0.4999206066131592,2.020000000000001
-1.8918863534927368,-1.6559553146362305,0.12722015380859375,2.0300000000000007
-1.4720373153686523,-2.156055450439453,0.3556971549987793,2.0400000000000005
-1.0865167379379272,-2.618864059448242,0.33205950260162354,2.0500000000000003
-0.9733271598815918,-3.1138534545898438,0.07322514057159424,2.06
-0.7868393063545227,-3.468926429748535,-0.1550581455230713,2.07
-0.9645381569862366,-3.892333984375,-0.49378180503845215,2.0799999999999996
-0.7816157341003418,-4.063664436340332,-0.8274147510528564,2.0899999999999994
-0.9490622282028198,-4.1912713050842285,-1.2703964710235596,2.099999999999999
-0.6995639801025391,-4.253625392913818,-1.7245547771453857,2.109999999999999
-0.5126132965087891,-4.021227836608887,-2.168093681335449,2.1199999999999988
-0.11115342378616333,-3.5494508743286133,-2.4403157234191895,2.1299999999999986
0.3512004017829895,-2.941390037536621,-2.725308656692505,2.1399999999999983
0.6349843740463257,-2.2903976440429688,-2.9874229431152344,2.149999999999998
0.8357053995132446,-1.6753530502319336,-2.9545300006866455,2.159999999999998
1.0755102634429932,-1.0483436584472656,-2.6251885890960693,2.1699999999999977
1.081831932067871,-0.6627998352050781,-2.2134363651275635,2.1799999999999975
0.9870319366455078,-0.4801778793334961,-1.7896857261657715,2.1899999999999973
0.8659820556640625,-0.258758544921875,-1.4244952201843262,2.199999999999997
0.6640042066574097,-0.11102104187011719,-1.1572341918945312,2.209999999999997
0.49829965829849243,-0.06083106994628906,-0.8025416731834412,2.2199999999999966
0.327881395816803,-0.12966346740722656,-0.23701216280460358,2.2299999999999964
0.20271313190460205,-0.2696371078491211,0.4143736958503723,2.239999999999996
0.1754995584487915,-0.53338623046875,0.962472677230835,2.249999999999996
0.3276761770248413,-0.7797946929931641,1.2903155088424683,2.259999999999996
0.6332069039344788,-1.090291976928711,1.3722174167633057,2.2699999999999956
1.0707166194915771,-1.397933006286621,1.3048326969146729,2.2799999999999954
1.4920654296875,-1.590402603149414,1.2065140008926392,2.289999999999995
1.911811351776123,-1.6535406112670898,1.0762169361114502,2.299999999999995
2.387512683868408,-1.6186199188232422,1.0399634838104248,2.3099999999999947
2.8046481609344482,-1.488180160522461,0.9821130633354187,2.3199999999999945
2.9673972129821777,-1.2647371292114258,0.9274916648864746,2.3299999999999943
2.991138219833374,-0.9723234176635742,0.8741745352745056,2.339999999999994
3.368840217590332,-0.35756587982177734,0.8840660452842712,2.349999999999994
3.054579734802246,-0.06164073944091797,0.6601038575172424,2.3599999999999937
2.8481557369232178,0.11430931091308594,0.5227870941162109,2.3699999999999934
2.5703136920928955,0.36651039123535156,0.48147451877593994,2.3799999999999932
2.10119366645813,0.5920839309692383,0.4904800057411194,2.389999999999993
1.687140703201294,0.7121801376342773,0.5806080102920532,2.399999999999993
1.0475976467132568,0.6098165512084961,0.7493764162063599,2.4099999999999926
0.34253522753715515,0.6176671981811523,1.0925763845443726,2.4199999999999924
-0.31821882724761963,0.6375761032104492,1.3539048433303833,2.429999999999992
-0.9709213972091675,0.7173604965209961,1.6217607259750366,2.439999999999992
-1.5105476379394531,0.7756490707397461,1.9581663608551025,2.4499999999999917
-1.8202013969421387,0.8387746810913086,2.2937028408050537,2.4599999999999915
-1.9218785762786865,0.7943477630615234,2.4872474670410156,2.4699999999999913
-1.7781156301498413,0.8074808120727539,2.4619970321655273,2.479999999999991
-1.349195957183838,0.916346549987793,2.3302674293518066,2.489999999999991
-0.5783917903900146,1.1614599227905273,2.2882442474365234,2.4999999999999907
0.3788737654685974,1.566544532775879,2.3840789794921875,2.5099999999999905
1.341072678565979,1.8851127624511719,2.455547571182251,2.5199999999999902
2.1410176753997803,2.0287952423095703,2.43109130859375,2.52999999999999
2.836393356323242,2.0097475051879883,2.305783271789551,2.53999999999999
3.4298994541168213,1.9500999450683594,2.1679046154022217,2.5499999999999896
3.948289632797241,1.931182861328125,2.1319034099578857,2.5599999999999894
4.458710670471191,2.0653114318847656,2.1735236644744873,2.569999999999989
4.793832302093506,2.2351274490356445,2.144380569458008,2.579999999999989
5.073456764221191,2.2660303115844727,1.9919774532318115,2.5899999999999888
5.050792694091797,2.35186767578125,1.6566503047943115,2.5999999999999885
4.810887336730957,2.4734344482421875,1.3466776609420776,2.6099999999999883
4.362259864807129,2.6593494415283203,0.9349961876869202,2.619999999999988
3.8382723331451416,3.0362348556518555,0.457226037979126,2.629999999999988
3.2047624588012695,3.5727367401123047,0.09228673577308655,2.6399999999999877
2.515251398086548,4.074921607971191,-0.5487215518951416,2.6499999999999875
1.4440264701843262,4.6169328689575195,-1.119842529296875,2.6599999999999873
0.5894095301628113,4.672679901123047,-1.9307280778884888,2.669999999999987
-0.6542781591415405,4.455636978149414,-2.5389962196350098,2.679999999999987
-1.5994131565093994,3.8012609481811523,-2.698147773742676,2.6899999999999866
-2.0726981163024902,2.8895225524902344,-2.8944852352142334,2.6999999999999864
-2.434211492538452,2.055588722229004,-2.7290868759155273,2.709999999999986
-2.776082992553711,1.426203727722168,-2.1255929470062256,2.719999999999986
-2.721956968307495,1.1494636535644531,-1.677699327468872,2.7299999999999858
-2.683194637298584,1.1939659118652344,-1.3837761878967285,2.7399999999999856
-2.4658381938934326,1.4351282119750977,-1.4312795400619507,2.7499999999999853
-2.1413915157318115,1.6218347549438477,-1.7558256387710571,2.759999999999985
-1.4987900257110596,1.7519559860229492,-2.2825419902801514,2.769999999999985
-0.9465546607971191,1.8161592483520508,-2.8328065872192383,2.7799999999999847
-0.764612078666687,2.0107059478759766,-3.162628412246704,2.7899999999999845
-0.7715949416160583,2.4502344131469727,-3.3459279537200928,2.7999999999999843
-0.8030337691307068,3.139164924621582,-3.5309629440307617,2.809999999999984
-0.9050725698471069,3.859450340270996,-3.5144777297973633,2.819999999999984
-1.0926079750061035,4.47457218170166,-3.2732906341552734,2.8299999999999836
-1.3805670738220215,4.97012996673584,-2.796781063079834,2.8399999999999834
-1.7165955305099487,5.262432098388672,-2.170788049697876,2.849999999999983
-2.100180149078369,5.41617488861084,-1.5560102462768555,2.859999999999983
-2.398806571960449,5.460147857666016,-1.0059772729873657,2.869999999999983
-2.7480309009552,5.349058151245117,-0.4717003107070923,2.8799999999999826
-3.1806793212890625,5.142942428588867,-0.04308438301086426,2.8899999999999824
-3.4957380294799805,4.839673042297363,0.21634018421173096,2.899999999999982
-3.6554009914398193,4.288924217224121,0.37249112129211426,2.909999999999982
-3.617079257965088,3.593963623046875,0.39853334426879883,2.9199999999999817
-3.479248046875,2.8196516036987305,0.29420793056488037,2.9299999999999815
-3.117481231689453,2.059408187866211,-3.6728382110595703E-4,2.9399999999999813
-2.5838634967803955,1.253396987915039,-0.3296010494232178,2.949999999999981
-1.9130398035049438,0.4804248809814453,-0.5188323259353638,2.959999999999981
-1.3788957595825195,-0.2693204879760742,-0.7233909368515015,2.9699999999999807
-0.9634979367256165,-0.9937276840209961,-0.9332139492034912,2.9799999999999804
-0.7546029090881348,-1.7121562957763672,-1.2507286071777344,2.9899999999999802
-0.6129007339477539,-2.3793020248413086,-1.7020378112792969,2.99999999999998
-0.3966825008392334,-3.143728256225586,-1.8417315483093262,3.00999999999998
-0.13154387474060059,-3.809586524963379,-1.8799469470977783,3.0199999999999796
0.1327371597290039,-4.365255355834961,-2.022223949432373,3.0299999999999794
0.3386794328689575,-4.837224006652832,-2.122621774673462,3.039999999999979
0.39025580883026123,-5.137129783630371,-2.157214641571045,3.049999999999979
0.5316364765167236,-5.303479194641113,-2.169234275817871,3.0599999999999787
0.6093847751617432,-5.279060363769531,-2.1323280334472656,3.0699999999999785
0.6684359312057495,-5.224240303039551,-2.063317060470581,3.0799999999999783
0.7560198307037354,-5.1605544090271,-1.883105754852295,3.089999999999978
0.7089740037918091,-5.00439977645874,-1.6152288913726807,3.099999999999978
0.5007311105728149,-4.787010669708252,-1.4364434480667114,3.1099999999999777
0.3030930757522583,-4.632900714874268,-1.2719590663909912,3.1199999999999775
0.005194664001464844,-4.424877166748047,-1.1045262813568115,3.1299999999999772
-0.2958172559738159,-4.258678913116455,-0.8810780048370361,3.139999999999977
-0.6272714734077454,-4.0027313232421875,-0.7209537029266357,3.149999999999977
-0.9275714159011841,-3.7647814750671387,-0.6143045425415039,3.1599999999999766
-1.1805105209350586,-3.566354274749756,-0.541832447052002,3.1699999999999764
-1.2285380363464355,-3.4600577354431152,-0.47953271865844727,3.179999999999976
-1.3423069715499878,-3.3262343406677246,-0.5015788078308105,3.189999999999976
-1.4047613143920898,-3.2605772018432617,-0.543344259262085,3.1999999999999758
-1.4975332021713257,-3.2296252250671387,-0.49457621574401855,3.2099999999999755
-1.5154638290405273,-3.187997817993164,-0.4460780620574951,3.2199999999999753
-1.506477952003479,-3.2505288124084473,-0.405010461807251,3.229999999999975
-1.4898402690887451,-3.307136058807373,-0.40717434883117676,3.239999999999975
-1.4822676181793213,-3.4439144134521484,-0.41910815238952637,3.2499999999999747
-1.3685964345932007,-3.6774916648864746,-0.4577505588531494,3.2599999999999745
-1.2202810049057007,-3.9885964393615723,-0.47547388076782227,3.2699999999999743
-1.0678987503051758,-4.398641109466553,-0.484494686126709,3.279999999999974
-0.9108088612556458,-4.790310382843018,-0.4038119316101074,3.289999999999974
-0.7124375104904175,-5.1707963943481445,-0.32702064514160156,3.2999999999999736
-0.6015260219573975,-5.425283432006836,-0.1874244213104248,3.3099999999999734
-0.6760424375534058,-5.4055609703063965,-0.07861948013305664,3.319999999999973
-0.7491958737373352,-5.264826774597168,-0.027324438095092773,3.329999999999973
-0.7996129989624023,-5.093921661376953,-0.01710677146911621,3.3399999999999728
-0.8301471471786499,-4.885532855987549,0.013947010040283203,3.3499999999999726
-0.7574694156646729,-4.675469875335693,-0.013241291046142578,3.3599999999999723
-0.6419297456741333,-4.458808422088623,-0.01752471923828125,3.369999999999972
-0.4886794090270996,-4.221153736114502,-0.006135463714599609,3.379999999999972
-0.2357843518257141,-3.9289722442626953,0.07096004486083984,3.3899999999999717
0.10507214069366455,-3.596681594848633,0.17771482467651367,3.3999999999999715
0.41678929328918457,-3.0999059677124023,0.24445223808288574,3.4099999999999713
0.6997337937355042,-2.357328414916992,0.16520261764526367,3.419999999999971
0.9471690058708191,-1.3976187705993652,-0.13996028900146484,3.429999999999971
1.09018874168396,-0.2614927291870117,-0.28661680221557617,3.4399999999999706
1.2105798721313477,0.9362192153930664,-0.256542444229126,3.4499999999999704
1.2558469772338867,2.1239776611328125,-0.15616726875305176,3.45999999999997
1.1826364994049072,3.2043962478637695,-0.19569921493530273,3.46999999999997
0.7267831563949585,4.338476181030273,-0.20476555824279785,3.47999999999997
0.1567785143852234,5.380626678466797,0.22966933250427246,3.4899999999999696
-0.5150256156921387,6.429155349731445,0.9564359188079834,3.4999999999999694
-1.1324645280838013,7.292508125305176,2.0578455924987793,3.509999999999969
-1.4017751216888428,7.872114181518555,3.4978744983673096,3.519999999999969
-1.2574801445007324,7.741830825805664,4.750300407409668,3.5299999999999687
-1.3277864456176758,7.459071159362793,5.467965602874756,3.5399999999999685
-1.4870606660842896,7.277417182922363,5.615622520446777,3.5499999999999683
-1.6958152055740356,7.161445617675781,5.141655921936035,3.559999999999968
-2.1202707290649414,7.119253158569336,4.361394882202148,3.569999999999968
-2.658792018890381,7.273860931396484,3.252326250076294,3.5799999999999677
-3.167205572128296,7.872405052185059,2.043630599975586,3.5899999999999674
-3.609738349914551,8.95090389251709,1.0997817516326904,3.5999999999999672
-3.946770668029785,10.494490623474121,0.4405205249786377,3.609999999999967
-3.9095077514648438,12.277168273925781,-0.13457727432250977,3.619999999999967
-3.163702964782715,14.021636962890625,-0.504378080368042,3.6299999999999666
-1.758987307548523,15.265057563781738,-0.5968356132507324,3.6399999999999664
-0.6231468915939331,15.54181957244873,-0.8690969944000244,3.649999999999966
-0.24687695503234863,14.488487243652344,-1.704573392868042,3.659999999999966
-0.8602703809738159,11.7998046875,-2.70626163482666,3.6699999999999657
-2.3212389945983887,7.295712471008301,-3.4673869609832764,3.6799999999999655
-3.5696473121643066,2.760561943054199,-3.7855608463287354,3.6899999999999653
-4.047676086425781,-1.1934843063354492,-3.5103726387023926,3.699999999999965
-3.902698516845703,-4.185939311981201,-2.792128086090088,3.709999999999965
-3.4153802394866943,-6.363370895385742,-2.364938259124756,3.7199999999999647
-2.837092399597168,-7.836223125457764,-2.4690823554992676,3.7299999999999645
-2.1616125106811523,-8.700338363647461,-2.7779479026794434,3.7399999999999642
-1.4406269788742065,-9.276000022888184,-3.350818395614624,3.749999999999964
-0.7163331508636475,-9.404881477355957,-3.9169907569885254,3.759999999999964
-0.24414598941802979,-9.063054084777832,-3.9827961921691895,3.7699999999999636
0.0967247486114502,-8.24891185760498,-3.562323570251465,3.7799999999999634
0.8686999082565308,-7.207822322845459,-2.914320945739746,3.789999999999963
2.015554904937744,-5.931510925292969,-2.3784592151641846,3.799999999999963
2.96201229095459,-4.533194541931152,-2.187657117843628,3.8099999999999627
3.503281354904175,-3.077648639678955,-2.334207534790039,3.8199999999999625
3.669271230697632,-1.4811501502990723,-2.600604295730591,3.8299999999999623
3.9666476249694824,0.15093135833740234,-2.745769739151001,3.839999999999962
4.447029113769531,1.8302316665649414,-2.6952574253082275,3.849999999999962
4.711054801940918,3.640048027038574,-2.428851842880249,3.8599999999999617
4.630708694458008,4.853261947631836,-2.426208972930908,3.8699999999999615
3.789515972137451,5.528092384338379,-2.494257688522339,3.8799999999999613
2.502911329269409,5.170733451843262,-2.8264620304107666,3.889999999999961
0.8622477054595947,3.8452959060668945,-3.1366655826568604,3.899999999999961
-0.6446852684020996,2.091459274291992,-3.043729782104492,3.9099999999999606
-1.7556142807006836,0.49088478088378906,-2.6327545642852783,3.9199999999999604
-2.440070390701294,-0.8155403137207031,-2.0651533603668213,3.92999999999996
-2.8979721069335938,-1.8735437393188477,-1.4423861503601074,3.93999999999996
-3.155498504638672,-2.621122360229492,-0.9590399265289307,3.9499999999999598
-3.3402137756347656,-3.0919246673583984,-0.6468777656555176,3.9599999999999596
-3.398397445678711,-3.369821548461914,-0.4703090190887451,3.9699999999999593
-3.3505442142486572,-3.4693355560302734,-0.3311479091644287,3.979999999999959
-3.2647387981414795,-3.419435501098633,-0.2479482889175415,3.989999999999959
-3.0505621433258057,-3.3136649131774902,-0.21043109893798828,3.9999999999999587
-2.7989327907562256,-3.135478973388672,-0.20595669746398926,4.009999999999959
-2.4156887531280518,-3.1241636276245117,-0.32048463821411133,4.019999999999959
-2.038543701171875,-3.1337032318115234,-0.5445036292076111,4.0299999999999585
-1.8413739204406738,-3.2907800674438477,-0.8688495755195618,4.039999999999958
-1.627324104309082,-3.1982975006103516,-1.2387105226516724,4.049999999999958
-1.3726997375488281,-3.239072799682617,-1.6211493015289307,4.059999999999958
-1.144765019416809,-3.1403579711914062,-1.8033535480499268,4.069999999999958
-0.878670871257782,-2.84262752532959,-1.91910719871521,4.079999999999957
-0.7986839413642883,-2.47774076461792,-2.089923858642578,4.089999999999957
-0.3609696626663208,-1.8019661903381348,-2.282076835632324,4.099999999999957
-0.3265095353126526,-1.3368949890136719,-2.565519094467163,4.109999999999957
-0.6042284965515137,-1.0224428176879883,-2.6776723861694336,4.119999999999957
-0.3543831706047058,-0.3013181686401367,-2.3868906497955322,4.129999999999956
-0.307282954454422,0.010618209838867188,-2.007438898086548,4.139999999999956
-0.2642778754234314,0.10515022277832031,-1.5566786527633667,4.149999999999956
-0.18699011206626892,0.037499427795410156,-1.0710688829421997,4.159999999999956
-0.003439962863922119,-0.1013336181640625,-0.5943216681480408,4.1699999999999555
0.24355757236480713,-0.28982067108154297,-0.08634573966264725,4.179999999999955
0.5231021642684937,-0.43233489990234375,0.45240518450737,4.189999999999955
0.6701363325119019,-0.4357471466064453,0.8925530314445496,4.199999999999955
0.8616742491722107,-0.45331859588623047,1.2268784046173096,4.209999999999955
1.1093776226043701,-0.5113773345947266,1.3646421432495117,4.2199999999999545
1.3577947616577148,-0.5477304458618164,1.2965707778930664,4.229999999999954
1.5922777652740479,-0.5265665054321289,1.1834875345230103,4.239999999999954
1.9777642488479614,-0.5986099243164062,1.1077790260314941,4.249999999999954
2.3729166984558105,-0.7183218002319336,1.0206130743026733,4.259999999999954
2.433244228363037,-0.8856172561645508,0.8568684458732605,4.269999999999953
3.1615519523620605,-0.693934440612793,0.9770863652229309,4.279999999999953
3.253674030303955,-0.8514528274536133,0.7863436937332153,4.289999999999953
3.2438151836395264,-0.9990415573120117,0.7538992166519165,4.299999999999953
3.132387638092041,-1.0769309997558594,0.7522057294845581,4.3099999999999525
2.9029860496520996,-1.061295509338379,0.9001351594924927,4.319999999999952
2.632772445678711,-1.0957422256469727,1.0505053997039795,4.329999999999952
2.3315937519073486,-1.0439462661743164,1.1399760246276855,4.339999999999952
1.8750135898590088,-0.934722900390625,1.2634881734848022,4.349999999999952
1.4924503564834595,-0.8327245712280273,1.1978092193603516,4.3599999999999515
1.0949029922485352,-0.6184234619140625,1.0833107233047485,4.369999999999951
0.7485805153846741,-0.3326234817504883,0.9771567583084106,4.379999999999951
0.5196967124938965,-0.0997467041015625,0.9537888765335083,4.389999999999951
0.2998550832271576,0.11137104034423828,1.016096591949463,4.399999999999951
0.13372987508773804,0.35098934173583984,1.167166829109192,4.40999999999995
-0.05134524777531624,0.5975618362426758,1.4601497650146484,4.41999999999995
-0.0955701619386673,0.853449821472168,1.789963960647583,4.42999999999995
-0.03269025683403015,1.1353445053100586,2.108665704727173,4.43999999999995
0.19953981041908264,1.3666658401489258,2.432934522628784,4.4499999999999496
0.5825599431991577,1.5020370483398438,2.8417418003082275,4.459999999999949
0.9157605767250061,1.584615707397461,3.277759552001953,4.469999999999949
1.4216649532318115,1.6120491027832031,3.5828561782836914,4.479999999999949
2.0141665935516357,1.644150733947754,3.4817404747009277,4.489999999999949
2.640303373336792,1.6545419692993164,2.866394519805908,4.4999999999999485
3.1680514812469482,1.8129491806030273,2.0832040309906006,4.509999999999948
3.6449270248413086,2.1311168670654297,1.538722276687622,4.519999999999948
4.15949821472168,2.494129180908203,1.2169944047927856,4.529999999999948
4.589743614196777,2.837465286254883,0.9019433856010437,4.539999999999948
4.7513747215271,3.154054641723633,0.3155214190483093,4.549999999999947
4.706117630004883,3.434384346008301,-0.49314984679222107,4.559999999999947
4.125882148742676,3.7836952209472656,-0.9497432112693787,4.569999999999947
3.9699549674987793,4.249700546264648,-1.1412198543548584,4.579999999999947
3.7068064212799072,4.9469804763793945,-1.0640993118286133,4.589999999999947
3.2099006175994873,5.332426071166992,-0.9566543102264404,4.599999999999946
2.620882511138916,5.537909507751465,-1.013776421546936,4.609999999999946
1.631364345550537,5.444090843200684,-1.2957799434661865,4.619999999999946
0.8991818428039551,4.958101272583008,-1.9894015789031982,4.629999999999946
0.059527188539505005,4.513238906860352,-2.84104585647583,4.6399999999999455
-0.09564382582902908,3.8871240615844727,-3.590367317199707,4.649999999999945
-0.19987136125564575,3.2354345321655273,-4.166928768157959,4.659999999999945
-0.3528202474117279,2.682549476623535,-4.450908660888672,4.669999999999945
-0.5463249683380127,2.228384017944336,-4.310460567474365,4.679999999999945
-0.9254539012908936,1.9829072952270508,-3.7131636142730713,4.689999999999944
-1.5183000564575195,2.03926944732666,-2.9534459114074707,4.699999999999944
-2.056033134460449,2.3900794982910156,-2.464259624481201,4.709999999999944
-2.5594418048858643,2.8629722595214844,-2.2620646953582764,4.719999999999944
-3.111560583114624,3.2642898559570312,-2.128882646560669,4.729999999999944
-3.4821934700012207,3.6014862060546875,-1.970691204071045,4.739999999999943
-3.7500410079956055,3.803071975708008,-1.7835512161254883,4.749999999999943
-4.056289196014404,3.902806282043457,-1.5889503955841064,4.759999999999943
-4.343686580657959,3.8290843963623047,-1.4386959075927734,4.769999999999943
-4.612771987915039,3.6537609100341797,-1.408689260482788,4.7799999999999425
-4.71861457824707,3.3576745986938477,-1.443718671798706,4.789999999999942
-4.700033664703369,2.959871292114258,-1.525120496749878,4.799999999999942
-4.657756805419922,2.5463428497314453,-1.6138684749603271,4.809999999999942
-4.55845308303833,2.16241455078125,-1.5813381671905518,4.819999999999942
-4.514855861663818,1.8080377578735352,-1.3644130229949951,4.8299999999999415
-4.302300453186035,1.5501880645751953,-0.969660758972168,4.839999999999941
-4.083736896514893,1.3649406433105469,-0.42513543367385864,4.849999999999941
-3.7516112327575684,1.1638545989990234,0.08839118480682373,4.859999999999941
-3.293909788131714,0.9757938385009766,0.43326079845428467,4.869999999999941
-2.784722328186035,0.6885414123535156,0.582048773765564,4.87999999999994
-2.255023717880249,0.3884849548339844,0.4502549171447754,4.88999999999994
-1.6427302360534668,0.05903816223144531,0.17658209800720215,4.89999999999994
-1.0240428447723389,-0.32605838775634766,-0.1572256088256836,4.90999999999994
-0.32398808002471924,-0.7141923904418945,-0.517287015914917,4.9199999999999395
0.25960659980773926,-1.062434196472168,-0.8695270419120789,4.929999999999939
0.7758588790893555,-1.5098628997802734,-1.0953965187072754,4.939999999999939
0.8981145620346069,-1.8032865524291992,-1.4278912544250488,4.949999999999939
1.1224701404571533,-2.3616695404052734,-1.6172906160354614,4.959999999999939
1.4350690841674805,-2.974459648132324,-1.7760143280029297,4.9699999999999385
1.587700605392456,-3.515003204345703,-1.8372859954833984,4.979999999999938
1.7193183898925781,-4.076743125915527,-1.748595952987671,4.989999999999938
1.717673659324646,-4.4421491622924805,-1.6105706691741943,4.999999999999938
1.6500554084777832,-4.743046283721924,-1.638568639755249,5.009999999999938
1.487687587738037,-4.812130451202393,-1.6460368633270264,5.019999999999937
1.304532766342163,-4.845701694488525,-1.559128761291504,5.029999999999937
1.1453895568847656,-4.788821697235107,-1.2580755949020386,5.039999999999937
0.7460774183273315,-4.562694072723389,-0.9602422714233398,5.049999999999937
0.2656518220901489,-4.181899070739746,-0.691214919090271,5.0599999999999365
-0.06504833698272705,-3.8163914680480957,-0.4888150691986084,5.069999999999936
-0.3903385400772095,-3.3801674842834473,-0.38360118865966797,5.079999999999936
-0.6413944363594055,-2.9307708740234375,-0.35369873046875,5.089999999999936
-0.7851748466491699,-2.542471408843994,-0.3173704147338867,5.099999999999936
-0.9512941241264343,-2.253570556640625,-0.21694517135620117,5.1099999999999355
-1.118530511856079,-1.8584470748901367,-0.07845807075500488,5.119999999999935
-1.291930079460144,-1.47684907913208,0.02636575698852539,5.129999999999935
-1.3997633457183838,-1.3742122650146484,0.12378787994384766,5.139999999999935
-1.4464452266693115,-1.4593772888183594,0.23034262657165527,5.149999999999935
-1.6496483087539673,-1.464268684387207,0.27164483070373535,5.159999999999934
-1.7269713878631592,-1.4750046730041504,0.264174222946167,5.169999999999934
-1.701904535293579,-1.6852946281433105,0.32256126403808594,5.179999999999934
-1.6530053615570068,-1.9945406913757324,0.42039036750793457,5.189999999999934
-1.567955493927002,-2.409820556640625,0.4977102279663086,5.199999999999934
-1.4799619913101196,-2.90476655960083,0.6191468238830566,5.209999999999933
-1.2930552959442139,-3.3884387016296387,0.724783182144165,5.219999999999933
-1.1147657632827759,-3.8751955032348633,0.8264970779418945,5.229999999999933
-0.9401225447654724,-4.4080657958984375,0.9146463871002197,5.239999999999933
-0.7137985825538635,-4.845810413360596,0.9457941055297852,5.2499999999999325
-0.46437501907348633,-5.231417179107666,0.912299633026123,5.259999999999932
-0.25631749629974365,-5.50502872467041,0.8185887336730957,5.269999999999932
-0.14943033456802368,-5.53038215637207,0.7338290214538574,5.279999999999932
-0.04356241226196289,-5.427295684814453,0.7154409885406494,5.289999999999932
0.08000195026397705,-5.35850715637207,0.7443516254425049,5.299999999999931
0.3306248188018799,-5.271279335021973,0.7463672161102295,5.309999999999931
0.4419480562210083,-5.132087707519531,0.6737806797027588,5.319999999999931
0.5854408740997314,-5.0126190185546875,0.6055834293365479,5.329999999999931
0.7651855945587158,-4.888940811157227,0.5061612129211426,5.339999999999931
0.9089194536209106,-4.713195323944092,0.4449460506439209,5.34999999999993
1.1146879196166992,-4.518985271453857,0.43408966064453125,5.35999999999993
1.3323616981506348,-4.246652126312256,0.5144708156585693,5.36999999999993
1.5267205238342285,-3.893953323364258,0.5520823001861572,5.37999999999993
1.6673873662948608,-3.3603272438049316,0.40262269973754883,5.3899999999999295
1.7147741317749023,-2.669536590576172,0.08155059814453125,5.399999999999929
1.7441565990447998,-1.885962963104248,-0.16620922088623047,5.409999999999929
1.7015719413757324,-0.9926519393920898,-0.2609541416168213,5.419999999999929
1.5258378982543945,-0.04192161560058594,-0.27405405044555664,5.429999999999929
1.2297638654708862,1.0290641784667969,-0.41652464866638184,5.4399999999999284
0.6075546741485596,2.3667449951171875,-0.532926082611084,5.449999999999928
-0.057134389877319336,3.765493392944336,0.009555339813232422,5.459999999999928
-0.6996558308601379,5.168017387390137,0.8683896064758301,5.469999999999928
-1.3731410503387451,6.490328788757324,2.1671571731567383,5.479999999999928
-1.953225016593933,7.597757339477539,3.8373749256134033,5.489999999999927
-2.295039176940918,8.276541709899902,5.419116973876953,5.499999999999927
-2.1036458015441895,8.253719329833984,6.269541263580322,5.509999999999927
-2.0594611167907715,7.960188865661621,6.404598236083984,5.519999999999927
-2.1437597274780273,7.468274116516113,6.091555118560791,5.5299999999999265
-2.400984764099121,6.846170425415039,5.217512130737305,5.539999999999926
-2.751190423965454,6.451625823974609,3.9198646545410156,5.549999999999926
-3.090667247772217,6.601296424865723,2.398239850997925,5.559999999999926
-3.30983567237854,7.302284240722656,1.156064510345459,5.569999999999926
-3.4098827838897705,8.27380084991455,0.5152850151062012,5.5799999999999255
-3.2221672534942627,9.45963191986084,0.11992478370666504,5.589999999999925
-2.6113839149475098,10.487381935119629,-0.23822832107543945,5.599999999999925
-1.954699993133545,11.314400672912598,-0.8347306251525879,5.609999999999925
-1.4179487228393555,11.928595542907715,-1.8122375011444092,5.619999999999925
-0.75571608543396,12.282145500183105,-2.8673319816589355,5.629999999999924
-0.532393217086792,11.976935386657715,-3.6835579872131348,5.639999999999924
-1.2920002937316895,10.433307647705078,-4.47100305557251,5.649999999999924
-2.7378146648406982,7.327399253845215,-5.251891136169434,5.659999999999924
-4.082080364227295,3.4786691665649414,-5.364795684814453,5.6699999999999235
-5.018527984619141,0.01562786102294922,-4.977543830871582,5.679999999999923
-4.900364398956299,-2.662104606628418,-4.404982566833496,5.689999999999923
-3.94142484664917,-4.622329235076904,-3.6366024017333984,5.699999999999923
-2.9921505451202393,-5.700697898864746,-3.058234453201294,5.709999999999923
-1.9953978061676025,-6.077110290527344,-2.8234944343566895,5.7199999999999225
-1.1767092943191528,-6.089142322540283,-2.5952651500701904,5.729999999999922
-0.37604820728302,-5.985708713531494,-2.3160433769226074,5.739999999999922
0.3829883337020874,-5.819406509399414,-2.160374879837036,5.749999999999922
1.0538164377212524,-5.489745140075684,-2.080479145050049,5.759999999999922
1.4109402894973755,-4.882098197937012,-2.0308644771575928,5.769999999999921
1.9794039726257324,-4.06638765335083,-1.8197910785675049,5.779999999999921
2.7255449295043945,-3.1724367141723633,-1.5926284790039062,5.789999999999921
3.2570388317108154,-2.18170166015625,-1.460875391960144,5.799999999999921
3.3652215003967285,-1.276376724243164,-1.6579585075378418,5.809999999999921
3.3142638206481934,-0.4615135192871094,-1.7757505178451538,5.81999999999992
3.3772096633911133,0.23632335662841797,-1.937219500541687,5.82999999999992
3.489572525024414,0.589874267578125,-2.322866201400757,5.83999999999992
3.2974166870117188,1.0201807022094727,-2.720703363418579,5.84999999999992
2.800642967224121,1.1804113388061523,-3.1131057739257812,5.8599999999999195
1.9198212623596191,1.212264060974121,-3.4403655529022217,5.869999999999919
0.727796196937561,1.2335805892944336,-3.4618046283721924,5.879999999999919
-0.5783845782279968,1.0656728744506836,-3.2772278785705566,5.889999999999919
-1.737159252166748,0.7715215682983398,-2.878812789916992,5.899999999999919
-2.6161646842956543,0.30634021759033203,-2.2277140617370605,5.909999999999918
-2.9148519039154053,-0.31978797912597656,-1.5957527160644531,5.919999999999918
-2.731494903564453,-1.0275745391845703,-1.022416114807129,5.929999999999918
-2.3169045448303223,-1.7857389450073242,-0.6163971424102783,5.939999999999918
-1.9243178367614746,-2.417234420776367,-0.39748167991638184,5.949999999999918
-1.7111108303070068,-2.8673267364501953,-0.22678565979003906,5.959999999999917
-1.4296150207519531,-3.224912166595459,-0.08001863956451416,5.969999999999917
-1.2625916004180908,-3.444882869720459,-0.06441569328308105,5.979999999999917
-1.2330117225646973,-3.7403464317321777,-0.1389561891555786,5.989999999999917
-1.2590092420578003,-3.9152331352233887,-0.3176197409629822,5.9999999999999165
-1.4291369915008545,-3.881251335144043,-0.6241015791893005,6.009999999999916
-1.5117124319076538,-3.911254405975342,-1.0605381727218628,6.019999999999916
-1.5646953582763672,-3.821043014526367,-1.4306347370147705,6.029999999999916
-1.2681958675384521,-3.4673337936401367,-1.6383721828460693,6.039999999999916
-1.091494083404541,-3.0154876708984375,-1.884286642074585,6.0499999999999154
-0.7592263221740723,-2.5661158561706543,-2.0792531967163086,6.059999999999915
-0.35467949509620667,-1.9088354110717773,-2.2111854553222656,6.069999999999915
-0.23942038416862488,-1.4479427337646484,-2.28044056892395,6.079999999999915
-0.25774678587913513,-1.0516653060913086,-2.0958871841430664,6.089999999999915
-0.04326680302619934,-0.4832010269165039,-1.7824963331222534,6.099999999999914
-0.06985455751419067,-0.3357248306274414,-1.5946259498596191,6.109999999999914
-0.06931930780410767,-0.2428722381591797,-1.3415035009384155,6.119999999999914
-0.08202719688415527,-0.26915740966796875,-1.1222208738327026,6.129999999999914
-0.05296221375465393,-0.2686042785644531,-0.7344731688499451,6.1399999999999135
-0.08294305205345154,-0.2580270767211914,-0.21500170230865479,6.149999999999913
-0.016614437103271484,-0.2853260040283203,0.27061814069747925,6.159999999999913
0.10770773887634277,-0.3409700393676758,0.6335135102272034,6.169999999999913
0.20141172409057617,-0.4273834228515625,0.8233402371406555,6.179999999999913
0.3670211732387543,-0.42264366149902344,0.9046047925949097,6.1899999999999125
0.5972005128860474,-0.44408607482910156,0.9684967398643494,6.199999999999912
0.8491268157958984,-0.4056558609008789,1.027432918548584,6.209999999999912
1.1229689121246338,-0.26202964782714844,1.0966548919677734,6.219999999999912
1.3804808855056763,-0.09463977813720703,1.1918187141418457,6.229999999999912
1.5308839082717896,0.012806892395019531,1.2592496871948242,6.239999999999911
1.6938707828521729,0.036502838134765625,1.3314239978790283,6.249999999999911
1.7856801748275757,0.022014617919921875,1.4237253665924072,6.259999999999911
1.926177740097046,-0.2051410675048828,1.5078587532043457,6.269999999999911
2.068112850189209,-0.6542568206787109,1.6149369478225708,6.2799999999999105
2.00372314453125,-1.20550537109375,1.5887333154678345,6.28999999999991
2.292963981628418,-1.4188117980957031,1.8349140882492065,6.29999999999991
2.301968812942505,-1.796760082244873,1.6944160461425781,6.30999999999991
2.3830058574676514,-1.920731544494629,1.5444579124450684,6.31999999999991
2.3371143341064453,-1.6069364547729492,1.4012682437896729,6.3299999999999095
2.330768585205078,-1.0280675888061523,1.2625483274459839,6.339999999999909
2.2333550453186035,-0.16769790649414062,1.188643455505371,6.349999999999909
2.1369266510009766,0.7132034301757812,1.177920937538147,6.359999999999909
1.9832265377044678,1.5691699981689453,1.2929006814956665,6.369999999999909
1.848397970199585,2.1802215576171875,1.4833431243896484,6.379999999999908
1.61283540725708,2.5585784912109375,1.7752275466918945,6.389999999999908
1.4350074529647827,2.680607795715332,2.1493518352508545,6.399999999999908
1.3491305112838745,2.5968666076660156,2.7042548656463623,6.409999999999908
1.3579022884368896,2.39849853515625,3.177177906036377,6.419999999999908
1.700393557548523,2.128676414489746,3.2453665733337402,6.429999999999907
2.2801456451416016,1.7419891357421875,2.8102622032165527,6.439999999999907
2.95023250579834,1.4513015747070312,2.1344194412231445,6.449999999999907
3.6121418476104736,1.368830680847168,1.59554123878479,6.459999999999907
4.388075828552246,1.4321470260620117,1.2796525955200195,6.4699999999999065
5.017521858215332,1.6386833190917969,1.0766525268554688,6.479999999999906
5.402636528015137,1.8950300216674805,0.8338323831558228,6.489999999999906
5.428319454193115,2.275261878967285,0.45880207419395447,6.499999999999906
4.931138515472412,2.7840051651000977,0.005396604537963867,6.509999999999906
4.422763347625732,3.213083267211914,-0.37260717153549194,6.519999999999905
4.407388687133789,4.299044609069824,-0.5462861061096191,6.529999999999905
3.6615655422210693,5.0439605712890625,-0.48239943385124207,6.539999999999905
3.229722499847412,5.620456695556641,-0.32499000430107117,6.549999999999905
2.729628562927246,5.801579475402832,-0.7186516523361206,6.559999999999905
1.812541127204895,5.657114028930664,-1.6048935651779175,6.569999999999904
1.1073435544967651,4.988958358764648,-2.8533360958099365,6.579999999999904
0.27104735374450684,4.134913444519043,-3.7446706295013428,6.589999999999904
-0.33262449502944946,3.147871971130371,-4.129154682159424,6.599999999999904
-0.9113277792930603,2.2408838272094727,-3.967529296875,6.6099999999999035
-1.4520761966705322,1.609999656677246,-3.321209192276001,6.619999999999903
-1.9703218936920166,1.364974021911621,-2.3875951766967773,6.629999999999903
-2.388294219970703,1.4432830810546875,-1.5046260356903076,6.639999999999903
-2.5879838466644287,1.727492332458496,-1.0673974752426147,6.649999999999903
-2.796175003051758,2.1983861923217773,-1.082990050315857,6.659999999999902
-2.7970077991485596,2.5116090774536133,-1.2181651592254639,6.669999999999902
-2.851170063018799,2.736910820007324,-1.4722211360931396,6.679999999999902
-2.8677616119384766,2.80047607421875,-1.692633867263794,6.689999999999902
-3.0334975719451904,2.843714714050293,-1.8077099323272705,6.699999999999902
-3.174044132232666,2.933643341064453,-1.927137017250061,6.709999999999901
-3.323328971862793,3.0366411209106445,-1.9880121946334839,6.719999999999901
-3.5083208084106445,3.147747039794922,-2.126526355743408,6.729999999999901
-3.607573986053467,3.206981658935547,-2.3434863090515137,6.739999999999901
-3.7293388843536377,3.2118701934814453,-2.494877338409424,6.7499999999999005
-3.8834683895111084,3.1838912963867188,-2.44223690032959,6.7599999999999
-4.1539764404296875,3.161280632019043,-2.0953550338745117,6.7699999999999
-4.308773040771484,3.1224746704101562,-1.541269302368164,6.7799999999999
-4.326237201690674,3.084235191345215,-0.9603902101516724,6.7899999999999
-4.230249881744385,2.9749069213867188,-0.4591655731201172,6.7999999999998995
-4.05665922164917,2.7444934844970703,-0.127327561378479,6.809999999999899
-3.772066354751587,2.3741884231567383,0.06992876529693604,6.819999999999899
-3.35260009765625,1.8667173385620117,0.12461209297180176,6.829999999999899
-2.8483214378356934,1.2438831329345703,0.06740450859069824,6.839999999999899
-2.2492563724517822,0.5775833129882812,-0.10880732536315918,6.849999999999898
-1.5714221000671387,0.03043079376220703,-0.4229506254196167,6.859999999999898
-0.9383901357650757,-0.45514965057373047,-0.8175144791603088,6.869999999999898
-0.21512597799301147,-0.9033117294311523,-1.0720338821411133,6.879999999999898
0.25981056690216064,-1.3072013854980469,-1.2360897064208984,6.8899999999998975
0.5306732654571533,-1.6791582107543945,-1.4499305486679077,6.899999999999897
0.7342908382415771,-2.1246743202209473,-1.6099854707717896,6.909999999999897
0.8397986888885498,-2.6224265098571777,-1.6365160942077637,6.919999999999897
0.9502871036529541,-3.129549026489258,-1.5960888862609863,6.929999999999897
0.8809932470321655,-3.646040916442871,-1.6274813413619995,6.9399999999998965
0.9476255178451538,-4.090653896331787,-1.5273958444595337,6.949999999999896
0.9181193113327026,-4.315383434295654,-1.388963222503662,6.959999999999896
0.8738493919372559,-4.4687323570251465,-1.3536819219589233,6.969999999999896
0.7859189510345459,-4.469418048858643,-1.3046636581420898,6.979999999999896
0.4572490453720093,-4.355672359466553,-1.254284381866455,6.989999999999895
0.2511183023452759,-4.151479244232178,-1.116595983505249,6.999999999999895
0.14096438884735107,-3.904872417449951,-0.8818328380584717,7.009999999999895
-0.0985192060470581,-3.663825035095215,-0.6190149784088135,7.019999999999895
-0.37219321727752686,-3.387767791748047,-0.4233224391937256,7.0299999999998946
-0.5921753644943237,-3.1796603202819824,-0.28223729133605957,7.039999999999894
-0.806868851184845,-2.991685390472412,-0.16424798965454102,7.049999999999894
-0.980708658695221,-2.8885207176208496,-0.06413507461547852,7.059999999999894
-1.0828180313110352,-2.788844585418701,-0.058252573013305664,7.069999999999894
-1.0894806385040283,-2.6950950622558594,-0.1488490104675293,7.0799999999998935
-1.0271767377853394,-2.7506542205810547,-0.2835714817047119,7.089999999999893
-0.9700796604156494,-2.862060546875,-0.40281248092651367,7.099999999999893
-0.8750364780426025,-2.9384074211120605,-0.46363091468811035,7.109999999999893
-0.866655707359314,-3.0132603645324707,-0.4635775089263916,7.119999999999893
-0.7773979902267456,-3.201470375061035,-0.4432675838470459,7.129999999999892
-0.6143262386322021,-3.491057872772217,-0.4001598358154297,7.139999999999892
-0.5038070678710938,-3.8533782958984375,-0.2862057685852051,7.149999999999892
-0.3401455879211426,-4.2215256690979,-0.12762689590454102,7.159999999999892
-0.25688278675079346,-4.614741802215576,0.023052215576171875,7.169999999999892
-0.19843101501464844,-4.987658500671387,0.18024301528930664,7.179999999999891
-0.10675442218780518,-5.354707717895508,0.2888808250427246,7.189999999999891
-0.053328514099121094,-5.651313304901123,0.31539297103881836,7.199999999999891
-0.021295666694641113,-5.88942813873291,0.2644319534301758,7.209999999999891
-0.0417865514755249,-5.96851921081543,0.17394089698791504,7.2199999999998905
-0.1583482027053833,-5.8383378982543945,0.07468104362487793,7.22999999999989
-0.2639123201370239,-5.637643337249756,-0.004854440689086914,7.23999999999989
-0.24182844161987305,-5.41181755065918,0.04278254508972168,7.24999999999989
-0.21007472276687622,-5.167952537536621,0.11460328102111816,7.25999999999989
-0.121326744556427,-4.925120830535889,0.2584245204925537,7.269999999999889
0.02413761615753174,-4.601888179779053,0.28498268127441406,7.279999999999889
0.1469331979751587,-4.28419828414917,0.2776048183441162,7.289999999999889
0.2566143274307251,-3.981372833251953,0.24522638320922852,7.299999999999889
0.437150239944458,-3.5640430450439453,0.16794776916503906,7.309999999999889
0.6579928398132324,-3.082451820373535,0.1361072063446045,7.319999999999888
0.8885920643806458,-2.4240951538085938,0.09378504753112793,7.329999999999888
1.182308316230774,-1.6248359680175781,-0.08199524879455566,7.339999999999888
1.4317989349365234,-0.6510772705078125,-0.26549386978149414,7.349999999999888
1.4364824295043945,0.47817039489746094,-0.448413610458374,7.3599999999998875
1.4071893692016602,1.6938972473144531,-0.5896315574645996,7.369999999999887
1.3078471422195435,2.9726943969726562,-0.6291301250457764,7.379999999999887
1.0301892757415771,4.266995429992676,-0.31455516815185547,7.389999999999887
0.419319212436676,5.49542236328125,0.5170903205871582,7.399999999999887
-0.14455097913742065,6.646103858947754,1.430830717086792,7.4099999999998865
-0.8555529117584229,7.707075119018555,2.3775556087493896,7.419999999999886
-1.574328064918518,8.467595100402832,3.505112409591675,7.429999999999886
-1.6372897624969482,8.499187469482422,4.667560577392578,7.439999999999886
-1.7651729583740234,8.045745849609375,5.587525844573975,7.449999999999886
-1.985410451889038,7.41082763671875,6.262537002563477,7.459999999999885
-2.1871914863586426,6.541751861572266,6.552562713623047,7.469999999999885
-2.26712703704834,5.350362777709961,6.496048450469971,7.479999999999885
-2.2244062423706055,4.009404182434082,6.3125505447387695,7.489999999999885
-2.2160215377807617,2.730022430419922,5.627235412597656,7.4999999999998845
-2.5237314701080322,1.912938117980957,3.95308518409729,7.509999999999884
-2.737874984741211,1.5878076553344727,2.087686777114868,7.519999999999884
-3.0050137042999268,1.6780614852905273,0.9004595279693604,7.529999999999884
-3.3454389572143555,2.498189926147461,0.3381776809692383,7.539999999999884
-3.520373582839966,3.9716882705688477,0.19680142402648926,7.5499999999998835
-2.8684580326080322,5.720195770263672,0.2998538017272949,7.559999999999883
-1.5352213382720947,7.291616439819336,0.13382911682128906,7.569999999999883
-0.4383123517036438,8.572360038757324,-0.9402608871459961,7.579999999999883
0.3364388942718506,9.63591194152832,-2.6271326541900635,7.589999999999883
0.9479840993881226,10.222990989685059,-3.9455692768096924,7.599999999999882
1.0729026794433594,10.015453338623047,-4.680002689361572,7.609999999999882
0.08869946002960205,8.735509872436523,-5.147080421447754,7.619999999999882
-1.692719578742981,6.016535758972168,-5.580416679382324,7.629999999999882
-3.4411048889160156,3.125359535217285,-5.567605972290039,7.6399999999998816
-4.1115264892578125,0.6634397506713867,-4.784702301025391,7.649999999999881
-3.5055227279663086,-1.2047357559204102,-3.8405933380126953,7.659999999999881
-2.8416988849639893,-2.2643613815307617,-3.5711190700531006,7.669999999999881
-2.2306995391845703,-2.657036304473877,-3.190168619155884,7.679999999999881
-1.6377754211425781,-2.679778575897217,-2.158214569091797,7.6899999999998805
-1.0718247890472412,-2.682027816772461,-0.9853612184524536,7.69999999999988
-0.3793821334838867,-2.7404346466064453,-0.14435720443725586,7.70999999999988
0.1531936526298523,-2.9294824600219727,0.35511302947998047,7.71999999999988
0.25218522548675537,-3.0485262870788574,0.3716437816619873,7.72999999999988
0.5714334845542908,-3.018892765045166,-0.060361623764038086,7.739999999999879
0.8685790300369263,-2.680551528930664,-0.5631897449493408,7.749999999999879
1.3378292322158813,-2.315925121307373,-1.2051281929016113,7.759999999999879
1.507875919342041,-1.9849071502685547,-1.7546687126159668,7.769999999999879
1.6863105297088623,-1.7955384254455566,-2.201094388961792,7.779999999999879
1.9694130420684814,-1.779451847076416,-2.5277483463287354,7.789999999999878
2.4561495780944824,-1.8080329895019531,-2.9427411556243896,7.799999999999878
2.724210500717163,-1.5088791847229004,-3.3933098316192627,7.809999999999878
2.8003952503204346,-0.9760704040527344,-3.8318052291870117,7.819999999999878
2.3657431602478027,-0.2671794891357422,-4.211831092834473,7.8299999999998775
1.6718488931655884,0.5966205596923828,-4.4117326736450195,7.839999999999877
0.6488149166107178,1.5133056640625,-4.5124406814575195,7.849999999999877
-0.5033869743347168,2.158641815185547,-4.229401588439941,7.859999999999877
-1.4768362045288086,2.2922496795654297,-3.603318452835083,7.869999999999877
-2.0509443283081055,2.0061893463134766,-2.765751838684082,7.879999999999876
-2.132554531097412,1.3156852722167969,-1.9319064617156982,7.889999999999876
-1.8519322872161865,0.44619274139404297,-1.218744158744812,7.899999999999876
-1.6377487182617188,-0.4753303527832031,-0.5966591835021973,7.909999999999876
-1.5812811851501465,-1.429840087890625,-0.11414778232574463,7.919999999999876
-1.6545491218566895,-2.2286534309387207,0.20511651039123535,7.929999999999875
-1.6406474113464355,-2.8077168464660645,0.3020768165588379,7.939999999999875
-1.6269679069519043,-3.375638961791992,0.1587439775466919,7.949999999999875
-1.7325494289398193,-3.7365808486938477,-0.19981813430786133,7.959999999999875
-1.8953348398208618,-3.917210578918457,-0.7057612538337708,7.9699999999998745
-2.1183583736419678,-3.874744415283203,-1.2293301820755005,7.979999999999874
-2.2662038803100586,-3.578382968902588,-1.7006728649139404,7.989999999999874
-2.2821857929229736,-3.1815218925476074,-2.0377938747406006,7.999999999999874
