AccX,AccY,AccZ,SampleRate
-1.3898309469223022,-4.534985065460205,0.4218919277191162,0
-0.8440268635749817,-4.224297523498535,-0.2840540409088135,0.01
-0.6550902724266052,-3.5716142654418945,-0.8854658603668213,0.02
-0.3778653144836426,-2.8885130882263184,-1.3995507955551147,0.03
0.06811273097991943,-2.228252410888672,-1.8515855073928833,0.04
0.5018236637115479,-1.775465965270996,-2.4553096294403076,0.05
1.0645369291305542,-1.456425666809082,-3.126863479614258,0.060000000000000005
1.6909785270690918,-0.9657917022705078,-3.348544120788574,0.07
2.282789945602417,-0.2924995422363281,-3.5172982215881348,0.08
2.7656922340393066,0.5319089889526367,-3.7271876335144043,0.09
2.9643850326538086,1.5506420135498047,-3.9421911239624023,0.09999999999999999
2.705321788787842,2.4966773986816406,-4.128178119659424,0.10999999999999999
1.9531983137130737,3.1658506393432617,-4.197286605834961,0.11999999999999998
0.7532706260681152,3.5288848876953125,-4.002499580383301,0.12999999999999998
-0.217413067817688,3.5299367904663086,-3.49009370803833,0.13999999999999999
-0.9583815932273865,3.2490339279174805,-2.595907211303711,0.15
-1.4155272245407104,2.655642509460449,-1.4291895627975464,0.16
-1.3990763425827026,1.6973857879638672,-0.2873110771179199,0.17
-1.0600260496139526,0.35282135009765625,0.4373973608016968,0.18000000000000002
-0.8432583212852478,-1.0504636764526367,0.7696036100387573,0.19000000000000003
-0.8375421166419983,-2.419628143310547,0.7679765224456787,0.20000000000000004
-0.8906673789024353,-3.5710363388061523,0.4746224880218506,0.21000000000000005
-0.9205009341239929,-4.433581352233887,-0.034889936447143555,0.22000000000000006
-0.9673773050308228,-4.967196941375732,-0.6471744179725647,0.23000000000000007
-1.0216008424758911,-5.24657678604126,-1.210768222808838,0.24000000000000007
-0.9518322348594666,-5.296051025390625,-1.607866883277893,0.25000000000000006
-0.8709273934364319,-5.108760833740234,-1.8334532976150513,0.26000000000000006
-0.8223824501037598,-4.75673246383667,-1.9541822671890259,0.2700000000000001
-0.6005304455757141,-4.3788628578186035,-1.9315776824951172,0.2800000000000001
-0.3536630868911743,-3.858015537261963,-1.854257583618164,0.2900000000000001
0.09116363525390625,-3.40242338180542,-1.6770473718643188,0.3000000000000001
0.4259454011917114,-2.8566036224365234,-1.4218463897705078,0.3100000000000001
0.7828538417816162,-2.3688950538635254,-1.1560521125793457,0.3200000000000001
0.781423807144165,-1.9534225463867188,-0.966513454914093,0.3300000000000001
0.6245558261871338,-1.5047101974487305,-0.837114691734314,0.34000000000000014
0.4335486888885498,-1.1684837341308594,-0.742222011089325,0.35000000000000014
0.08539903163909912,-0.8607454299926758,-0.6228291392326355,0.36000000000000015
-0.11665141582489014,-0.7368021011352539,-0.4556327760219574,0.37000000000000016
-0.09620440006256104,-0.7653703689575195,-0.2601649761199951,0.38000000000000017
-0.0014684200286865234,-0.8961105346679688,-0.11824946105480194,0.3900000000000002
-0.08357483148574829,-0.9830913543701172,0.015131175518035889,0.4000000000000002
-0.246901273727417,-1.0287933349609375,0.1374157965183258,0.4100000000000002
-0.24959564208984375,-1.0740118026733398,0.2845209836959839,0.4200000000000002
-0.1823158860206604,-1.0686407089233398,0.4254527986049652,0.4300000000000002
-0.05651336908340454,-1.0582818984985352,0.5750465989112854,0.4400000000000002
0.12327384948730469,-1.0812692642211914,0.6933600306510925,0.45000000000000023
0.366712749004364,-1.068258285522461,0.742853045463562,0.46000000000000024
0.6332418322563171,-1.0480079650878906,0.7574082016944885,0.47000000000000025
0.9180869460105896,-0.9535846710205078,0.7539885640144348,0.48000000000000026
1.0919601917266846,-0.7874603271484375,0.7830721139907837,0.49000000000000027
1.1523072719573975,-0.5592575073242188,0.8877959251403809,0.5000000000000002
1.1852664947509766,-0.32404136657714844,0.9987600445747375,0.5100000000000002
1.1788371801376343,-0.07941532135009766,1.0705244541168213,0.5200000000000002
1.1235220432281494,0.12200927734375,1.083787202835083,0.5300000000000002
1.1294598579406738,0.28028202056884766,1.06718111038208,0.5400000000000003
1.0480263233184814,0.35961437225341797,1.0801796913146973,0.5500000000000003
0.9362192153930664,0.3864164352416992,1.1269731521606445,0.5600000000000003
0.9058198928833008,0.37032413482666016,1.2597064971923828,0.5700000000000003
0.8317355513572693,0.32097434997558594,1.5477648973464966,0.5800000000000003
0.833039402961731,0.31493568420410156,1.9388082027435303,0.5900000000000003
0.832477331161499,0.3928260803222656,2.43354868888855,0.6000000000000003
0.7721714973449707,0.6119422912597656,2.7935256958007812,0.6100000000000003
0.8649834394454956,0.9792556762695312,2.9068167209625244,0.6200000000000003
1.0847594738006592,1.3773689270019531,2.778151750564575,0.6300000000000003
1.3171753883361816,1.7296504974365234,2.426053524017334,0.6400000000000003
1.6632264852523804,1.9500036239624023,1.95022451877594,0.6500000000000004
2.0105936527252197,2.0433197021484375,1.4026488065719604,0.6600000000000004
2.229799747467041,2.15557861328125,0.9360183477401733,0.6700000000000004
2.451775550842285,2.322598457336426,0.6049023866653442,0.6800000000000004
2.6808528900146484,2.460590362548828,0.5618935823440552,0.6900000000000004
3.012723684310913,2.497865676879883,0.9314127564430237,0.7000000000000004
3.459624767303467,2.4489212036132812,1.467284083366394,0.7100000000000004
3.8494739532470703,2.4167098999023438,1.8735913038253784,0.7200000000000004
4.110586643218994,2.4419050216674805,1.8956338167190552,0.7300000000000004
4.066038131713867,2.5651111602783203,1.7258625030517578,0.7400000000000004
3.8354761600494385,2.771871566772461,1.4414242506027222,0.7500000000000004
3.672508716583252,3.0979347229003906,1.0327632427215576,0.7600000000000005
3.3545401096343994,3.3661556243896484,0.3794054388999939,0.7700000000000005
3.1140267848968506,3.7008895874023438,-0.14175188541412354,0.7800000000000005
2.7692182064056396,4.111553192138672,-0.5635480880737305,0.7900000000000005
2.310157060623169,4.528668403625488,-1.054991364479065,0.8000000000000005
1.6955697536468506,4.918780326843262,-1.4367388486862183,0.8100000000000005
0.8864831328392029,5.021368026733398,-1.7752240896224976,0.8200000000000005
0.2028813511133194,4.614482879638672,-2.156364679336548,0.8300000000000005
-0.41577112674713135,3.9642276763916016,-2.5494542121887207,0.8400000000000005
-1.1226742267608643,3.2503108978271484,-2.6225268840789795,0.8500000000000005
-1.5820305347442627,2.5685529708862305,-2.2874562740325928,0.8600000000000005
-1.9359900951385498,2.093576431274414,-1.687469482421875,0.8700000000000006
-2.2478432655334473,1.8180408477783203,-1.130393624305725,0.8800000000000006
-2.3180932998657227,1.6915550231933594,-1.0796027183532715,0.8900000000000006
-2.3810293674468994,1.6566104888916016,-1.5107674598693848,0.9000000000000006
-2.506908655166626,1.7992658615112305,-2.146296501159668,0.9100000000000006
-2.6944820880889893,2.0142011642456055,-2.7441906929016113,0.9200000000000006
-2.5303120613098145,2.148365020751953,-3.1000475883483887,0.9300000000000006
-2.2275774478912354,2.326228141784668,-3.1962013244628906,0.9400000000000006
-1.944254755973816,2.5549259185791016,-3.187541961669922,0.9500000000000006
-1.7809678316116333,2.7818098068237305,-3.123823404312134,0.9600000000000006
-1.702078104019165,3.0403852462768555,-2.9953062534332275,0.9700000000000006
-1.7363381385803223,3.215848922729492,-2.75142240524292,0.9800000000000006
-1.8284196853637695,3.2533063888549805,-2.4685306549072266,0.9900000000000007
-1.9441075325012207,3.1672239303588867,-2.0554347038269043,1.0000000000000007
-2.108963966369629,3.0772581100463867,-1.6053249835968018,1.0100000000000007
-2.2694191932678223,2.9546499252319336,-1.1301921606063843,1.0200000000000007
-2.3696258068084717,2.837639808654785,-0.7115957140922546,1.0300000000000007
-2.4090654850006104,2.7740087509155273,-0.32114356756210327,1.0400000000000007
-2.4497885704040527,2.7254276275634766,-0.02849102020263672,1.0500000000000007
-2.4225974082946777,2.6201658248901367,0.18056082725524902,1.0600000000000007
-2.4665188789367676,2.4200305938720703,0.35876965522766113,1.0700000000000007
-2.500415802001953,2.0390443801879883,0.494401216506958,1.0800000000000007
-2.3882811069488525,1.5132837295532227,0.530296802520752,1.0900000000000007
-2.2259023189544678,0.9361515045166016,0.4331773519515991,1.1000000000000008
-1.9678212404251099,0.3028726577758789,0.29424989223480225,1.1100000000000008
-1.642707109451294,-0.3124208450317383,0.09456849098205566,1.1200000000000008
-1.4465861320495605,-0.8643159866333008,-0.16845083236694336,1.1300000000000008
-1.180401086807251,-1.5083351135253906,-0.29416918754577637,1.1400000000000008
-0.608622133731842,-2.290060520172119,-0.2536604404449463,1.1500000000000008
-0.48210543394088745,-2.8890695571899414,-0.3289375305175781,1.1600000000000008
-0.5110900402069092,-3.346248149871826,-0.5941454172134399,1.1700000000000008
-0.5877397656440735,-3.6737279891967773,-0.9058732986450195,1.1800000000000008
-0.5637269020080566,-3.8955588340759277,-1.2022361755371094,1.1900000000000008
-0.6831387877464294,-3.935368061065674,-1.5000673532485962,1.2000000000000008
-0.6972358822822571,-4.027681350708008,-1.7517640590667725,1.2100000000000009
-0.4189385175704956,-4.163032531738281,-1.7827227115631104,1.2200000000000009
-0.10130226612091064,-4.279428958892822,-1.6646372079849243,1.2300000000000009
0.05014312267303467,-4.267057418823242,-1.509716272354126,1.2400000000000009
0.011274337768554688,-4.140500545501709,-1.3534926176071167,1.2500000000000009
-0.14630842208862305,-3.899954319000244,-1.2411409616470337,1.260000000000001
-0.22171306610107422,-3.6724367141723633,-1.0549808740615845,1.270000000000001
-0.33013463020324707,-3.477161407470703,-0.8401527404785156,1.280000000000001
-0.5656947493553162,-3.2303762435913086,-0.5796627998352051,1.290000000000001
-0.7542128562927246,-3.032597541809082,-0.40962815284729004,1.300000000000001
-0.9175717234611511,-2.907693862915039,-0.30832815170288086,1.310000000000001
-1.0082592964172363,-2.8267946243286133,-0.3333454132080078,1.320000000000001
-1.131927728652954,-2.7777719497680664,-0.37485432624816895,1.330000000000001
-1.2552673816680908,-2.77242374420166,-0.4308207035064697,1.340000000000001
-1.325785756111145,-2.8440561294555664,-0.4777061939239502,1.350000000000001
-1.2521698474884033,-2.9496521949768066,-0.4724390506744385,1.360000000000001
-1.1917983293533325,-3.177824020385742,-0.4363982677459717,1.370000000000001
-1.0674116611480713,-3.509502410888672,-0.3789496421813965,1.380000000000001
-0.9431585669517517,-3.916111469268799,-0.26856255531311035,1.390000000000001
-0.8546704649925232,-4.237490177154541,-0.21503663063049316,1.400000000000001
-0.7109658718109131,-4.504845142364502,-0.22788476943969727,1.410000000000001
-0.5146187543869019,-4.734970569610596,-0.20180583000183105,1.420000000000001
-0.3259016275405884,-4.789236545562744,-0.024228334426879883,1.430000000000001
-0.28911733627319336,-4.706045627593994,0.15182137489318848,1.440000000000001
-0.25154197216033936,-4.440070629119873,0.2426908016204834,1.450000000000001
-0.15131378173828125,-4.19226598739624,0.265000581741333,1.460000000000001
-0.15364253520965576,-3.972017288208008,0.21365594863891602,1.470000000000001
-0.09829521179199219,-3.745654582977295,0.21265506744384766,1.480000000000001
-0.18644773960113525,-3.5274243354797363,0.3071749210357666,1.490000000000001
-0.18141889572143555,-3.3745884895324707,0.37970757484436035,1.500000000000001
-0.20076239109039307,-3.2343215942382812,0.44432592391967773,1.5100000000000011
-0.17972135543823242,-3.0969114303588867,0.5316464900970459,1.5200000000000011
-0.1254054307937622,-3.0173282623291016,0.6869728565216064,1.5300000000000011
-0.04724299907684326,-2.8998947143554688,0.8744165897369385,1.5400000000000011
0.04269242286682129,-2.7756705284118652,0.9455127716064453,1.5500000000000012
0.10356736183166504,-2.6323537826538086,0.6458861827850342,1.5600000000000012
0.2647225856781006,-2.4360246658325195,0.12499642372131348,1.5700000000000012
0.5237758159637451,-2.1386327743530273,-0.3405752182006836,1.5800000000000012
0.8208009004592896,-1.7235894203186035,-0.4711031913757324,1.5900000000000012
1.0023837089538574,-1.2676692008972168,-0.39086103439331055,1.6000000000000012
1.1088287830352783,-0.7565650939941406,-0.26018381118774414,1.6100000000000012
1.1042823791503906,-0.16372966766357422,-0.400618314743042,1.6200000000000012
0.7569296360015869,0.6739034652709961,-0.7635654211044312,1.6300000000000012
0.2102363109588623,1.7348566055297852,-0.7950401306152344,1.6400000000000012
-0.3189793825149536,2.8445186614990234,-0.483797550201416,1.6500000000000012
-0.686018168926239,3.9836978912353516,0.2754480838775635,1.6600000000000013
-1.0741634368896484,5.080344200134277,1.4765231609344482,1.6700000000000013
-1.0652711391448975,5.858835220336914,2.9683542251586914,1.6800000000000013
-0.5801400542259216,6.112983703613281,4.442585468292236,1.6900000000000013
-0.33814573287963867,6.179670333862305,5.602969169616699,1.7000000000000013
-0.13719910383224487,6.108731269836426,6.298404216766357,1.7100000000000013
-0.05569100379943848,5.680263519287109,6.3956146240234375,1.7200000000000013
0.07406103610992432,4.883087158203125,5.939635276794434,1.7300000000000013
0.20409691333770752,3.7467660903930664,5.611349105834961,1.7400000000000013
0.19305419921875,2.7528953552246094,5.181816101074219,1.7500000000000013
0.07210648059844971,1.74951171875,3.767413854598999,1.7600000000000013
-0.34020745754241943,0.8530178070068359,1.8999640941619873,1.7700000000000014
-1.038287878036499,0.4614448547363281,0.18831396102905273,1.7800000000000014
-1.8992938995361328,0.42183971405029297,-1.1115307807922363,1.7900000000000014
-2.5735177993774414,1.448781967163086,-2.014277458190918,1.8000000000000014
-2.8689498901367188,3.7238779067993164,-1.887826919555664,1.8100000000000014
-2.5632381439208984,6.59535026550293,-1.3412320613861084,1.8200000000000014
-1.6067919731140137,9.304019927978516,-1.156008005142212,1.8300000000000014
0.2666722536087036,11.662610054016113,-1.5267040729522705,1.8400000000000014
1.9284833669662476,13.919212341308594,-2.4573206901550293,1.8500000000000014
2.5938572883605957,15.186726570129395,-3.3399596214294434,1.8600000000000014
1.9053606986999512,14.878387451171875,-4.030333042144775,1.8700000000000014
-0.5038952231407166,12.007424354553223,-4.529598236083984,1.8800000000000014
-4.033102512359619,7.540102958679199,-4.8489251136779785,1.8900000000000015
-6.653563976287842,3.290525436401367,-4.287491798400879,1.9000000000000015
-7.619784355163574,-0.12873172760009766,-3.5660667419433594,1.9100000000000015
-6.79862642288208,-2.768326759338379,-3.0124166011810303,1.9200000000000015
-5.113284111022949,-4.207504749298096,-2.990123987197876,1.9300000000000015
-3.7053260803222656,-4.942168712615967,-2.665001630783081,1.9400000000000015
-2.479400634765625,-5.4039306640625,-1.6240835189819336,1.9500000000000015
-1.3878209590911865,-5.619931697845459,-0.5208640098571777,1.9600000000000015
-0.6905807256698608,-5.499812126159668,0.02660965919494629,1.9700000000000015
-0.7535883188247681,-4.738096714019775,-0.01847100257873535,1.9800000000000015
-0.3269650936126709,-3.8836002349853516,-0.3347780704498291,1.9900000000000015
0.24396610260009766,-2.9488162994384766,-0.5661566257476807,2.0000000000000013
0.6154228448867798,-2.0847320556640625,-0.8878029584884644,2.010000000000001
0.79180908203125,-1.2435331344604492,-1.2642382383346558,2.020000000000001
0.8702282905578613,-0.6882047653198242,-1.7701644897460938,2.0300000000000007
1.2559658288955688,-0.4306488037109375,-2.2542073726654053,2.0400000000000005
1.6597135066986084,-0.28214359283447266,-2.501680374145508,2.0500000000000003
1.9204204082489014,-0.3627338409423828,-2.636608362197876,2.06
2.0417096614837646,-0.5481185913085938,-2.831310749053955,2.07
2.0850391387939453,-0.5415859222412109,-2.9941067695617676,2.0799999999999996
1.8922710418701172,-0.3836174011230469,-3.1855108737945557,2.0899999999999994
1.4146113395690918,0.014757156372070312,-3.2276387214660645,2.099999999999999
0.7509274482727051,0.4317331314086914,-3.2089853286743164,2.109999999999999
0.07380211353302002,0.8537588119506836,-2.9358115196228027,2.1199999999999988
-0.60720294713974,1.2072410583496094,-2.4049973487854004,2.1299999999999986
-1.0882420539855957,1.3323440551757812,-1.6367188692092896,2.1399999999999983
-1.2865052223205566,1.2174081802368164,-0.8322275876998901,2.149999999999998
-1.2930562496185303,0.8650341033935547,-0.15173101425170898,2.159999999999998
-1.1621184349060059,0.30881595611572266,0.29745757579803467,2.1699999999999977
-0.9468052983283997,-0.4345569610595703,0.47532403469085693,2.1799999999999975
-0.764281153678894,-1.346013069152832,0.3751180171966553,2.1899999999999973
-0.6383820176124573,-2.303676128387451,0.11444568634033203,2.199999999999997
-0.6460999250411987,-3.161860466003418,-0.18439972400665283,2.209999999999997
-0.7238937616348267,-3.83477783203125,-0.5020115375518799,2.2199999999999966
-0.7899904251098633,-4.231812953948975,-0.8194092512130737,2.2299999999999964
-0.9621617197990417,-4.358004093170166,-1.0985314846038818,2.239999999999996
-1.0862982273101807,-4.144172191619873,-1.2821965217590332,2.249999999999996
-0.998369038105011,-3.7341227531433105,-1.3776640892028809,2.259999999999996
-0.7134661674499512,-3.283493995666504,-1.380120873451233,2.2699999999999956
-0.382798433303833,-2.8114395141601562,-1.3709230422973633,2.2799999999999954
-0.15736711025238037,-2.337085247039795,-1.3095287084579468,2.289999999999995
0.11636918783187866,-1.9298090934753418,-1.196130633354187,2.299999999999995
0.4006975293159485,-1.6039152145385742,-1.0550498962402344,2.3099999999999947
0.5141881704330444,-1.3162860870361328,-0.9320392608642578,2.3199999999999945
0.5194292068481445,-1.0549297332763672,-0.7222213745117188,2.3299999999999943
0.4957297444343567,-0.9083127975463867,-0.5455922484397888,2.339999999999994
0.43123066425323486,-0.8356571197509766,-0.3258157968521118,2.349999999999994
0.33301764726638794,-0.8105669021606445,-0.14227089285850525,2.3599999999999937
0.2197657823562622,-0.823394775390625,0.04308643937110901,2.3699999999999934
0.05502808094024658,-0.8358163833618164,0.16546913981437683,2.3799999999999932
-0.03954911231994629,-0.9100151062011719,0.2751044034957886,2.389999999999993
-0.059789955615997314,-1.0243911743164062,0.2715049386024475,2.399999999999993
-0.041932761669158936,-1.1717500686645508,0.3106727600097656,2.4099999999999926
0.0784040093421936,-1.3329591751098633,0.35500454902648926,2.4199999999999924
0.3372175693511963,-1.5247879028320312,0.38844385743141174,2.429999999999992
0.6628943085670471,-1.7544059753417969,0.3324606120586395,2.439999999999992
1.0198044776916504,-1.930931568145752,0.22070689499378204,2.4499999999999917
1.3030025959014893,-2.064016819000244,0.1033434271812439,2.4599999999999915
1.5797268152236938,-2.1202540397644043,0.10710348188877106,2.4699999999999913
1.8023728132247925,-2.0925722122192383,0.26571884751319885,2.479999999999991
1.9711177349090576,-1.952378273010254,0.45974069833755493,2.489999999999991
2.0931644439697266,-1.7165336608886719,0.6415566802024841,2.4999999999999907
2.046504497528076,-1.4329662322998047,0.8494005799293518,2.5099999999999905
1.996053695678711,-1.1017208099365234,1.0447077751159668,2.5199999999999902
1.8578869104385376,-0.7658910751342773,1.279825210571289,2.52999999999999
1.7707140445709229,-0.39918041229248047,1.5234296321868896,2.53999999999999
1.6457265615463257,-0.05663013458251953,1.7370010614395142,2.5499999999999896
1.5613595247268677,0.25222206115722656,1.903638482093811,2.5599999999999894
1.4623689651489258,0.47719478607177734,2.025759220123291,2.569999999999989
1.420282006263733,0.6638164520263672,2.1442465782165527,2.579999999999989
1.269769549369812,0.7882137298583984,2.240046739578247,2.5899999999999888
1.1566015481948853,0.8624048233032227,2.2654247283935547,2.5999999999999885
1.1092740297317505,0.9342460632324219,2.2202682495117188,2.6099999999999883
1.1229735612869263,0.9750080108642578,2.0469400882720947,2.619999999999988
1.1165258884429932,1.0420722961425781,1.7666480541229248,2.629999999999988
1.3484060764312744,1.2214603424072266,1.429631233215332,2.6399999999999877
1.674858570098877,1.663670539855957,1.0506579875946045,2.6499999999999875
1.85353684425354,2.2559661865234375,0.6297988295555115,2.6599999999999873
1.9337046146392822,2.959824562072754,0.24303990602493286,2.669999999999987
1.9720908403396606,3.483302116394043,0.13839048147201538,2.679999999999987
2.1148171424865723,3.642462730407715,0.339042603969574,2.6899999999999866
2.3556787967681885,3.3803396224975586,0.7866756319999695,2.6999999999999864
2.535531759262085,2.919851303100586,1.3351147174835205,2.709999999999986
2.475574493408203,2.4621267318725586,1.6975836753845215,2.719999999999986
2.391458511352539,2.1650285720825195,1.7866275310516357,2.7299999999999858
2.3904576301574707,2.0451431274414062,1.7278388738632202,2.7399999999999856
2.34009051322937,2.226604461669922,1.3500218391418457,2.7499999999999853
2.363663911819458,2.6205501556396484,0.7926149964332581,2.759999999999985
2.323594808578491,3.188396453857422,0.2852657437324524,2.769999999999985
2.2170495986938477,3.8939905166625977,-0.22801518440246582,2.7799999999999847
1.9528167247772217,4.672520637512207,-0.7532918453216553,2.7899999999999845
1.2750515937805176,5.275173187255859,-1.1482371091842651,2.7999999999999843
0.7343651056289673,5.446318626403809,-1.6339411735534668,2.809999999999984
0.08422142267227173,5.133922576904297,-2.1533079147338867,2.819999999999984
-0.5343698263168335,4.357776641845703,-2.5774290561676025,2.8299999999999836
-0.9513870477676392,3.3504772186279297,-2.8615126609802246,2.8399999999999834
-1.0990370512008667,2.420895576477051,-2.726196050643921,2.849999999999983
-1.0310879945755005,1.7795286178588867,-2.11887526512146,2.859999999999983
-0.7608458399772644,1.4668207168579102,-1.4004877805709839,2.869999999999983
-0.7546777725219727,1.602029800415039,-1.0687015056610107,2.8799999999999826
-0.7162507772445679,1.9862442016601562,-1.2408372163772583,2.8899999999999824
-0.6864722371101379,2.406491279602051,-1.5580025911331177,2.899999999999982
-0.590665876865387,2.7242069244384766,-1.7923834323883057,2.909999999999982
-0.49772709608078003,2.934880256652832,-1.9908503293991089,2.9199999999999817
-0.5631269216537476,3.2084970474243164,-2.173027753829956,2.9299999999999815
-0.8084495067596436,3.5712642669677734,-2.4053893089294434,2.9399999999999813
-1.1430256366729736,3.922513961791992,-2.6441495418548584,2.949999999999981
-1.5099542140960693,4.159258842468262,-2.8798205852508545,2.959999999999981
-1.8595390319824219,4.159527778625488,-3.0946812629699707,2.9699999999999807
-2.117819309234619,3.9737205505371094,-3.1334738731384277,2.9799999999999804
-2.2699360847473145,3.630708694458008,-2.899203300476074,2.9899999999999802
-2.3824360370635986,3.2765417098999023,-2.424436092376709,2.99999999999998
-2.5723066329956055,2.975827217102051,-1.7966587543487549,3.00999999999998
-2.736562967300415,2.845731735229492,-1.1606817245483398,3.0199999999999796
-2.9353795051574707,2.826375961303711,-0.5845419764518738,3.0299999999999794
-3.0733511447906494,2.8459949493408203,-0.10717713832855225,3.039999999999979
-3.0981407165527344,2.7898483276367188,0.2783321142196655,3.049999999999979
-3.0097882747650146,2.7010927200317383,0.5578583478927612,3.0599999999999787
-2.86551570892334,2.441061019897461,0.7103328704833984,3.0699999999999785
-2.6361114978790283,2.0529327392578125,0.7387486696243286,3.0799999999999783
-2.337526321411133,1.5869674682617188,0.6196924448013306,3.089999999999978
-1.8707342147827148,1.040745735168457,0.43957602977752686,3.099999999999978
-1.4832537174224854,0.4524049758911133,0.1940913200378418,3.1099999999999777
-1.1667121648788452,-0.1757659912109375,-0.05219674110412598,3.1199999999999775
-1.0113848447799683,-0.7816314697265625,-0.3235131502151489,3.1299999999999772
-1.0624207258224487,-1.3915462493896484,-0.6058189868927002,3.139999999999977
-0.6951311826705933,-2.0796751976013184,-0.7272887825965881,3.149999999999977
-0.4022621512413025,-2.7790541648864746,-0.733618438243866,3.1599999999999766
-0.31049907207489014,-3.284061908721924,-0.8187241554260254,3.1699999999999764
-0.34553319215774536,-3.6332077980041504,-1.028095006942749,3.179999999999976
-0.3615596294403076,-3.8554015159606934,-1.2587037086486816,3.189999999999976
-0.4117162227630615,-3.962698459625244,-1.4843336343765259,3.1999999999999758
-0.3983892798423767,-4.024579048156738,-1.5542042255401611,3.2099999999999755
-0.21667033433914185,-4.062646389007568,-1.4850387573242188,3.2199999999999753
-0.08949851989746094,-3.9550867080688477,-1.3266195058822632,3.229999999999975
-0.12723755836486816,-3.733173370361328,-1.2605674266815186,3.239999999999975
-0.05729091167449951,-3.581167697906494,-1.2604341506958008,3.2499999999999747
-0.08590292930603027,-3.3794054985046387,-1.199310541152954,3.2599999999999745
-0.17518937587738037,-3.2379798889160156,-1.019539475440979,3.2699999999999743
-0.42857128381729126,-3.0779552459716797,-0.8523094654083252,3.279999999999974
-0.8393823504447937,-2.916147232055664,-0.7425638437271118,3.289999999999974
-1.1041165590286255,-2.814788341522217,-0.670814037322998,3.2999999999999736
-1.1416815519332886,-2.879016876220703,-0.6801654100418091,3.3099999999999734
-1.1508508920669556,-2.9867029190063477,-0.7251001596450806,3.319999999999973
-1.2084407806396484,-3.078009605407715,-0.7649366855621338,3.329999999999973
-1.244893193244934,-3.2175278663635254,-0.8022046089172363,3.3399999999999728
-1.2717827558517456,-3.405241012573242,-0.8394246101379395,3.3499999999999726
-1.2362655401229858,-3.6554665565490723,-0.8408041000366211,3.3599999999999723
-1.1665773391723633,-3.941953182220459,-0.7536299228668213,3.369999999999972
-0.9951086640357971,-4.315001010894775,-0.6831079721450806,3.379999999999972
-0.8482363820075989,-4.623941898345947,-0.6363741159439087,3.3899999999999717
-0.790117084980011,-4.854576587677002,-0.6635622978210449,3.3999999999999715
-0.8179391622543335,-5.021389484405518,-0.7335147857666016,3.4099999999999713
-0.7781897187232971,-5.1579694747924805,-0.7912203073501587,3.419999999999971
-0.792870819568634,-5.261945724487305,-0.8558721542358398,3.429999999999971
-0.7805107831954956,-5.318994045257568,-0.8725330829620361,3.4399999999999706
-0.8394639492034912,-5.290860652923584,-0.879533052444458,3.4499999999999704
-0.9798019528388977,-5.211057662963867,-0.7668360471725464,3.45999999999997
-1.108709692955017,-5.070051193237305,-0.5511660575866699,3.46999999999997
-1.1238981485366821,-4.875060081481934,-0.24447011947631836,3.47999999999997
-1.1360894441604614,-4.635616779327393,0.07654738426208496,3.4899999999999696
-1.1962708234786987,-4.354025840759277,0.3686378002166748,3.4999999999999694
-1.3074920177459717,-4.010951519012451,0.5785706043243408,3.509999999999969
-1.348449468612671,-3.6085867881774902,0.73677659034729,3.519999999999969
-1.4011380672454834,-3.168313980102539,0.9168357849121094,3.5299999999999687
-1.3488454818725586,-2.661375045776367,1.1183958053588867,3.5399999999999685
-1.2494406700134277,-2.1738085746765137,1.2836308479309082,3.5499999999999683
-1.065075159072876,-1.6480917930603027,1.3524036407470703,3.559999999999968
-0.8104719519615173,-1.043426513671875,1.1663005352020264,3.569999999999968
-0.509718120098114,-0.4696798324584961,0.8825738430023193,3.5799999999999677
-0.055161893367767334,0.06138801574707031,0.5891282558441162,3.5899999999999674
0.44597727060317993,0.4757728576660156,0.3811495304107666,3.5999999999999672
0.8988875150680542,0.8572921752929688,0.2487494945526123,3.609999999999967
1.2735812664031982,1.215580940246582,0.19380784034729004,3.619999999999967
1.5470614433288574,1.6008977890014648,0.27571654319763184,3.6299999999999666
1.6841946840286255,2.0610885620117188,0.4676554203033447,3.6399999999999664
1.66839599609375,2.577047348022461,0.7165095806121826,3.649999999999966
1.5831658840179443,3.1082210540771484,0.981170654296875,3.659999999999966
1.5314257144927979,3.6138925552368164,1.4603991508483887,3.6699999999999657
1.5251166820526123,4.043487548828125,2.3061325550079346,3.6799999999999655
1.489983320236206,4.370136260986328,3.3506524562835693,3.6899999999999653
1.3398258686065674,4.566905975341797,4.309514999389648,3.699999999999965
1.2489088773727417,4.674072265625,5.0054030418396,3.709999999999965
1.1950054168701172,4.63167667388916,5.44210147857666,3.7199999999999647
1.069640874862671,4.348992347717285,5.6823930740356445,3.7299999999999645
0.9058469533920288,3.7692127227783203,5.622827529907227,3.7399999999999642
0.7105421423912048,3.012714385986328,5.525328636169434,3.749999999999964
0.49832361936569214,2.2475976943969727,5.431281089782715,3.759999999999964
0.43013399839401245,1.2354974746704102,4.912441253662109,3.7699999999999636
-0.0055808424949646,0.6354913711547852,3.5014679431915283,3.7799999999999634
-0.5208133459091187,0.4341878890991211,1.584423542022705,3.789999999999963
-1.0551661252975464,0.4908914566040039,0.19228219985961914,3.799999999999963
-1.8460373878479004,1.1971302032470703,-0.2674295902252197,3.8099999999999627
-2.489569664001465,2.6682424545288086,-0.41364073753356934,3.8199999999999625
-2.5333216190338135,4.727273941040039,-0.5673377513885498,3.8299999999999623
-2.1064095497131348,7.16347599029541,-0.6055612564086914,3.839999999999962
-0.9319565296173096,9.467028617858887,-0.9090101718902588,3.849999999999962
0.22871899604797363,11.59509563446045,-1.822590708732605,3.8599999999999617
1.1074492931365967,13.497855186462402,-2.783250093460083,3.8699999999999615
1.3008527755737305,14.344294548034668,-3.421666145324707,3.8799999999999613
0.12153315544128418,13.815916061401367,-3.823392391204834,3.889999999999961
-2.2179484367370605,11.192842483520508,-4.361570835113525,3.899999999999961
-4.977155685424805,7.294162750244141,-4.753202438354492,3.9099999999999606
-6.734671115875244,3.6658143997192383,-4.478691577911377,3.9199999999999604
-7.1462249755859375,0.7601337432861328,-3.7712934017181396,3.92999999999996
-6.339175224304199,-1.5646686553955078,-2.8503646850585938,3.93999999999996
-4.898392677307129,-3.359386920928955,-2.0708305835723877,3.9499999999999598
-3.5840625762939453,-4.681830406188965,-1.3541218042373657,3.9599999999999596
-2.483546733856201,-5.663954734802246,-0.8366442918777466,3.9699999999999593
-1.4107377529144287,-6.452116966247559,-0.39113545417785645,3.979999999999959
-0.3563101291656494,-7.087299346923828,-0.10097789764404297,3.989999999999959
0.3470766544342041,-7.2948102951049805,-0.10674738883972168,3.9999999999999587
-0.2404770851135254,-6.367528438568115,-0.34776830673217773,4.009999999999959
0.2880566120147705,-5.5555925369262695,-0.42584753036499023,4.019999999999959
0.6917495727539062,-4.710878849029541,-0.6732528209686279,4.0299999999999585
0.8736597299575806,-3.874372959136963,-1.1034576892852783,4.039999999999958
0.985986590385437,-2.9438390731811523,-1.5017549991607666,4.049999999999958
1.5599092245101929,-2.5342559814453125,-2.1705617904663086,4.059999999999958
2.1761765480041504,-2.0190839767456055,-2.569051742553711,4.069999999999958
2.83754825592041,-1.2127180099487305,-2.933551549911499,4.079999999999957
3.2388243675231934,-0.20906734466552734,-3.202005624771118,4.089999999999957
3.5443296432495117,0.915165901184082,-3.3951315879821777,4.099999999999957
3.477991819381714,2.0766220092773438,-3.511183023452759,4.109999999999957
2.964016914367676,2.965184211730957,-3.5254218578338623,4.119999999999957
1.9265260696411133,3.383687973022461,-3.4237051010131836,4.129999999999956
0.6890053153038025,3.4196834564208984,-3.0198779106140137,4.139999999999956
-0.22120624780654907,3.1675119400024414,-2.4217920303344727,4.149999999999956
-0.7858392596244812,2.6518030166625977,-1.631494402885437,4.159999999999956
-1.1126271486282349,1.9304094314575195,-0.7532944679260254,4.1699999999999555
-1.2675765752792358,1.0107231140136719,0.042061805725097656,4.179999999999955
-1.311488151550293,-0.06171131134033203,0.5126230716705322,4.189999999999955
-1.2593882083892822,-1.181727409362793,0.6682965755462646,4.199999999999955
-1.2435823678970337,-2.263486385345459,0.6438759565353394,4.209999999999955
-1.166900396347046,-3.2045178413391113,0.41162073612213135,4.2199999999999545
-1.2315651178359985,-3.878520965576172,0.1065053939819336,4.229999999999954
-1.3028544187545776,-4.352914333343506,-0.2949206233024597,4.239999999999954
-1.3420524597167969,-4.6041259765625,-0.7061977982521057,4.249999999999954
-1.4283487796783447,-4.570303916931152,-1.0503597259521484,4.259999999999954
-1.5001847743988037,-4.376102447509766,-1.2508039474487305,4.269999999999953
-1.33355712890625,-4.076664924621582,-1.3434232473373413,4.279999999999953
-1.115917682647705,-3.6505541801452637,-1.354555368423462,4.289999999999953
-0.8619083166122437,-3.1576967239379883,-1.329591989517212,4.299999999999953
-0.6004204750061035,-2.6555581092834473,-1.2731527090072632,4.3099999999999525
-0.40810173749923706,-2.0915260314941406,-1.2068371772766113,4.319999999999952
-0.22754782438278198,-1.5086851119995117,-1.1237175464630127,4.329999999999952
0.06380820274353027,-1.0409841537475586,-0.9930863380432129,4.339999999999952
0.2511255741119385,-0.6572074890136719,-0.8225623369216919,4.349999999999952
0.2871894836425781,-0.4026975631713867,-0.6485491394996643,4.3599999999999515
0.17470324039459229,-0.21274185180664062,-0.5000311732292175,4.369999999999951
0.09098237752914429,-0.1159677505493164,-0.298334002494812,4.379999999999951
-0.04309946298599243,-0.11464881896972656,-0.05327615141868591,4.389999999999951
-0.1990075409412384,-0.16562747955322266,0.22315523028373718,4.399999999999951
-0.16874486207962036,-0.2927684783935547,0.48331913352012634,4.40999999999995
-0.189437597990036,-0.5270671844482422,0.6533052921295166,4.41999999999995
-0.06761309504508972,-0.7655601501464844,0.7260342240333557,4.42999999999995
0.10061666369438171,-1.024977684020996,0.7876752018928528,4.43999999999995
0.3102470636367798,-1.1857423782348633,0.8334031105041504,4.4499999999999496
0.5684121251106262,-1.3197193145751953,0.9253925085067749,4.459999999999949
0.7866156101226807,-1.4054412841796875,1.070921540260315,4.469999999999949
1.0656185150146484,-1.5266704559326172,1.217268466949463,4.479999999999949
1.2142913341522217,-1.6307764053344727,1.4170150756835938,4.489999999999949
1.2949492931365967,-1.7297382354736328,1.5409091711044312,4.4999999999999485
1.4199695587158203,-1.8618221282958984,1.574503779411316,4.509999999999948
1.3645119667053223,-1.8930869102478027,1.4701106548309326,4.519999999999948
1.2361347675323486,-1.8475594520568848,1.3093270063400269,4.529999999999948
1.1017976999282837,-1.8329310417175293,1.0014598369598389,4.539999999999948
1.0116779804229736,-1.755906581878662,0.766739010810852,4.549999999999947
0.8935250639915466,-1.590256690979004,0.6480633020401001,4.559999999999947
0.7824658751487732,-1.2715568542480469,0.5826995968818665,4.569999999999947
0.699081540107727,-0.8024435043334961,0.5794398784637451,4.579999999999947
0.7046067118644714,-0.12578105926513672,0.7645411491394043,4.589999999999947
0.7167699933052063,0.5787639617919922,0.9700866937637329,4.599999999999946
0.7470355033874512,1.3254222869873047,1.2721855640411377,4.609999999999946
0.8625064492225647,1.9443168640136719,1.6347885131835938,4.619999999999946
1.1236815452575684,2.2945194244384766,1.890705943107605,4.629999999999946
1.3949826955795288,2.7016143798828125,2.373654842376709,4.6399999999999455
1.7078207731246948,2.54388427734375,2.627673625946045,4.649999999999945
2.155679702758789,2.2691993713378906,2.574647903442383,4.659999999999945
2.5659408569335938,2.002009391784668,2.3007805347442627,4.669999999999945
2.969294548034668,1.7494316101074219,1.9781136512756348,4.679999999999945
3.3583948612213135,1.626190185546875,1.8599684238433838,4.689999999999944
3.8170955181121826,1.6512422561645508,1.9747095108032227,4.699999999999944
4.182796955108643,1.7861452102661133,2.130870819091797,4.709999999999944
4.414972305297852,2.0211992263793945,2.1611857414245605,4.719999999999944
4.557097434997559,2.2319602966308594,2.006223201751709,4.729999999999944
4.5779876708984375,2.4160709381103516,1.6331448554992676,4.739999999999943
4.302361965179443,2.5998411178588867,1.0640511512756348,4.749999999999943
3.8034348487854004,2.9529857635498047,0.36392900347709656,4.759999999999943
3.303140640258789,3.4776411056518555,-0.15866544842720032,4.769999999999943
3.0589616298675537,3.9439735412597656,-0.774993896484375,4.7799999999999425
2.5156004428863525,4.634190559387207,-1.1504813432693481,4.789999999999942
2.297447919845581,5.093701362609863,-1.6013894081115723,4.799999999999942
1.602275013923645,5.317967414855957,-2.1834874153137207,4.809999999999942
0.6566690802574158,5.147022247314453,-2.9051246643066406,4.819999999999942
-0.14211967587471008,4.461813926696777,-3.51419734954834,4.8299999999999415
-0.7213099598884583,3.4806432723999023,-3.644591808319092,4.839999999999941
-1.253667950630188,2.4670305252075195,-3.1548242568969727,4.849999999999941
-1.672132134437561,1.7464113235473633,-2.105400800704956,4.859999999999941
-2.060859203338623,1.5768394470214844,-1.2238497734069824,4.869999999999941
-2.461681604385376,1.905181884765625,-0.7992763519287109,4.87999999999994
-2.4338159561157227,2.353175163269043,-0.9579043388366699,4.88999999999994
-2.3742542266845703,2.777369499206543,-1.342882752418518,4.89999999999994
-2.160991668701172,3.1205921173095703,-1.675897240638733,4.90999999999994
-1.9143425226211548,3.5313587188720703,-1.909897804260254,4.9199999999999395
-1.8698015213012695,3.9379501342773438,-2.0229389667510986,4.929999999999939
-2.021711587905884,4.4359846115112305,-2.0328547954559326,4.939999999999939
-2.2021331787109375,4.826713562011719,-2.028815746307373,4.949999999999939
-2.3266048431396484,5.047858238220215,-2.0700345039367676,4.959999999999939
-2.4078965187072754,5.053976058959961,-2.174314498901367,4.9699999999999385
-2.364396572113037,4.811720848083496,-2.1912100315093994,4.979999999999938
-2.3315985202789307,4.385891914367676,-1.992672085762024,4.989999999999938
-2.516561269760132,4.015834808349609,-1.6020183563232422,4.999999999999938
-2.74847412109375,3.7469663619995117,-1.1885700225830078,5.009999999999938
-2.995788812637329,3.6127452850341797,-0.7733052968978882,5.019999999999937
-3.2559287548065186,3.5294675827026367,-0.3986612558364868,5.029999999999937
-3.385263442993164,3.408745765686035,-0.08990740776062012,5.039999999999937
-3.4078447818756104,3.1862173080444336,0.09455406665802002,5.049999999999937
-3.2590887546539307,2.826258659362793,0.1924976110458374,5.0599999999999365
-3.0035574436187744,2.269338607788086,0.17752158641815186,5.069999999999936
-2.6216166019439697,1.6280765533447266,0.004559040069580078,5.079999999999936
-2.0957155227661133,0.9957437515258789,-0.25156211853027344,5.089999999999936
-1.5684175491333008,0.37932586669921875,-0.5755819082260132,5.099999999999936
-1.1197165250778198,-0.1736440658569336,-0.8899024128913879,5.1099999999999355
-0.6551305055618286,-0.8189048767089844,-1.210726261138916,5.119999999999935
-0.2979620695114136,-1.5541486740112305,-1.5092015266418457,5.129999999999935
-0.08847498893737793,-2.228738784790039,-1.7327004671096802,5.139999999999935
-0.1319040060043335,-2.8284730911254883,-1.9338288307189941,5.149999999999935
-0.267888605594635,-3.413249969482422,-2.064915180206299,5.159999999999934
-0.3027663230895996,-3.9735589027404785,-2.1667141914367676,5.169999999999934
-0.30831754207611084,-4.466447353363037,-2.1794536113739014,5.179999999999934
-0.38520318269729614,-4.8442463874816895,-2.13645076751709,5.189999999999934
-0.3015061020851135,-5.159794330596924,-1.9824225902557373,5.199999999999934
-0.23477768898010254,-5.355906963348389,-1.7574878931045532,5.209999999999933
-0.2046889066696167,-5.468682289123535,-1.4373013973236084,5.219999999999933
-0.183604896068573,-5.424161434173584,-1.1289013624191284,5.229999999999933
-0.2994447350502014,-5.091009616851807,-0.898909330368042,5.239999999999933
-0.4115937352180481,-4.823421001434326,-0.8118952512741089,5.2499999999999325
-0.47021108865737915,-4.542348384857178,-0.7149125337600708,5.259999999999932
-0.5237044095993042,-4.247715950012207,-0.6034901142120361,5.269999999999932
-0.6921461820602417,-3.934680938720703,-0.49938738346099854,5.279999999999932
-0.9613617658615112,-3.6846070289611816,-0.426324725151062,5.289999999999932
-1.0949572324752808,-3.435293197631836,-0.3983769416809082,5.299999999999931
-1.1890681982040405,-3.2991561889648438,-0.40576887130737305,5.309999999999931
-1.248632788658142,-3.2402400970458984,-0.4579291343688965,5.319999999999931
-1.2088673114776611,-3.232174873352051,-0.5716568231582642,5.329999999999931
-1.1173312664031982,-3.294079303741455,-0.7277998924255371,5.339999999999931
-1.0383044481277466,-3.437903881072998,-0.8042793273925781,5.34999999999993
-0.9810380339622498,-3.5703773498535156,-0.829780101776123,5.35999999999993
-0.8876754641532898,-3.7345776557922363,-0.8499468564987183,5.36999999999993
-0.7911705374717712,-3.9496164321899414,-0.8530087471008301,5.37999999999993
-0.7389403581619263,-4.217799663543701,-0.8296918869018555,5.3899999999999295
-0.6083287596702576,-4.493663311004639,-0.7658178806304932,5.399999999999929
-0.4346129894256592,-4.784400939941406,-0.6161572933197021,5.409999999999929
-0.2817871570587158,-4.989624500274658,-0.4286491870880127,5.419999999999929
-0.17814409732818604,-5.078367233276367,-0.29424548149108887,5.429999999999929
-0.2555410861968994,-5.045887470245361,-0.17957210540771484,5.4399999999999284
-0.4019736647605896,-4.8754706382751465,-0.07042956352233887,5.449999999999928
-0.48621857166290283,-4.622164726257324,0.03296399116516113,5.459999999999928
-0.4608004093170166,-4.38399076461792,0.1877424716949463,5.469999999999928
-0.5105209350585938,-4.115447044372559,0.417816162109375,5.479999999999928
-0.454371839761734,-3.7949981689453125,0.7757947444915771,5.489999999999927
-0.4558248817920685,-3.5255284309387207,1.2020032405853271,5.499999999999927
-0.3625611364841461,-3.1969528198242188,1.586493968963623,5.509999999999927
-0.302254855632782,-2.8665289878845215,1.7303214073181152,5.519999999999927
-0.14392930269241333,-2.498141288757324,1.6042993068695068,5.5299999999999265
0.05208176374435425,-2.1321940422058105,1.3583776950836182,5.539999999999926
0.2761383056640625,-1.7254552841186523,1.113887071609497,5.549999999999926
0.5308380722999573,-1.222895622253418,0.9373195171356201,5.559999999999926
0.8428006172180176,-0.6652383804321289,0.8091373443603516,5.569999999999926
1.1214172840118408,-0.028682708740234375,0.7914745807647705,5.5799999999999255
1.4027719497680664,0.581416130065918,0.8603665828704834,5.589999999999925
1.6822385787963867,1.1962890625,0.8860869407653809,5.599999999999925
1.8450381755828857,1.8376359939575195,0.9229836463928223,5.609999999999925
1.9032623767852783,2.500822067260742,1.011005163192749,5.619999999999925
1.8187556266784668,3.1692333221435547,1.2093243598937988,5.629999999999924
1.5820468664169312,3.802309036254883,1.5318560600280762,5.639999999999924
1.2316149473190308,4.337822914123535,1.9406323432922363,5.649999999999924
0.8299039006233215,4.677655220031738,2.4268064498901367,5.659999999999924
0.36272627115249634,4.891044616699219,3.0513908863067627,5.6699999999999235
-0.03133052587509155,4.946700096130371,3.7104086875915527,5.679999999999923
-0.3052186667919159,4.928305625915527,4.234933853149414,5.689999999999923
-0.5889521241188049,4.812036514282227,4.620567798614502,5.699999999999923
-0.8282327651977539,4.744256973266602,4.646343231201172,5.709999999999923
-1.178839921951294,4.816657066345215,4.192664623260498,5.7199999999999225
-1.6883044242858887,5.092342376708984,3.385653018951416,5.729999999999922
-2.2824854850769043,5.686919212341309,2.449735164642334,5.739999999999922
-2.9660935401916504,6.770596504211426,1.5671043395996094,5.749999999999922
-3.6694891452789307,8.280893325805664,0.675407886505127,5.759999999999922
-4.018923759460449,10.424410820007324,0.24211716651916504,5.769999999999921
-3.676532745361328,12.779698371887207,0.1876544952392578,5.779999999999921
-2.7224936485290527,14.829087257385254,0.07373166084289551,5.789999999999921
-1.6743957996368408,15.767507553100586,-0.08805155754089355,5.799999999999921
-1.3831573724746704,15.164687156677246,-0.4534881114959717,5.809999999999921
-2.3565845489501953,12.467105865478516,-1.1424503326416016,5.81999999999992
-4.077555179595947,7.777986526489258,-2.1225171089172363,5.82999999999992
-4.80887508392334,2.8630294799804688,-2.7735445499420166,5.83999999999992
-4.775210380554199,-1.0416154861450195,-2.7055885791778564,5.84999999999992
-4.346608638763428,-3.850431442260742,-2.448648452758789,5.8599999999999195
-3.6821155548095703,-5.9397711753845215,-2.2103304862976074,5.869999999999919
-2.9157638549804688,-7.400721549987793,-2.334686279296875,5.879999999999919
-2.105715274810791,-8.443497657775879,-2.9438047409057617,5.889999999999919
-1.234151840209961,-9.263745307922363,-3.4947378635406494,5.899999999999919
-0.4143890142440796,-9.67003059387207,-3.3003273010253906,5.909999999999918
0.4674086570739746,-9.653382301330566,-2.4664127826690674,5.919999999999918
1.2306714057922363,-8.946901321411133,-1.5972851514816284,5.929999999999918
1.915810465812683,-7.719396114349365,-1.0903469324111938,5.939999999999918
2.5353031158447266,-6.072598457336426,-0.6394226551055908,5.949999999999918
2.773609161376953,-4.420851707458496,-0.7220909595489502,5.959999999999917
2.6236629486083984,-2.77586030960083,-1.137589693069458,5.969999999999917
2.6937270164489746,-1.1948509216308594,-1.372144103050232,5.979999999999917
3.3966498374938965,0.27918434143066406,-1.8881111145019531,5.989999999999917
4.195381164550781,2.0812292098999023,-2.10353422164917,5.9999999999999165
4.813632011413574,4.10740852355957,-2.157756805419922,6.009999999999916
5.059804916381836,6.0553741455078125,-1.9421794414520264,6.019999999999916
4.725551128387451,6.970758438110352,-1.9750162363052368,6.029999999999916
3.487584352493286,6.5442914962768555,-2.0892040729522705,6.039999999999916
1.6599324941635132,5.19919490814209,-2.1727147102355957,6.0499999999999154
0.31882500648498535,3.489534378051758,-2.165220022201538,6.059999999999915
-0.43596723675727844,1.8846712112426758,-1.8962342739105225,6.069999999999915
-0.9948610663414001,0.5089950561523438,-1.4057304859161377,6.079999999999915
-1.3735032081604004,-0.4438810348510742,-0.8936840295791626,6.089999999999915
-1.482832908630371,-1.3041114807128906,-0.7277872562408447,6.099999999999914
-1.4541659355163574,-1.9089350700378418,-0.672528862953186,6.109999999999914
-1.4167821407318115,-2.327815055847168,-0.6524950265884399,6.119999999999914
-1.3971973657608032,-2.489184856414795,-0.6323826909065247,6.129999999999914
-1.321340799331665,-2.632524013519287,-0.6218007206916809,6.1399999999999135
-1.2273930311203003,-2.674314498901367,-0.5771884322166443,6.149999999999913
-1.1580076217651367,-2.751156806945801,-0.44526875019073486,6.159999999999913
-1.069467306137085,-2.906224250793457,-0.34499943256378174,6.169999999999913
-0.9610053300857544,-3.1275711059570312,-0.40993475914001465,6.179999999999913
-0.951450526714325,-3.3410491943359375,-0.6327221393585205,6.1899999999999125
-0.8821277618408203,-3.525160789489746,-0.9560980796813965,6.199999999999912
-0.8364404439926147,-3.51973819732666,-1.2989195585250854,6.209999999999912
-0.7593940496444702,-3.394336223602295,-1.5107524394989014,6.219999999999912
-0.6588231325149536,-3.108405590057373,-1.5823733806610107,6.229999999999912
-0.5378814339637756,-2.686021327972412,-1.5569868087768555,6.239999999999911
-0.38484764099121094,-2.1919188499450684,-1.4514296054840088,6.249999999999911
-0.316919207572937,-1.7696728706359863,-1.375787615776062,6.259999999999911
-0.2956259250640869,-1.3881301879882812,-1.2893950939178467,6.269999999999911
-0.3830256164073944,-1.0089855194091797,-1.139914631843567,6.2799999999999105
-0.46646425127983093,-0.5963821411132812,-0.9587134122848511,6.28999999999991
-0.6608489751815796,-0.2771034240722656,-0.6885287761688232,6.29999999999991
-0.8082536458969116,-0.15627193450927734,-0.3985365033149719,6.30999999999991
-0.8825340270996094,-0.20495223999023438,-0.18215148150920868,6.31999999999991
-0.8647806644439697,-0.38468074798583984,0.017929404973983765,6.3299999999999095
-0.7693231105804443,-0.5733718872070312,0.3284205198287964,6.339999999999909
-0.6847436428070068,-0.8069057464599609,0.55108642578125,6.349999999999909
-0.5179682374000549,-1.0541563034057617,0.7294899821281433,6.359999999999909
-0.37942394614219666,-1.3270540237426758,0.8328279852867126,6.369999999999909
-0.16411180794239044,-1.5275306701660156,0.9066701531410217,6.379999999999908
0.06560312211513519,-1.684377670288086,1.0537347793579102,6.389999999999908
0.41273337602615356,-1.8144035339355469,1.2760281562805176,6.399999999999908
0.7480913400650024,-1.8602714538574219,1.5108898878097534,6.409999999999908
1.1484829187393188,-1.8484129905700684,1.80116605758667,6.419999999999908
1.5015627145767212,-1.7789149284362793,2.0082216262817383,6.429999999999907
1.8289860486984253,-1.7642407417297363,2.0867927074432373,6.439999999999907
2.097228527069092,-1.7230310440063477,2.0347201824188232,6.449999999999907
2.2991456985473633,-1.7581419944763184,1.8736517429351807,6.459999999999907
2.384443521499634,-1.7714519500732422,1.6323386430740356,6.4699999999999065
2.302639961242676,-1.719961166381836,1.2175142765045166,6.479999999999906
2.125127077102661,-1.5368175506591797,0.830268383026123,6.489999999999906
1.8133044242858887,-1.2197980880737305,0.5857120752334595,6.499999999999906
1.4983443021774292,-0.7547550201416016,0.39755570888519287,6.509999999999906
1.031689167022705,-0.20647907257080078,0.3705839514732361,6.519999999999905
0.6428561806678772,0.40811634063720703,0.5804042220115662,6.529999999999905
0.42011553049087524,1.0075769424438477,1.0356066226959229,6.539999999999905
0.28205040097236633,1.455571174621582,1.549057960510254,6.549999999999905
0.2285686433315277,1.8120384216308594,2.1327452659606934,6.559999999999905
0.2401467114686966,1.9120607376098633,2.5187366008758545,6.569999999999904
0.4839554727077484,1.794194221496582,2.714698314666748,6.579999999999904
0.9331446290016174,1.606928825378418,2.665950059890747,6.589999999999904
1.730788230895996,1.3837823867797852,2.3916733264923096,6.599999999999904
2.577789545059204,1.2849969863891602,2.0093445777893066,6.6099999999999035
3.345020055770874,1.372603416442871,1.6247904300689697,6.619999999999903
3.9746718406677246,1.7181425094604492,1.3612955808639526,6.629999999999903
4.4401631355285645,2.1731033325195312,1.124613881111145,6.639999999999903
4.767507553100586,2.6489171981811523,0.7940686941146851,6.649999999999903
4.760368824005127,3.116853713989258,0.2122681736946106,6.659999999999902
4.310914993286133,3.6581459045410156,-0.477744996547699,6.669999999999902
4.282247543334961,4.401679039001465,-1.3567566871643066,6.679999999999902
3.7309298515319824,5.292119026184082,-1.9354989528656006,6.689999999999902
3.124073028564453,6.197835922241211,-1.917373538017273,6.699999999999902
2.981078624725342,6.745877265930176,-1.9723529815673828,6.709999999999901
2.1750142574310303,6.838689804077148,-2.0502190589904785,6.719999999999901
1.4596973657608032,6.374000549316406,-2.5610899925231934,6.729999999999901
0.5073341131210327,5.6011247634887695,-3.315443515777588,6.739999999999901
-0.11135613918304443,4.628073692321777,-3.793549060821533,6.7499999999999005
-0.5214600563049316,3.7516746520996094,-3.786534309387207,6.7599999999999
-1.044091820716858,3.0771255493164062,-3.2619681358337402,6.7699999999999
-1.627543330192566,2.728632926940918,-2.366161823272705,6.7799999999999
-2.2444629669189453,2.713083267211914,-1.644360899925232,6.7899999999999
-2.6856133937835693,2.8245410919189453,-1.2107380628585815,6.7999999999998995
-3.098468542098999,2.967299461364746,-0.9885772466659546,6.809999999999899
-3.3844223022460938,3.134251594543457,-0.9229574203491211,6.819999999999899
-3.6201674938201904,3.2394237518310547,-0.9416782855987549,6.829999999999899
-3.751105785369873,3.469564437866211,-0.9432259202003479,6.839999999999899
-3.9477174282073975,3.788784980773926,-0.9253177642822266,6.849999999999898
-4.086350440979004,4.008133888244629,-0.8824727535247803,6.859999999999898
-4.220803260803223,4.048783302307129,-0.9696910381317139,6.869999999999898
-4.256774425506592,3.8439064025878906,-1.2184154987335205,6.879999999999898
-4.281906604766846,3.453465461730957,-1.591504693031311,6.8899999999998975
-4.122441291809082,2.985158920288086,-1.7845544815063477,6.899999999999897
-3.8893063068389893,2.4891891479492188,-1.7186620235443115,6.909999999999897
-3.645278215408325,2.1448440551757812,-1.4636526107788086,6.919999999999897
-3.3473875522613525,1.9399442672729492,-1.0657787322998047,6.929999999999897
-3.0361595153808594,1.8599720001220703,-0.6336262822151184,6.9399999999998965
-2.7161054611206055,1.7661447525024414,-0.23534756898880005,6.949999999999896
-2.2839205265045166,1.651412010192871,0.024856090545654297,6.959999999999896
-1.7987446784973145,1.4059219360351562,0.0956040620803833,6.969999999999896
-1.3173491954803467,1.1112632751464844,-0.036025285720825195,6.979999999999896
-0.8965144157409668,0.7126016616821289,-0.277326762676239,6.989999999999895
-0.4542348384857178,0.29859066009521484,-0.5256527066230774,6.999999999999895
-0.05455845594406128,-0.10211658477783203,-0.7540754079818726,7.009999999999895
0.29313457012176514,-0.4584932327270508,-0.9621670246124268,7.019999999999895
0.5050257444381714,-0.7370805740356445,-1.1930092573165894,7.0299999999998946
0.7561343908309937,-1.0360069274902344,-1.3437707424163818,7.039999999999894
0.8724837303161621,-1.3936424255371094,-1.45208740234375,7.049999999999894
0.8096756339073181,-1.8268775939941406,-1.5672703981399536,7.059999999999894
0.9445788264274597,-2.555838108062744,-1.6217628717422485,7.069999999999894
0.9499527812004089,-3.279143810272217,-1.602744221687317,7.0799999999998935
0.7613188028335571,-3.898928642272949,-1.5360931158065796,7.089999999999893
0.49337100982666016,-4.343664646148682,-1.5078051090240479,7.099999999999893
0.43574512004852295,-4.737996578216553,-1.4795747995376587,7.109999999999893
0.343839168548584,-4.938492774963379,-1.3966584205627441,7.119999999999893
0.16916805505752563,-4.962065696716309,-1.3478459119796753,7.129999999999892
0.016632497310638428,-4.938061237335205,-1.2326571941375732,7.139999999999892
-0.090320885181427,-4.8259172439575195,-1.0821208953857422,7.149999999999892
-0.18079739809036255,-4.649725914001465,-0.9605592489242554,7.159999999999892
-0.3104298710823059,-4.4574294090271,-0.824636697769165,7.169999999999892
-0.4823005497455597,-4.16299295425415,-0.7219961881637573,7.179999999999891
-0.5868126153945923,-3.94351863861084,-0.654860258102417,7.189999999999891
-0.6697906255722046,-3.7846240997314453,-0.6254092454910278,7.199999999999891
-0.6619070768356323,-3.7938947677612305,-0.5833208560943604,7.209999999999891
-0.690079927444458,-3.775108814239502,-0.576341986656189,7.2199999999998905
-0.7183656096458435,-3.7594094276428223,-0.5997072458267212,7.22999999999989
-0.7205321788787842,-3.7420806884765625,-0.5958584547042847,7.23999999999989
-0.6942147016525269,-3.7901344299316406,-0.5193018913269043,7.24999999999989
-0.6917652487754822,-3.848588466644287,-0.42020440101623535,7.25999999999989
-0.5958354473114014,-3.974872589111328,-0.37027573585510254,7.269999999999889
-0.5834416151046753,-4.104407787322998,-0.28084802627563477,7.279999999999889
-0.5637110471725464,-4.3041510581970215,-0.1639392375946045,7.289999999999889
-0.5795100927352905,-4.456881999969482,-0.06023216247558594,7.299999999999889
-0.5707629323005676,-4.5937018394470215,0.05154681205749512,7.309999999999889
-0.5395026803016663,-4.7266130447387695,0.12352299690246582,7.319999999999888
-0.5357576608657837,-4.881906032562256,0.22974705696105957,7.329999999999888
-0.6049065589904785,-4.96390962600708,0.4203975200653076,7.339999999999888
-0.6201263666152954,-4.939220905303955,0.5351202487945557,7.349999999999888
-0.7562984824180603,-4.884402751922607,0.6073071956634521,7.3599999999998875
-0.882334291934967,-4.768311023712158,0.6679508686065674,7.369999999999887
-0.9222921133041382,-4.554961681365967,0.7524471282958984,7.379999999999887
-0.9362984895706177,-4.318490505218506,0.8365740776062012,7.389999999999887
-0.8264893889427185,-4.051661014556885,1.0205013751983643,7.399999999999887
-0.734135091304779,-3.797553062438965,1.2132983207702637,7.4099999999998865
-0.5060991048812866,-3.5202698707580566,1.4101336002349854,7.419999999999886
-0.2596058249473572,-3.2269716262817383,1.548696756362915,7.429999999999886
0.02226996421813965,-2.831480026245117,1.5520901679992676,7.439999999999886
0.2608817219734192,-2.3767380714416504,1.3789420127868652,7.449999999999886
0.48032504320144653,-1.7978992462158203,1.0256907939910889,7.459999999999885
0.743058443069458,-1.1497106552124023,0.5674269199371338,7.469999999999885
1.0087878704071045,-0.42481422424316406,0.2875864505767822,7.479999999999885
1.3064249753952026,0.3313779830932617,0.30013537406921387,7.489999999999885
1.4253761768341064,1.0950727462768555,0.4438345432281494,7.4999999999998845
1.3583476543426514,1.988450050354004,0.5621812343597412,7.509999999999884
1.037800669670105,2.9660348892211914,0.932281494140625,7.519999999999884
0.6491747498512268,3.86765193939209,1.4053966999053955,7.529999999999884
0.06387394666671753,4.767840385437012,1.7630681991577148,7.539999999999884
-0.39891764521598816,5.563907623291016,2.3521363735198975,7.5499999999998835
-0.6296651363372803,6.026020050048828,3.384594678878784,7.559999999999883
-0.5562594532966614,6.1680402755737305,4.633795738220215,7.569999999999883
-0.5062040090560913,6.07303524017334,5.742219924926758,7.579999999999883
-0.4359930455684662,5.774065017700195,6.42560338973999,7.589999999999883
-0.29508790373802185,5.177927017211914,6.632451057434082,7.599999999999882
-0.12827017903327942,4.28502082824707,6.6738386154174805,7.609999999999882
0.09903222322463989,3.2107982635498047,6.5342254638671875,7.619999999999882
0.22523510456085205,2.077914237976074,6.175959587097168,7.629999999999882
0.08330130577087402,1.1525859832763672,5.4460601806640625,7.6399999999998816
-0.1252571940422058,0.47670841217041016,3.4669480323791504,7.649999999999881
-0.3851228356361389,-0.07744598388671875,1.3317945003509521,7.659999999999881
-0.7462717890739441,-0.5523824691772461,0.12921428680419922,7.669999999999881
-1.5459668636322021,-0.5707883834838867,-0.473987340927124,7.679999999999881
-2.393439769744873,0.7314691543579102,-1.4189260005950928,7.6899999999998805
-2.5679409503936768,3.0260791778564453,-2.0235822200775146,7.69999999999988
-2.2394232749938965,5.829115867614746,-2.117011070251465,7.70999999999988
-1.1742085218429565,8.485234260559082,-2.698525905609131,7.71999999999988
0.011665761470794678,10.963678359985352,-3.723623275756836,7.72999999999988
1.0678391456604004,13.17798137664795,-4.336344242095947,7.739999999999879
1.4170639514923096,14.174562454223633,-4.5926032066345215,7.749999999999879
0.21229469776153564,13.470418930053711,-5.093306541442871,7.759999999999879
-2.1331233978271484,10.84184455871582,-6.191495895385742,7.769999999999879
-4.863607883453369,7.483190536499023,-6.995738506317139,7.779999999999879
-6.699301242828369,4.592191696166992,-6.332971572875977,7.789999999999878
-7.018976211547852,2.2307443618774414,-5.066921710968018,7.799999999999878
-5.550437927246094,0.43682861328125,-3.3937246799468994,7.809999999999878
-3.5689268112182617,-0.6151542663574219,-1.7005313634872437,7.819999999999878
-2.075411081314087,-1.6719484329223633,0.07968497276306152,7.8299999999998775
-0.8204808235168457,-2.8003807067871094,1.3754265308380127,7.839999999999877
1.1646747589111328E-4,-3.8040595054626465,1.5526301860809326,7.849999999999877
0.7810577750205994,-4.680728435516357,1.0565681457519531,7.859999999999877
0.9831908941268921,-4.992961883544922,0.31786632537841797,7.869999999999877
0.19330906867980957,-4.487832069396973,-0.4032738208770752,7.879999999999876
0.41884493827819824,-4.1708574295043945,-1.0281065702438354,7.889999999999876
1.202736735343933,-3.9850287437438965,-1.3357198238372803,7.899999999999876
1.4030605554580688,-3.612766742706299,-1.5018424987792969,7.909999999999876
1.0491926670074463,-3.348759651184082,-1.919835090637207,7.919999999999876
0.9474725127220154,-3.3081107139587402,-2.3913748264312744,7.929999999999875
0.8919814229011536,-3.168555736541748,-2.6667065620422363,7.939999999999875
0.8994147777557373,-3.1031599044799805,-3.062988519668579,7.949999999999875
0.9747548699378967,-2.5863733291625977,-3.2519423961639404,7.959999999999875
0.8495742678642273,-1.640315055847168,-3.3760032653808594,7.9699999999998745
0.5513262152671814,-0.27697086334228516,-3.4572224617004395,7.979999999999874
-0.005925774574279785,1.157297134399414,-3.571563482284546,7.989999999999874
-0.8113257884979248,2.615677833557129,-3.6500658988952637,7.999999999999874
