AccX,AccY,AccZ,SampleRate
0.6552774906158447,-4.000386714935303,-2.7946979999542236,0
1.2084321975708008,-3.9189419746398926,-3.228529930114746,0.01
1.7596749067306519,-3.316526412963867,-3.536336898803711,0.02
2.0168752670288086,-2.389467716217041,-3.8362207412719727,0.03
1.8061294555664062,-1.2330379486083984,-4.050847053527832,0.04
1.2734053134918213,-0.025946617126464844,-4.124856948852539,0.05
0.5621984601020813,1.1345348358154297,-3.9193763732910156,0.060000000000000005
-0.3058363199234009,1.959859848022461,-3.6015501022338867,0.07
-1.1414119005203247,2.381598472595215,-3.0532350540161133,0.08
-2.04410982131958,2.4674911499023438,-2.3114702701568604,0.09
-2.4996659755706787,2.0267276763916016,-1.5920206308364868,0.09999999999999999
-2.5260438919067383,1.1769952774047852,-0.95716392993927,0.10999999999999999
-2.190777540206909,0.011829376220703125,-0.571682333946228,0.11999999999999998
-1.8935432434082031,-1.2558393478393555,-0.44467735290527344,0.12999999999999998
-1.7186886072158813,-2.3655333518981934,-0.4726637601852417,0.13999999999999999
-1.6576976776123047,-3.2675089836120605,-0.6668079495429993,0.15
-1.6645386219024658,-3.811613082885742,-0.9784554243087769,0.16
-1.7006691694259644,-4.060632228851318,-1.2824968099594116,0.17
-1.6805152893066406,-4.120177268981934,-1.5188393592834473,0.18000000000000002
-1.4802697896957397,-3.9402894973754883,-1.6156715154647827,0.19000000000000003
-1.1169075965881348,-3.487844944000244,-1.618491768836975,0.20000000000000004
-0.7126705646514893,-3.0094404220581055,-1.6255710124969482,0.21000000000000005
-0.3347649574279785,-2.481142044067383,-1.5511260032653809,0.22000000000000006
0.050380170345306396,-2.0248990058898926,-1.4555336236953735,0.23000000000000007
0.4333590865135193,-1.6238594055175781,-1.3511929512023926,0.24000000000000007
0.7474738359451294,-1.2707738876342773,-1.2552623748779297,0.25000000000000006
0.9331228137016296,-1.0492334365844727,-1.1467515230178833,0.26000000000000006
1.0434205532073975,-0.9399595260620117,-1.1050554513931274,0.2700000000000001
1.11229407787323,-0.9141550064086914,-1.053826093673706,0.2800000000000001
1.0419398546218872,-0.8809223175048828,-0.9785830974578857,0.2900000000000001
0.8610552549362183,-0.9717807769775391,-0.9318875074386597,0.3000000000000001
0.768281102180481,-1.0861988067626953,-0.7650662660598755,0.3100000000000001
0.6796969175338745,-1.1667985916137695,-0.5041497945785522,0.3200000000000001
0.6145080924034119,-1.2853899002075195,-0.2515624463558197,0.3300000000000001
0.4410860538482666,-1.3247852325439453,-0.06655167043209076,0.34000000000000014
0.24069517850875854,-1.3591880798339844,-0.01615193486213684,0.35000000000000014
0.17598086595535278,-1.3862085342407227,-0.04078371822834015,0.36000000000000015
0.017384111881256104,-1.3747835159301758,-0.09069988131523132,0.37000000000000016
-0.03147566318511963,-1.4923419952392578,-0.08517386019229889,0.38000000000000017
0.0033960938453674316,-1.5092344284057617,-0.012808509171009064,0.3900000000000002
-0.0715947151184082,-1.289351463317871,0.1357458531856537,0.4000000000000002
-0.13709640502929688,-1.1318540573120117,0.3845776617527008,0.4100000000000002
-0.17662537097930908,-0.9362325668334961,0.5377126336097717,0.4200000000000002
-0.12602484226226807,-0.6642656326293945,0.6096718311309814,0.4300000000000002
0.021456003189086914,-0.2610607147216797,0.7249599099159241,0.4400000000000002
0.13375765085220337,0.12498664855957031,0.7394168376922607,0.45000000000000023
0.2885907292366028,0.36005115509033203,0.6190358400344849,0.46000000000000024
0.4231356978416443,0.6427774429321289,0.6556110382080078,0.47000000000000025
0.5803226828575134,1.0735015869140625,0.9500117301940918,0.48000000000000026
0.5563008785247803,1.300581932067871,1.230055332183838,0.49000000000000027
0.5208146572113037,1.4820919036865234,1.572853922843933,0.5000000000000002
0.440126895904541,1.400517463684082,1.8757333755493164,0.5100000000000002
0.4126341938972473,1.6897649765014648,2.337498426437378,0.5200000000000002
0.17227286100387573,1.5986146926879883,2.6570940017700195,0.5300000000000002
0.17142590880393982,1.5602989196777344,2.8202965259552,0.5400000000000003
0.47510409355163574,1.7349052429199219,2.949526786804199,0.5500000000000003
0.9017456769943237,1.9643268585205078,2.9468774795532227,0.5600000000000003
1.5015950202941895,2.1121978759765625,2.8362691402435303,0.5700000000000003
2.1427972316741943,2.123626708984375,2.672551393508911,0.5800000000000003
2.8276000022888184,2.103982925415039,2.445992946624756,0.5900000000000003
3.5461409091949463,2.0556936264038086,2.1183173656463623,0.6000000000000003
4.111701011657715,2.0887794494628906,1.9098830223083496,0.6100000000000003
4.703761577606201,2.1505308151245117,1.8516877889633179,0.6200000000000003
5.135595798492432,2.183505058288574,1.7563910484313965,0.6300000000000003
5.467034339904785,2.3407506942749023,1.7912418842315674,0.6400000000000003
5.618960857391357,2.653201103210449,1.779740571975708,0.6500000000000004
5.586177349090576,3.02266788482666,1.56051766872406,0.6600000000000004
5.458901882171631,3.494537353515625,1.0770273208618164,0.6700000000000004
5.25352144241333,4.0543317794799805,0.5373218655586243,0.6800000000000004
4.953475475311279,4.625414848327637,0.1272089034318924,0.6900000000000004
4.530257701873779,5.126453399658203,-0.3628208041191101,0.7000000000000004
3.9389305114746094,5.380572319030762,-1.015741229057312,0.7100000000000004
3.2420737743377686,5.378495216369629,-1.8497519493103027,0.7200000000000004
2.425353765487671,5.111008644104004,-2.7339861392974854,0.7300000000000004
1.5819255113601685,4.518736839294434,-3.5273916721343994,0.7400000000000004
0.7310712933540344,3.6547555923461914,-4.136890888214111,0.7500000000000004
-0.17443101108074188,2.7346324920654297,-4.422686576843262,0.7600000000000005
-0.9324144124984741,2.033390998840332,-4.315002918243408,0.7700000000000005
-1.6083146333694458,1.6129226684570312,-3.741110324859619,0.7800000000000005
-2.1719894409179688,1.4992189407348633,-2.8662197589874268,0.7900000000000005
-2.6943578720092773,1.5867671966552734,-2.3384311199188232,0.8000000000000005
-3.0577030181884766,1.700881004333496,-2.3342444896698,0.8100000000000005
-3.3767507076263428,1.7866973876953125,-2.5996837615966797,0.8200000000000005
-3.6922607421875,1.763153076171875,-2.837555408477783,0.8300000000000005
-3.8275017738342285,1.7214374542236328,-2.9127097129821777,0.8400000000000005
-3.907335042953491,1.726266860961914,-2.906928062438965,0.8500000000000005
-3.942033290863037,1.906754493713379,-2.9324238300323486,0.8600000000000005
-3.9228525161743164,2.250666618347168,-2.933701992034912,0.8700000000000006
-3.8795714378356934,2.561614990234375,-2.958604335784912,0.8800000000000006
-3.7062418460845947,2.8108339309692383,-2.9719178676605225,0.8900000000000006
-3.598555564880371,2.9528732299804688,-2.7812163829803467,0.9000000000000006
-3.560190200805664,2.9303770065307617,-2.3861136436462402,0.9100000000000006
-3.5295023918151855,2.86301326751709,-1.7652192115783691,0.9200000000000006
-3.5013883113861084,2.781844139099121,-1.1010161638259888,0.9300000000000006
-3.5182271003723145,2.7466678619384766,-0.5261932611465454,0.9400000000000006
-3.449922561645508,2.7742090225219727,-0.12325596809387207,0.9500000000000006
-3.367462635040283,2.7831668853759766,0.11388909816741943,0.9600000000000006
-3.2248852252960205,2.6063222885131836,0.2056903839111328,0.9700000000000006
-3.0575509071350098,2.3372697830200195,0.14418673515319824,0.9800000000000006
-2.8101072311401367,1.9451093673706055,-0.0016074180603027344,0.9900000000000007
-2.5184972286224365,1.5208873748779297,-0.2530989646911621,1.0000000000000007
-2.029449939727783,1.0860977172851562,-0.5428352355957031,1.0100000000000007
-1.4237868785858154,0.5617218017578125,-0.8082267045974731,1.0200000000000007
-0.9400142431259155,0.045769691467285156,-0.9533967971801758,1.0300000000000007
-0.43105006217956543,-0.4859323501586914,-0.9875286221504211,1.0400000000000007
0.01594996452331543,-1.1556577682495117,-1.0391947031021118,1.0500000000000007
0.17239618301391602,-1.74827241897583,-1.1751055717468262,1.0600000000000007
0.3048189878463745,-2.3740062713623047,-1.426454782485962,1.0700000000000007
0.3057832717895508,-3.020854949951172,-1.5903722047805786,1.0800000000000007
0.17514455318450928,-3.5620040893554688,-1.6530036926269531,1.0900000000000007
0.19329893589019775,-3.9882283210754395,-1.7193272113800049,1.1000000000000008
0.11137986183166504,-4.345162391662598,-1.8634451627731323,1.1100000000000008
0.027289867401123047,-4.606571197509766,-1.9658186435699463,1.1200000000000008
0.08909761905670166,-4.791765213012695,-1.8469756841659546,1.1300000000000008
0.1866079568862915,-4.889013767242432,-1.5976461172103882,1.1400000000000008
0.1302429437637329,-4.874564170837402,-1.3036422729492188,1.1500000000000008
0.0391383171081543,-4.736647129058838,-1.0459140539169312,1.1600000000000008
0.05640006065368652,-4.580699920654297,-0.8288215398788452,1.1700000000000008
0.07615983486175537,-4.447483539581299,-0.5896596908569336,1.1800000000000008
0.09797608852386475,-4.32744026184082,-0.349761962890625,1.1900000000000008
0.023165464401245117,-4.175084114074707,-0.23340368270874023,1.2000000000000008
-0.05301940441131592,-4.102783679962158,-0.13764500617980957,1.2100000000000009
-0.1861785650253296,-3.9860053062438965,-0.08413290977478027,1.2200000000000009
-0.2904015779495239,-3.862999439239502,-0.03236842155456543,1.2300000000000009
-0.3347856402397156,-3.922640800476074,0.0438227653503418,1.2400000000000009
-0.5087891817092896,-3.851378917694092,0.1418614387512207,1.2500000000000009
-0.6356385350227356,-3.7616872787475586,0.19700312614440918,1.260000000000001
-0.6892934441566467,-3.7252612113952637,0.20672941207885742,1.270000000000001
-0.7198923826217651,-3.7420401573181152,0.23314976692199707,1.280000000000001
-0.7129096984863281,-3.7426600456237793,0.29059267044067383,1.290000000000001
-0.6991451978683472,-3.779820442199707,0.2834346294403076,1.300000000000001
-0.5129305124282837,-3.927736759185791,0.2955782413482666,1.310000000000001
-0.3259950876235962,-4.162477016448975,0.2601284980773926,1.320000000000001
-0.11371588706970215,-4.414672374725342,0.2034306526184082,1.330000000000001
0.1459132432937622,-4.689138412475586,0.17571616172790527,1.340000000000001
0.37195658683776855,-4.90446662902832,0.15742754936218262,1.350000000000001
0.552721381187439,-5.017529010772705,0.10976839065551758,1.360000000000001
0.525468111038208,-4.8489155769348145,0.10878467559814453,1.370000000000001
0.469346284866333,-4.465702533721924,0.09415316581726074,1.380000000000001
0.5012623071670532,-4.071229457855225,0.08463788032531738,1.390000000000001
0.5417950749397278,-3.667820453643799,0.03235340118408203,1.400000000000001
0.5497110486030579,-3.2937464714050293,0.0380244255065918,1.410000000000001
0.5817283987998962,-2.9180150032043457,0.03052067756652832,1.420000000000001
0.61539226770401,-2.6005020141601562,0.03916454315185547,1.430000000000001
0.5207334160804749,-2.2981481552124023,0.021326541900634766,1.440000000000001
0.5075825452804565,-2.0036191940307617,-0.03756880760192871,1.450000000000001
0.515583336353302,-1.7668628692626953,-0.14298772811889648,1.460000000000001
0.4628026485443115,-1.4989986419677734,-0.27435922622680664,1.470000000000001
0.35375434160232544,-1.1113109588623047,-0.2508523464202881,1.480000000000001
0.2721121311187744,-0.6779146194458008,-0.12346458435058594,1.490000000000001
0.05998420715332031,-0.09835243225097656,0.13599085807800293,1.500000000000001
-0.32070136070251465,0.5724430084228516,0.23712372779846191,1.5100000000000011
-0.7236299514770508,1.3563833236694336,-0.003452777862548828,1.5200000000000011
-1.1217960119247437,2.1631526947021484,-0.40375208854675293,1.5300000000000011
-1.461681604385376,3.026614189147949,-0.582648754119873,1.5400000000000011
-1.7330551147460938,3.8988494873046875,-0.3061232566833496,1.5500000000000012
-1.981054663658142,4.741272926330566,0.34749841690063477,1.5600000000000012
-2.267683744430542,5.493465423583984,1.2462413311004639,1.5700000000000012
-2.513463020324707,5.956172943115234,2.321061372756958,1.5800000000000012
-2.6820168495178223,6.250624656677246,3.4579951763153076,1.5900000000000012
-2.8064839839935303,6.330684661865234,4.473215103149414,1.6000000000000012
-2.9655799865722656,6.1530866622924805,4.942641735076904,1.6100000000000012
-2.944734573364258,5.615293502807617,5.044034957885742,1.6200000000000012
-2.8480429649353027,4.758530616760254,4.944999694824219,1.6300000000000012
-2.5443763732910156,3.7840805053710938,4.758050918579102,1.6400000000000012
-2.165177345275879,2.8023738861083984,4.4870500564575195,1.6500000000000012
-1.8874090909957886,2.070507049560547,3.635680675506592,1.6600000000000013
-1.8163201808929443,1.5707330703735352,2.543813467025757,1.6700000000000013
-2.0753262042999268,1.3020439147949219,1.477311372756958,1.6800000000000013
-2.3555004596710205,1.2053031921386719,0.7521076202392578,1.6900000000000013
-2.3851544857025146,2.095834732055664,0.09291815757751465,1.7000000000000013
-2.094057083129883,4.10324764251709,-0.36185765266418457,1.7100000000000013
-1.5010168552398682,6.426217079162598,-0.6370828151702881,1.7200000000000013
-0.856683075428009,8.558187484741211,-0.9691016674041748,1.7300000000000013
-0.04798388481140137,10.181619644165039,-1.4445481300354004,1.7400000000000013
0.8107589483261108,11.332664489746094,-2.0607357025146484,1.7500000000000013
1.3425616025924683,12.037801742553711,-2.8108744621276855,1.7600000000000013
1.4375200271606445,11.949112892150879,-3.5837433338165283,1.7700000000000014
1.0145835876464844,10.613547325134277,-4.350059509277344,1.7800000000000014
-0.027908921241760254,8.077924728393555,-4.75543212890625,1.7900000000000014
-1.6365742683410645,4.5903520584106445,-4.8865556716918945,1.8000000000000014
-2.919206142425537,1.3543462753295898,-4.622515678405762,1.8100000000000014
-3.4073104858398438,-1.23699951171875,-3.9820914268493652,1.8200000000000014
-3.248161792755127,-2.987400531768799,-3.2917191982269287,1.8300000000000014
-2.6336822509765625,-4.081061840057373,-2.7715587615966797,1.8400000000000014
-1.7876250743865967,-4.877114772796631,-2.0486645698547363,1.8500000000000014
-0.8423051238059998,-5.45505428314209,-1.1002811193466187,1.8600000000000014
0.30326104164123535,-5.971023082733154,-0.2762911319732666,1.8700000000000014
1.319999098777771,-6.258045673370361,0.16424107551574707,1.8800000000000014
1.2205308675765991,-5.890784740447998,0.1221773624420166,1.8900000000000015
1.2376707792282104,-5.238339424133301,-0.20328974723815918,1.9000000000000015
1.5580742359161377,-4.592994213104248,-0.7715089321136475,1.9100000000000015
1.9145716428756714,-4.007774829864502,-1.3764475584030151,1.9200000000000015
2.06329345703125,-3.4019293785095215,-1.9571595191955566,1.9300000000000015
2.1131482124328613,-2.895653247833252,-2.4234607219696045,1.9400000000000015
2.2628819942474365,-2.5205764770507812,-2.603292942047119,1.9500000000000015
2.5425610542297363,-2.0284252166748047,-2.575653553009033,1.9600000000000015
2.9368467330932617,-1.6923952102661133,-2.6515731811523438,1.9700000000000015
3.3025927543640137,-0.7643585205078125,-2.5608673095703125,1.9800000000000015
3.6001033782958984,0.15479564666748047,-2.7791361808776855,1.9900000000000015
3.422423839569092,1.204427719116211,-2.8768856525421143,2.0000000000000013
2.5360107421875,2.148794174194336,-2.9142608642578125,2.010000000000001
1.2638216018676758,2.5995664596557617,-2.9065823554992676,2.020000000000001
-0.059411704540252686,2.649280548095703,-2.6895432472229004,2.0300000000000007
-1.2706183195114136,2.4497547149658203,-2.210739850997925,2.0400000000000005
-2.054597854614258,1.9897136688232422,-1.6495720148086548,2.0500000000000003
-2.5064477920532227,1.305349349975586,-0.9858712553977966,2.06
-2.6535003185272217,0.45412445068359375,-0.33042991161346436,2.07
-2.673400402069092,-0.6717166900634766,-0.001146078109741211,2.0799999999999996
-2.679438829421997,-1.7709383964538574,0.06993758678436279,2.0899999999999994
-2.7471706867218018,-2.7793312072753906,-0.0299990177154541,2.099999999999999
-2.9431135654449463,-3.637519359588623,-0.2062664031982422,2.109999999999999
-3.0829086303710938,-4.202423572540283,-0.4099060297012329,2.1199999999999988
-3.185614585876465,-4.558263301849365,-0.59211266040802,2.1299999999999986
-3.1556286811828613,-4.6814985275268555,-0.8094903230667114,2.1399999999999983
-3.019620418548584,-4.433761119842529,-1.1284557580947876,2.149999999999998
-2.6798765659332275,-4.004413604736328,-1.4337271451950073,2.159999999999998
-2.1795144081115723,-3.443859100341797,-1.7327425479888916,2.1699999999999977
-1.6476333141326904,-2.7474565505981445,-1.9205546379089355,2.1799999999999975
-1.078739047050476,-1.9895730018615723,-1.937427043914795,2.1899999999999973
-0.6541996002197266,-1.3687820434570312,-1.9675487279891968,2.199999999999997
-0.3424661159515381,-0.8466424942016602,-2.0039918422698975,2.209999999999997
-0.10221129655838013,-0.48043251037597656,-2.0495059490203857,2.2199999999999966
0.05982685089111328,-0.2794942855834961,-2.045121669769287,2.2299999999999964
0.06719934940338135,-0.2364034652709961,-1.8745009899139404,2.239999999999996
-0.04888051748275757,-0.22183704376220703,-1.52378511428833,2.249999999999996
-0.20242249965667725,-0.2668418884277344,-1.0839098691940308,2.259999999999996
-0.34586167335510254,-0.4717531204223633,-0.6361594200134277,2.2699999999999956
-0.45323050022125244,-0.6498470306396484,-0.20192350447177887,2.2799999999999954
-0.5796381235122681,-0.8944072723388672,0.09203192591667175,2.289999999999995
-0.5933656692504883,-1.2747087478637695,0.288551926612854,2.299999999999995
-0.6164595484733582,-1.503652572631836,0.37747061252593994,2.3099999999999947
-0.6465994119644165,-1.679469108581543,0.37224069237709045,2.3199999999999945
-0.4707779288291931,-1.7496719360351562,0.2787950336933136,2.3299999999999943
-0.16797322034835815,-1.7359752655029297,0.24197714030742645,2.339999999999994
0.21115928888320923,-1.7102470397949219,0.3114756941795349,2.349999999999994
0.4720152020454407,-1.6174821853637695,0.6001622676849365,2.3599999999999937
0.7216991186141968,-1.4481639862060547,0.9824774861335754,2.3699999999999934
0.9958267211914062,-1.2836523056030273,1.331115961074829,2.3799999999999932
1.1241633892059326,-1.0593376159667969,1.4033682346343994,2.389999999999993
1.0278385877609253,-0.9067974090576172,1.238000512123108,2.399999999999993
1.3690873384475708,-0.29271602630615234,1.0717506408691406,2.4099999999999926
1.2736217975616455,-0.011509895324707031,0.7077924013137817,2.4199999999999924
1.3825666904449463,0.283905029296875,0.48284631967544556,2.429999999999992
1.4775867462158203,0.6030550003051758,0.475419282913208,2.439999999999992
1.4072389602661133,0.8191776275634766,0.7405462265014648,2.4499999999999917
1.370118260383606,0.8128252029418945,1.2114317417144775,2.4599999999999915
1.6632620096206665,0.9883480072021484,1.924340009689331,2.4699999999999913
1.5276813507080078,1.0059757232666016,2.544447660446167,2.479999999999991
1.6168817281723022,1.2556304931640625,2.9501278400421143,2.489999999999991
1.9381232261657715,1.693943977355957,3.002781391143799,2.4999999999999907
2.249401092529297,2.1365489959716797,2.762608051300049,2.5099999999999905
2.657844066619873,2.44234561920166,2.3876399993896484,2.5199999999999902
3.3111166954040527,2.6377992630004883,2.0026357173919678,2.52999999999999
3.9789834022521973,2.9693374633789062,1.6774322986602783,2.53999999999999
4.591882705688477,3.221590995788574,1.452898383140564,2.5499999999999896
5.009317398071289,3.358783721923828,1.4796862602233887,2.5599999999999894
5.584218502044678,3.517317771911621,1.522592306137085,2.569999999999989
5.5667619705200195,3.364781379699707,1.4593894481658936,2.579999999999989
5.202253341674805,3.1980409622192383,1.3400952816009521,2.5899999999999888
4.545997619628906,3.0195131301879883,1.1506022214889526,2.5999999999999885
3.8126487731933594,2.9248733520507812,0.7285677194595337,2.6099999999999883
2.9228286743164062,3.1602859497070312,0.08814755082130432,2.619999999999988
2.433534622192383,3.5818309783935547,-0.5873672962188721,2.629999999999988
1.9012272357940674,4.284891128540039,-1.033575415611267,2.6399999999999877
1.244354009628296,4.903267860412598,-1.2561116218566895,2.6499999999999875
0.4627670347690582,5.2314348220825195,-1.4925339221954346,2.6599999999999873
-0.5133296251296997,5.157386779785156,-1.9421205520629883,2.669999999999987
-1.2630759477615356,4.605136871337891,-2.5289103984832764,2.679999999999987
-1.7982970476150513,3.7785825729370117,-2.9445066452026367,2.6899999999999866
-1.7997517585754395,2.843109130859375,-2.9836254119873047,2.6999999999999864
-1.5913970470428467,1.9590930938720703,-2.5849690437316895,2.709999999999986
-1.432599425315857,1.4254064559936523,-1.8886661529541016,2.719999999999986
-1.394137978553772,1.2153987884521484,-1.1328229904174805,2.7299999999999858
-1.4133200645446777,1.388594627380371,-0.6218742728233337,2.7399999999999856
-1.439939022064209,1.808426856994629,-0.6687381863594055,2.7499999999999853
-1.448144555091858,2.1998443603515625,-1.0065287351608276,2.759999999999985
-1.5920512676239014,2.663532257080078,-1.3434932231903076,2.769999999999985
-1.6787424087524414,3.05129337310791,-1.6937062740325928,2.7799999999999847
-1.7904385328292847,3.2986936569213867,-2.047175168991089,2.7899999999999845
-1.9687672853469849,3.4680023193359375,-2.343554973602295,2.7999999999999843
-2.0544304847717285,3.535228729248047,-2.5346741676330566,2.809999999999984
-2.0601770877838135,3.4142189025878906,-2.6979100704193115,2.819999999999984
-2.050931215286255,3.150472640991211,-2.799232244491577,2.8299999999999836
-2.1437525749206543,2.861241340637207,-2.705343008041382,2.8399999999999834
-2.2185404300689697,2.556105613708496,-2.333911895751953,2.849999999999983
-2.296165943145752,2.347524642944336,-1.7442392110824585,2.859999999999983
-2.4572644233703613,2.247446060180664,-1.0769736766815186,2.869999999999983
-2.5649147033691406,2.236783027648926,-0.5181365609169006,2.8799999999999826
-2.6781766414642334,2.2677555084228516,-0.12883734703063965,2.8899999999999824
-2.6524922847747803,2.223233222961426,0.08301746845245361,2.899999999999982
-2.5228474140167236,2.0531368255615234,0.10517621040344238,2.909999999999982
-2.470991849899292,1.8628854751586914,-0.0430300235748291,2.9199999999999817
-2.2218551635742188,1.6979236602783203,-0.28919756412506104,2.9299999999999815
-1.8634533882141113,1.3619756698608398,-0.6107802391052246,2.9399999999999813
-1.2873358726501465,0.8813114166259766,-0.9541463255882263,2.949999999999981
-0.574381947517395,0.1698017120361328,-1.1511210203170776,2.959999999999981
0.02442312240600586,-0.6098756790161133,-1.1605181694030762,2.9699999999999807
0.4877680540084839,-1.3789443969726562,-1.1300549507141113,2.9799999999999804
0.7920576333999634,-2.0969977378845215,-1.1977930068969727,2.9899999999999802
0.836840033531189,-2.7403297424316406,-1.2675957679748535,2.99999999999998
0.7149735689163208,-3.258829116821289,-1.3226864337921143,3.00999999999998
0.768369197845459,-3.8104658126831055,-1.313096284866333,3.0199999999999796
0.6975269317626953,-4.237399101257324,-1.2341386079788208,3.0299999999999794
0.4546079635620117,-4.343799114227295,-1.2913661003112793,3.039999999999979
0.24533820152282715,-4.467237949371338,-1.4464391469955444,3.049999999999979
0.16966962814331055,-4.478521823883057,-1.4507715702056885,3.0599999999999787
0.03570544719696045,-4.377744674682617,-1.4314297437667847,3.0699999999999785
-0.04664766788482666,-4.203342914581299,-1.3429455757141113,3.0799999999999783
-0.2043895721435547,-3.936380386352539,-1.2042323350906372,3.089999999999978
-0.3923107981681824,-3.6033005714416504,-1.1707128286361694,3.099999999999978
-0.5103368759155273,-3.33809757232666,-1.1178522109985352,3.1099999999999777
-0.6618197560310364,-3.1454734802246094,-1.0312625169754028,3.1199999999999775
-0.9618424773216248,-3.0086259841918945,-0.9347977638244629,3.1299999999999772
-1.113969326019287,-2.9873433113098145,-0.8114962577819824,3.139999999999977
-1.2381446361541748,-3.0192694664001465,-0.7452602386474609,3.149999999999977
-1.3536372184753418,-3.1089868545532227,-0.8178009986877441,3.1599999999999766
-1.4842607975006104,-3.220345973968506,-0.9508299827575684,3.1699999999999764
-1.4166651964187622,-3.34841251373291,-1.077978491783142,3.179999999999976
-1.2867562770843506,-3.696474075317383,-1.0582778453826904,3.189999999999976
-1.2788751125335693,-3.8793282508850098,-0.8965339660644531,3.1999999999999758
-1.1800956726074219,-4.088687896728516,-0.6616361141204834,3.2099999999999755
-0.951784610748291,-4.537539958953857,-0.35329675674438477,3.2199999999999753
-0.7799820303916931,-4.917342662811279,-0.11237907409667969,3.229999999999975
-0.5536659955978394,-5.331313133239746,-0.02203202247619629,3.239999999999975
-0.38935303688049316,-5.7582292556762695,-0.02884697914123535,3.2499999999999747
-0.43256986141204834,-6.040589809417725,-0.15824174880981445,3.2599999999999745
-0.2954789400100708,-6.288915634155273,-0.2896602153778076,3.2699999999999743
-0.14342021942138672,-6.48670768737793,-0.3197054862976074,3.279999999999974
-0.0030347108840942383,-6.5647172927856445,-0.2793846130371094,3.289999999999974
0.014626145362854004,-6.408077716827393,-0.2025010585784912,3.2999999999999736
-0.17060983180999756,-5.882819175720215,-0.13257980346679688,3.3099999999999734
-0.13128352165222168,-5.273583889007568,-0.0033125877380371094,3.319999999999973
-0.03779804706573486,-4.730911731719971,0.09875321388244629,3.329999999999973
0.03515017032623291,-4.249805927276611,0.16157197952270508,3.3399999999999728
0.1037970781326294,-3.782327175140381,0.18535995483398438,3.3499999999999726
0.1416720151901245,-3.31638765335083,0.10303831100463867,3.3599999999999723
0.2203902006149292,-2.789599895477295,-0.1048581600189209,3.369999999999972
0.45481204986572266,-2.3142895698547363,-0.19940495491027832,3.379999999999972
0.6992871761322021,-1.816178798675537,-0.12366008758544922,3.3899999999999717
0.970931887626648,-1.2855920791625977,-0.005029439926147461,3.3999999999999715
1.2152378559112549,-0.7485933303833008,0.1387004852294922,3.4099999999999713
1.4325451850891113,-0.22153472900390625,0.3037757873535156,3.419999999999971
1.4893981218338013,0.3033609390258789,0.35173964500427246,3.429999999999971
1.3768986463546753,0.8795299530029297,0.2341911792755127,3.4399999999999706
1.1938616037368774,1.5986080169677734,0.2014636993408203,3.4499999999999704
0.8499329090118408,2.4418821334838867,0.40635061264038086,3.45999999999997
0.35489416122436523,3.45009708404541,0.9263365268707275,3.46999999999997
-0.25313258171081543,4.5725250244140625,1.7071478366851807,3.47999999999997
-0.9007565379142761,5.674431800842285,2.5742900371551514,3.4899999999999696
-1.4310522079467773,6.671338081359863,3.4903130531311035,3.4999999999999694
-1.8735660314559937,7.3281402587890625,4.396433353424072,3.509999999999969
-2.1065173149108887,7.587287902832031,5.148815631866455,3.519999999999969
-2.2036571502685547,7.4276838302612305,5.267038345336914,3.5299999999999687
-2.356410026550293,6.866702079772949,5.29189395904541,3.5399999999999685
-2.5058834552764893,5.878665924072266,5.431460380554199,3.5499999999999683
-2.5591912269592285,4.7996063232421875,4.87994384765625,3.559999999999968
-2.4272961616516113,3.970364570617676,3.806363344192505,3.569999999999968
-2.3751840591430664,3.44419002532959,2.5622169971466064,3.5799999999999677
-2.5785562992095947,3.2878808975219727,1.3439135551452637,3.5899999999999674
-2.718113422393799,3.6700897216796875,0.025238037109375,3.5999999999999672
-2.3794636726379395,4.770777702331543,-1.0436820983886719,3.609999999999967
-1.632348895072937,6.312471389770508,-1.452742576599121,3.619999999999967
-0.8657144904136658,7.922215461730957,-1.6787941455841064,3.6299999999999666
-0.15861845016479492,9.366262435913086,-2.195631980895996,3.6399999999999664
0.1542419195175171,10.354106903076172,-3.0782828330993652,3.649999999999966
0.3550525903701782,10.684330940246582,-4.096908092498779,3.659999999999966
0.5070611238479614,10.223200798034668,-4.815522193908691,3.6699999999999657
0.05254769325256348,8.867297172546387,-5.184535980224609,3.6799999999999655
-1.1646002531051636,6.622336387634277,-5.494318008422852,3.6899999999999653
-2.4317994117736816,3.7043514251708984,-5.393327713012695,3.699999999999965
-3.139683961868286,1.0334415435791016,-4.6378092765808105,3.709999999999965
-3.152026414871216,-0.912287712097168,-3.764120578765869,3.7199999999999647
-2.8442940711975098,-2.167306423187256,-3.0704681873321533,3.7299999999999645
-2.172741651535034,-2.8449549674987793,-2.1947803497314453,3.7399999999999642
-1.4713659286499023,-2.983945369720459,-1.3193851709365845,3.749999999999964
-0.5665112733840942,-2.7494091987609863,-0.7612473964691162,3.759999999999964
0.2376757264137268,-2.327930450439453,-0.5067782402038574,3.7699999999999636
0.6283472776412964,-1.9515361785888672,-0.5991599559783936,3.7799999999999634
0.40850019454956055,-1.3284101486206055,-0.8686192035675049,3.789999999999963
0.37259984016418457,-0.6502561569213867,-0.9710218906402588,3.799999999999963
0.5757298469543457,-0.06310749053955078,-1.0674623250961304,3.8099999999999627
0.8693921566009521,0.26082611083984375,-1.2230013608932495,3.8199999999999625
1.2144625186920166,0.39092159271240234,-1.430127501487732,3.8299999999999623
1.298003077507019,0.240997314453125,-1.7212398052215576,3.839999999999962
1.225446105003357,-0.1747608184814453,-1.9173407554626465,3.849999999999962
1.4257502555847168,-0.9738941192626953,-2.154676914215088,3.8599999999999617
1.3100579977035522,-2.0320701599121094,-2.2873151302337646,3.8699999999999615
1.1754770278930664,-2.969010353088379,-2.4454917907714844,3.8799999999999613
1.1189155578613281,-3.6078500747680664,-2.8731837272644043,3.889999999999961
0.7655640840530396,-3.5182151794433594,-3.1549477577209473,3.899999999999961
0.287619948387146,-3.109241008758545,-3.40279483795166,3.9099999999999606
-0.39829450845718384,-2.3685202598571777,-3.4682326316833496,3.9199999999999604
-1.1397905349731445,-1.4750185012817383,-3.259963274002075,3.92999999999996
-2.0507898330688477,-0.600529670715332,-2.6045618057250977,3.93999999999996
-2.7969000339508057,-0.1846628189086914,-1.9622106552124023,3.9499999999999598
-3.1884946823120117,-0.006718635559082031,-1.3764716386795044,3.9599999999999596
-3.242414712905884,-0.20270633697509766,-0.9890292882919312,3.9699999999999593
-2.8259146213531494,-0.774714469909668,-0.6948134303092957,3.979999999999959
-2.4323883056640625,-1.5431671142578125,-0.4652683734893799,3.989999999999959
-2.014181137084961,-2.4434776306152344,-0.37230050563812256,3.9999999999999587
-1.8755781650543213,-3.2198591232299805,-0.3702382445335388,4.009999999999959
-1.7043135166168213,-3.7864913940429688,-0.5000056624412537,4.019999999999959
-1.6439824104309082,-4.129307746887207,-0.7282702326774597,4.0299999999999585
-1.652003526687622,-4.1242756843566895,-0.9447773098945618,4.039999999999958
-1.542050838470459,-3.860403537750244,-1.1416324377059937,4.049999999999958
-1.2954388856887817,-3.39790678024292,-1.3320677280426025,4.059999999999958
-1.0634467601776123,-2.8064141273498535,-1.589410424232483,4.069999999999958
-0.683591902256012,-2.1841354370117188,-1.9204593896865845,4.079999999999957
-0.14144808053970337,-1.6339397430419922,-2.1578006744384766,4.089999999999957
0.2831454277038574,-1.2322502136230469,-2.1749887466430664,4.099999999999957
0.6072141528129578,-0.9645290374755859,-1.975045919418335,4.109999999999957
0.8310234546661377,-0.8449583053588867,-1.6399900913238525,4.119999999999957
0.9571813941001892,-0.8924884796142578,-1.24702787399292,4.129999999999956
1.0744870901107788,-1.025634765625,-0.8543793559074402,4.139999999999956
1.139979362487793,-1.1749773025512695,-0.5225415825843811,4.149999999999956
1.2496148347854614,-1.2759943008422852,-0.21595905721187592,4.159999999999956
1.3748807907104492,-1.3383808135986328,0.03176657855510712,4.1699999999999555
1.4320672750473022,-1.422006607055664,0.33073511719703674,4.179999999999955
1.4545888900756836,-1.409719467163086,0.5950316190719604,4.189999999999955
1.4997658729553223,-1.3542718887329102,0.7603325843811035,4.199999999999955
1.5579934120178223,-1.2700958251953125,0.8700430393218994,4.209999999999955
1.595664143562317,-1.224191665649414,0.9962602257728577,4.2199999999999545
1.6605165004730225,-1.2189130783081055,1.0819971561431885,4.229999999999954
1.7119022607803345,-1.3259563446044922,1.051175832748413,4.239999999999954
1.8408091068267822,-1.4065027236938477,1.0000624656677246,4.249999999999954
1.843813419342041,-1.441446304321289,0.9866138696670532,4.259999999999954
1.8358138799667358,-1.4093103408813477,1.013711929321289,4.269999999999953
1.8097004890441895,-1.1906156539916992,1.1101726293563843,4.279999999999953
1.7322704792022705,-1.0342817306518555,1.1584736108779907,4.289999999999953
1.646989107131958,-0.7752609252929688,1.2443950176239014,4.299999999999953
1.4632467031478882,-0.5738964080810547,1.348408579826355,4.3099999999999525
1.272316813468933,-0.24361515045166016,1.6711394786834717,4.319999999999952
1.0139849185943604,-0.16475200653076172,1.858086347579956,4.329999999999952
0.8313980102539062,-0.01896190643310547,2.004906415939331,4.339999999999952
0.5996753573417664,0.1578350067138672,2.1430680751800537,4.349999999999952
0.5071038007736206,0.2388916015625,2.1149137020111084,4.3599999999999515
0.3976634740829468,0.692997932434082,2.2005982398986816,4.369999999999951
0.3162315785884857,0.9506006240844727,2.277981996536255,4.379999999999951
0.4587603211402893,1.2582168579101562,2.5144176483154297,4.389999999999951
0.7677828669548035,1.5511980056762695,2.811516284942627,4.399999999999951
1.1113367080688477,1.7745294570922852,2.948685646057129,4.40999999999995
1.4794660806655884,1.909123420715332,2.7511062622070312,4.41999999999995
2.0679683685302734,2.2993898391723633,2.388885498046875,4.42999999999995
2.433397054672241,2.4715709686279297,1.8938342332839966,4.43999999999995
2.9386799335479736,2.5358924865722656,1.3329607248306274,4.4499999999999496
3.3562915325164795,2.6024398803710938,0.8710806965827942,4.459999999999949
3.5908918380737305,2.668787956237793,0.7564831972122192,4.469999999999949
3.7342915534973145,2.6536331176757812,0.8644801378250122,4.479999999999949
3.8090789318084717,2.50209903717041,1.0085699558258057,4.489999999999949
3.780019760131836,2.204832077026367,1.0721964836120605,4.4999999999999485
3.6282408237457275,1.9270410537719727,0.99647456407547,4.509999999999948
3.523292303085327,1.6280746459960938,0.8993856906890869,4.519999999999948
3.2752606868743896,1.5040283203125,0.7406152486801147,4.529999999999948
2.854584217071533,1.533125877380371,0.25692909955978394,4.539999999999948
2.367602825164795,1.8059806823730469,-0.3366362154483795,4.549999999999947
1.7145702838897705,2.2170209884643555,-1.0023893117904663,4.559999999999947
1.1485943794250488,2.7875404357910156,-1.684126853942871,4.569999999999947
0.4471275508403778,3.187349319458008,-2.249048948287964,4.579999999999947
-0.3846951425075531,3.1895217895507812,-2.7555150985717773,4.589999999999947
-1.1643165349960327,2.785013198852539,-3.104426383972168,4.599999999999946
-1.7016382217407227,2.1369619369506836,-3.0440425872802734,4.609999999999946
-1.8321913480758667,1.5302715301513672,-2.404165744781494,4.619999999999946
-1.693217396736145,1.1466999053955078,-1.5023585557937622,4.629999999999946
-1.573134422302246,1.2467231750488281,-0.7820888757705688,4.6399999999999455
-1.3014293909072876,1.6984014511108398,-0.7072556018829346,4.649999999999945
-0.935295581817627,2.2910947799682617,-1.1522382497787476,4.659999999999945
-0.48888492584228516,2.8072643280029297,-1.773113489151001,4.669999999999945
-0.10129280388355255,3.201779365539551,-2.4383633136749268,4.679999999999945
0.109438955783844,3.561025619506836,-3.114319324493408,4.689999999999944
0.1349002718925476,4.050110816955566,-3.6547279357910156,4.699999999999944
-0.059597134590148926,4.738201141357422,-4.001772880554199,4.709999999999944
-0.2952604591846466,5.421689987182617,-4.15320348739624,4.719999999999944
-0.5345200300216675,5.964151382446289,-4.011967182159424,4.729999999999944
-0.9958833456039429,6.353666305541992,-3.617717742919922,4.739999999999943
-1.3081578016281128,6.382256507873535,-3.0564651489257812,4.749999999999943
-1.738206148147583,6.1363630294799805,-2.4942500591278076,4.759999999999943
-2.224447011947632,5.790836334228516,-1.946980357170105,4.769999999999943
-2.6240780353546143,5.467761039733887,-1.4239028692245483,4.7799999999999425
-3.031511068344116,5.145644187927246,-0.9199292659759521,4.789999999999942
-3.230888605117798,4.846097946166992,-0.5132091045379639,4.799999999999942
-3.567107677459717,4.571613311767578,-0.15204113721847534,4.809999999999942
-3.7751848697662354,4.193143844604492,0.16576623916625977,4.819999999999942
-3.5997414588928223,3.763439178466797,0.4717221260070801,4.8299999999999415
-3.40472412109375,3.2801570892333984,0.5391198396682739,4.839999999999941
-3.1041200160980225,2.7027082443237305,0.4426562786102295,4.849999999999941
-2.687999725341797,2.045475959777832,0.2952691316604614,4.859999999999941
-2.1459641456604004,1.2939949035644531,0.10731780529022217,4.869999999999941
-1.5870304107666016,0.45534229278564453,-0.13033974170684814,4.87999999999994
-1.0678138732910156,-0.42989444732666016,-0.352908730506897,4.88999999999994
-0.6667472124099731,-1.3044099807739258,-0.5363154411315918,4.89999999999994
-0.27831006050109863,-2.180266857147217,-0.6781560182571411,4.90999999999994
-0.0508650541305542,-2.9642181396484375,-0.8551499843597412,4.9199999999999395
-0.05857717990875244,-3.524899482727051,-1.0408759117126465,4.929999999999939
0.057576775550842285,-4.02524471282959,-1.216155767440796,4.939999999999939
0.2593346834182739,-4.43670129776001,-1.3953208923339844,4.949999999999939
0.26691269874572754,-4.706885814666748,-1.5374308824539185,4.959999999999939
0.22382032871246338,-4.929305553436279,-1.6087572574615479,4.9699999999999385
0.2636343240737915,-5.185349941253662,-1.6115591526031494,4.979999999999938
0.15381526947021484,-5.245508193969727,-1.576533317565918,4.989999999999938
0.06186819076538086,-5.189001083374023,-1.6231210231781006,4.999999999999938
-0.003013134002685547,-5.111619472503662,-1.602925419807434,5.009999999999938
-0.08449959754943848,-5.013380527496338,-1.4489264488220215,5.019999999999937
-0.25981104373931885,-4.9038519859313965,-1.2902426719665527,5.029999999999937
-0.49129319190979004,-4.730485439300537,-1.1312886476516724,5.039999999999937
-0.7343628406524658,-4.548296928405762,-1.0126254558563232,5.049999999999937
-0.9440209865570068,-4.4792609214782715,-1.0106151103973389,5.0599999999999365
-1.1088252067565918,-4.494492530822754,-1.1060997247695923,5.069999999999936
-1.151811122894287,-4.4839186668396,-1.1988261938095093,5.079999999999936
-1.1446161270141602,-4.430863857269287,-1.3104488849639893,5.089999999999936
-1.077919840812683,-4.399991035461426,-1.392991065979004,5.099999999999936
-0.992504894733429,-4.398445129394531,-1.4920003414154053,5.1099999999999355
-0.8116922974586487,-4.392758846282959,-1.47596275806427,5.119999999999935
-0.6210849285125732,-4.483489036560059,-1.4310250282287598,5.129999999999935
-0.44182413816452026,-4.6347126960754395,-1.3715894222259521,5.139999999999935
-0.48678702116012573,-4.6144585609436035,-1.2473596334457397,5.149999999999935
-0.3969164490699768,-4.633416175842285,-1.0607082843780518,5.159999999999934
-0.2821536064147949,-4.751457214355469,-0.8233513832092285,5.169999999999934
-0.16861116886138916,-4.884869575500488,-0.559063196182251,5.179999999999934
-0.05605745315551758,-5.0432658195495605,-0.2821211814880371,5.189999999999934
-0.09763401746749878,-5.073609828948975,-0.05937671661376953,5.199999999999934
-0.2433708906173706,-4.8923540115356445,0.17151117324829102,5.209999999999933
-0.30675846338272095,-4.67909574508667,0.3316771984100342,5.219999999999933
-0.3788238763809204,-4.4553751945495605,0.4570651054382324,5.229999999999933
-0.4884856343269348,-4.221164703369141,0.5118474960327148,5.239999999999933
-0.5739026665687561,-4.000278949737549,0.5198476314544678,5.2499999999999325
-0.6306362152099609,-3.787869453430176,0.58872389793396,5.259999999999932
-0.697440505027771,-3.526492118835449,0.7375764846801758,5.269999999999932
-0.7508500218391418,-3.3332905769348145,0.9399454593658447,5.279999999999932
-0.643064022064209,-3.088428497314453,1.1020724773406982,5.289999999999932
-0.5155113935470581,-2.8442835807800293,1.1992530822753906,5.299999999999931
-0.27740222215652466,-2.5406494140625,1.168046474456787,5.309999999999931
0.08311855792999268,-2.1842737197875977,0.9902124404907227,5.319999999999931
0.388957142829895,-1.6862449645996094,0.7383058071136475,5.329999999999931
0.6904277205467224,-1.0845794677734375,0.5328536033630371,5.339999999999931
0.994958758354187,-0.3863668441772461,0.3967876434326172,5.34999999999993
1.1831445693969727,0.43952369689941406,0.3293001651763916,5.35999999999993
1.2051172256469727,1.337972640991211,0.3539314270019531,5.36999999999993
1.1448484659194946,2.303934097290039,0.6193540096282959,5.37999999999993
0.9759290814399719,3.241483688354492,1.0446674823760986,5.3899999999999295
0.8197363018989563,4.033243179321289,1.5159413814544678,5.399999999999929
0.5006025433540344,4.758153915405273,1.9239447116851807,5.409999999999929
0.1303189992904663,5.332457542419434,2.3675355911254883,5.419999999999929
-0.19782114028930664,5.689079284667969,3.0055770874023438,5.429999999999929
-0.44952714443206787,5.684327125549316,3.870375633239746,5.4399999999999284
-0.6379977464675903,5.468883514404297,4.582521915435791,5.449999999999928
-0.8557184934616089,5.188769340515137,4.91514778137207,5.459999999999928
-1.078716516494751,4.781973838806152,5.227123260498047,5.469999999999928
-1.1114007234573364,4.229779243469238,5.395822048187256,5.479999999999928
-1.0358673334121704,3.7267961502075195,4.998328685760498,5.489999999999927
-0.9554156064987183,3.3099279403686523,4.077406883239746,5.499999999999927
-1.066051959991455,3.262554168701172,2.9380364418029785,5.509999999999927
-1.4176642894744873,3.7622270584106445,1.974341869354248,5.519999999999927
-1.8282451629638672,4.76304817199707,1.3605310916900635,5.5299999999999265
-2.147207260131836,6.326079368591309,0.6703336238861084,5.539999999999926
-1.9439191818237305,8.208123207092285,-0.0807337760925293,5.549999999999926
-1.0702755451202393,9.966947555541992,-0.5975863933563232,5.559999999999926
0.1687469482421875,11.274991035461426,-1.0788345336914062,5.569999999999926
1.1647886037826538,11.922306060791016,-1.8932327032089233,5.5799999999999255
1.6107970476150513,11.64703369140625,-2.9375319480895996,5.589999999999925
1.3308018445968628,10.415312767028809,-3.8881049156188965,5.599999999999925
0.5794180631637573,8.153929710388184,-4.611388206481934,5.609999999999925
-0.7735639810562134,4.870309829711914,-5.113862037658691,5.619999999999925
-1.756963849067688,1.3376092910766602,-5.058821201324463,5.629999999999924
-2.511810302734375,-1.5002808570861816,-4.632722854614258,5.639999999999924
-3.2021484375,-3.44465970993042,-4.123934268951416,5.649999999999924
-3.364931106567383,-4.823177337646484,-3.6198008060455322,5.659999999999924
-3.2230281829833984,-5.580252647399902,-3.322730779647827,5.6699999999999235
-2.919377565383911,-6.0599493980407715,-2.721141815185547,5.679999999999923
-2.555630683898926,-6.226105690002441,-1.61075758934021,5.689999999999923
-2.763089418411255,-5.710651874542236,-0.510366678237915,5.699999999999923
-2.7522802352905273,-4.937982082366943,0.0342106819152832,5.709999999999923
-2.4951555728912354,-4.107358932495117,0.02276301383972168,5.7199999999999225
-2.058770179748535,-3.142604351043701,-0.01968669891357422,5.729999999999922
-1.6888376474380493,-1.9030146598815918,-0.15974879264831543,5.739999999999922
-1.3048762083053589,-0.6212148666381836,-0.2197864055633545,5.749999999999922
-0.8409733772277832,0.4560546875,-0.3449397087097168,5.759999999999922
-0.1714426875114441,1.5459585189819336,-0.521428108215332,5.769999999999921
0.7861562967300415,2.516058921813965,-0.8135479688644409,5.779999999999921
1.5533398389816284,3.3823137283325195,-1.1581494808197021,5.789999999999921
2.211150646209717,3.582242012023926,-1.616868019104004,5.799999999999921
2.500558376312256,3.142608642578125,-2.290220022201538,5.809999999999921
2.425760269165039,2.3847312927246094,-2.8352324962615967,5.81999999999992
2.1835832595825195,1.352646827697754,-3.4900851249694824,5.82999999999992
1.7057093381881714,0.39663124084472656,-3.864955425262451,5.83999999999992
1.014706015586853,-0.3270435333251953,-4.054184913635254,5.84999999999992
0.2687995433807373,-0.7675561904907227,-3.989408016204834,5.8599999999999195
-0.41540247201919556,-0.9293174743652344,-3.594618797302246,5.869999999999919
-0.9508443474769592,-0.9221372604370117,-2.9653189182281494,5.879999999999919
-1.1859784126281738,-0.8679027557373047,-2.2414612770080566,5.889999999999919
-1.231864333152771,-0.9674158096313477,-1.7012141942977905,5.899999999999919
-1.0747041702270508,-1.0412607192993164,-1.2150466442108154,5.909999999999918
-0.9370856881141663,-1.2785625457763672,-0.9210281372070312,5.919999999999918
-0.900242805480957,-1.5932159423828125,-0.7441875338554382,5.929999999999918
-0.9109975099563599,-2.02835750579834,-0.738792359828949,5.939999999999918
-1.0019561052322388,-2.5553226470947266,-0.8994356989860535,5.949999999999918
-1.1099438667297363,-3.045071601867676,-1.1225864887237549,5.959999999999917
-1.164548635482788,-3.3973937034606934,-1.4102096557617188,5.969999999999917
-1.179357886314392,-3.6197757720947266,-1.6925098896026611,5.979999999999917
-1.1853172779083252,-3.609640121459961,-1.8829271793365479,5.989999999999917
-1.1058341264724731,-3.4031858444213867,-2.000279188156128,5.9999999999999165
-0.9242310523986816,-2.9791626930236816,-2.0777454376220703,6.009999999999916
-0.7409937381744385,-2.550604820251465,-2.113157272338867,6.019999999999916
-0.5012972950935364,-1.9859180450439453,-1.9922045469284058,6.029999999999916
-0.3629741072654724,-1.4214897155761719,-1.7397007942199707,6.039999999999916
-0.37563371658325195,-1.0414457321166992,-1.5189074277877808,6.0499999999999154
-0.4697154760360718,-0.7737932205200195,-1.3255877494812012,6.059999999999915
-0.6141078472137451,-0.6183671951293945,-1.0980687141418457,6.069999999999915
-0.7944812178611755,-0.5965585708618164,-0.6621013879776001,6.079999999999915
-0.999058723449707,-0.7895174026489258,-0.07992017269134521,6.089999999999915
-1.2088415622711182,-1.0917863845825195,0.3782152235507965,6.099999999999914
-1.258655071258545,-1.5176029205322266,0.6737058162689209,6.109999999999914
-1.2585856914520264,-1.956840991973877,0.7722477912902832,6.119999999999914
-1.1295329332351685,-2.282810688018799,0.7759808301925659,6.129999999999914
-1.0050512552261353,-2.481403350830078,0.6318552494049072,6.1399999999999135
-0.827597439289093,-2.469158172607422,0.5026747584342957,6.149999999999913
-0.6383100748062134,-2.2391719818115234,0.362836629152298,6.159999999999913
-0.43551701307296753,-1.7558231353759766,0.37355852127075195,6.169999999999913
-0.20329946279525757,-1.2537031173706055,0.5815136432647705,6.179999999999913
0.04101032018661499,-0.6825685501098633,0.8085477948188782,6.1899999999999125
0.32333558797836304,-0.006602287292480469,0.8135355114936829,6.199999999999912
0.47611290216445923,0.2862663269042969,0.5358151197433472,6.209999999999912
0.5572684407234192,0.30881500244140625,0.26550233364105225,6.219999999999912
0.658471405506134,0.18082523345947266,0.23337092995643616,6.229999999999912
0.6917255520820618,-0.056931495666503906,0.4126838147640228,6.239999999999911
0.7149311304092407,-0.33500003814697266,0.6842180490493774,6.249999999999911
0.8098635673522949,-0.3209676742553711,1.0437908172607422,6.259999999999911
0.7845793962478638,-0.23514938354492188,1.2140138149261475,6.269999999999911
0.9108687043190002,-0.020223617553710938,1.3382471799850464,6.2799999999999105
1.0844696760177612,0.24715614318847656,1.4666121006011963,6.28999999999991
1.2275959253311157,0.5119428634643555,1.5298171043395996,6.29999999999991
1.4397776126861572,0.695220947265625,1.547052264213562,6.30999999999991
1.5891574621200562,0.8089971542358398,1.5779871940612793,6.31999999999991
1.6953916549682617,0.8174629211425781,1.7186172008514404,6.3299999999999095
1.6867884397506714,0.6657638549804688,1.8571456670761108,6.339999999999909
1.5709984302520752,0.6601552963256836,1.9341970682144165,6.349999999999909
1.5349783897399902,0.7287025451660156,2.0910592079162598,6.359999999999909
1.6003248691558838,0.7493572235107422,2.3755505084991455,6.369999999999909
1.8724247217178345,0.7126054763793945,2.613054037094116,6.379999999999908
2.3176140785217285,0.7165384292602539,2.57401704788208,6.389999999999908
2.870727300643921,0.7347908020019531,2.2682459354400635,6.399999999999908
3.4067165851593018,0.8199357986450195,1.928052544593811,6.409999999999908
3.939424753189087,0.9503974914550781,1.776516079902649,6.419999999999908
4.277398109436035,1.2481002807617188,1.807102084159851,6.429999999999907
4.712121486663818,1.3254728317260742,1.792596459388733,6.439999999999907
4.846455097198486,1.5318880081176758,1.663820505142212,6.449999999999907
4.810420513153076,1.8600263595581055,1.390166997909546,6.459999999999907
4.546707630157471,2.0921125411987305,0.772828221321106,6.4699999999999065
4.044987201690674,2.48166561126709,-0.04535329341888428,6.479999999999906
3.316335678100586,3.071457862854004,-0.9865224361419678,6.489999999999906
2.738347053527832,3.844461441040039,-1.6665618419647217,6.499999999999906
2.2347803115844727,4.606764793395996,-2.0576555728912354,6.509999999999906
1.7775933742523193,5.114518165588379,-2.282163143157959,6.519999999999905
1.0918352603912354,5.212663650512695,-2.5267157554626465,6.529999999999905
0.09118834137916565,4.851551055908203,-2.8511810302734375,6.539999999999905
-0.6162327527999878,4.141768455505371,-3.1795756816864014,6.549999999999905
-0.9214027523994446,3.3467273712158203,-3.2459981441497803,6.559999999999905
-0.944290280342102,2.6075315475463867,-2.8357110023498535,6.569999999999904
-1.0083611011505127,2.151230812072754,-2.178715467453003,6.579999999999904
-1.136090874671936,2.082763671875,-1.4099221229553223,6.589999999999904
-1.2428686618804932,2.375516891479492,-0.98797607421875,6.599999999999904
-1.4144774675369263,2.732762336730957,-1.0499814748764038,6.6099999999999035
-1.6153626441955566,3.195309638977051,-1.241405725479126,6.619999999999903
-1.6649448871612549,3.634124755859375,-1.3293533325195312,6.629999999999903
-1.8332172632217407,4.020689010620117,-1.504690408706665,6.639999999999903
-1.9282654523849487,4.402949333190918,-1.8246052265167236,6.649999999999903
-2.035601854324341,4.800010681152344,-2.1383965015411377,6.659999999999902
-2.2692971229553223,4.982235908508301,-2.396411895751953,6.669999999999902
-2.4315073490142822,4.923492431640625,-2.6076104640960693,6.679999999999902
-2.533752202987671,4.597667694091797,-2.7411417961120605,6.689999999999902
-2.7425642013549805,4.181966781616211,-2.778921365737915,6.699999999999902
-2.970785140991211,3.8199539184570312,-2.5765833854675293,6.709999999999901
-3.109665632247925,3.6072092056274414,-2.0784378051757812,6.719999999999901
-3.225349187850952,3.5053319931030273,-1.4536503553390503,6.729999999999901
-3.1688485145568848,3.4449081420898438,-0.7754611968994141,6.739999999999901
-3.004490852355957,3.3781585693359375,-0.09764230251312256,6.7499999999999005
-2.820672035217285,3.2788963317871094,0.37095820903778076,6.7599999999999
-2.679741859436035,2.9655637741088867,0.5512012243270874,6.7699999999999
-2.447786331176758,2.6202268600463867,0.5175873041152954,6.7799999999999
-2.168006658554077,2.2788381576538086,0.2945826053619385,6.7899999999999
-1.7085098028182983,1.8289680480957031,-0.03814435005187988,6.7999999999998995
-1.1883463859558105,1.3830013275146484,-0.39117974042892456,6.809999999999899
-0.6377391815185547,0.8689603805541992,-0.646197497844696,6.819999999999899
-0.18783068656921387,0.2293863296508789,-0.955731213092804,6.829999999999899
0.144875168800354,-0.4161043167114258,-1.2811357975006104,6.839999999999899
0.4299808740615845,-1.0986862182617188,-1.5480263233184814,6.849999999999898
0.488258957862854,-1.801708698272705,-1.7488442659378052,6.859999999999898
0.29576408863067627,-2.3913817405700684,-1.8782564401626587,6.869999999999898
0.11820054054260254,-2.9373674392700195,-1.8568626642227173,6.879999999999898
0.07778513431549072,-3.4351415634155273,-1.8470085859298706,6.8899999999998975
-0.009642481803894043,-3.813159942626953,-1.8509341478347778,6.899999999999897
-0.10608565807342529,-4.095506191253662,-1.8471722602844238,6.909999999999897
-0.3126468062400818,-4.267899990081787,-1.80720853805542,6.919999999999897
-0.4694691300392151,-4.263616561889648,-1.6996248960494995,6.929999999999897
-0.5384127497673035,-4.3077168464660645,-1.59856116771698,6.9399999999998965
-0.6296148300170898,-4.373973369598389,-1.386533498764038,6.949999999999896
-0.7628348469734192,-4.314112663269043,-1.1424874067306519,6.959999999999896
-0.7877058982849121,-4.26460075378418,-0.9334198236465454,6.969999999999896
-0.9080007672309875,-4.213453769683838,-0.7521867752075195,6.979999999999896
-0.9972051382064819,-4.158276081085205,-0.6227185726165771,6.989999999999895
-1.062701940536499,-4.161274433135986,-0.542515754699707,6.999999999999895
-1.1214309930801392,-4.248669147491455,-0.5642328262329102,7.009999999999895
-1.152157187461853,-4.374755382537842,-0.7839798927307129,7.019999999999895
-1.1669450998306274,-4.503551483154297,-0.9674899578094482,7.0299999999998946
-1.115377426147461,-4.694830894470215,-1.119776725769043,7.039999999999894
-0.8918907046318054,-4.962936878204346,-1.1476494073867798,7.049999999999894
-0.6660057306289673,-5.286372184753418,-1.0296270847320557,7.059999999999894
-0.5714637041091919,-5.449979305267334,-0.9545614719390869,7.069999999999894
-0.36604630947113037,-5.709958553314209,-0.8385229110717773,7.0799999999998935
-0.2164996862411499,-5.970733165740967,-0.7220189571380615,7.089999999999893
-0.06945252418518066,-6.263538837432861,-0.6121165752410889,7.099999999999893
0.09958839416503906,-6.4785075187683105,-0.4009878635406494,7.109999999999893
0.3608663082122803,-6.766512393951416,-0.27528929710388184,7.119999999999893
0.6190973520278931,-6.897914409637451,-0.17536211013793945,7.129999999999892
0.7017275094985962,-6.781915664672852,-0.07747888565063477,7.139999999999892
0.3975193500518799,-6.239312648773193,0.04461383819580078,7.149999999999892
0.3115246295928955,-5.643624305725098,0.3105933666229248,7.159999999999892
0.37388503551483154,-5.076263427734375,0.679985523223877,7.169999999999892
0.47393226623535156,-4.611263751983643,0.9806280136108398,7.179999999999891
0.5534083843231201,-4.195694923400879,1.2434895038604736,7.189999999999891
0.6259199380874634,-3.7479190826416016,1.4035425186157227,7.199999999999891
0.6785919666290283,-3.3440847396850586,1.390655755996704,7.209999999999891
0.7590281963348389,-2.8594164848327637,1.2397329807281494,7.2199999999998905
0.7500263452529907,-2.17172908782959,0.9425909519195557,7.22999999999989
0.6649661064147949,-1.52734375,0.7788257598876953,7.23999999999989
0.6963143348693848,-0.9309167861938477,0.736534595489502,7.24999999999989
0.8671994209289551,-0.39673805236816406,0.7918350696563721,7.25999999999989
1.1078412532806396,0.027545928955078125,0.7888641357421875,7.269999999999889
1.2961634397506714,0.3876523971557617,0.7294988632202148,7.279999999999889
1.370404601097107,0.7101554870605469,0.6272716522216797,7.289999999999889
1.367256999015808,1.1292686462402344,0.4546468257904053,7.299999999999889
1.2376577854156494,1.5973148345947266,0.3226449489593506,7.309999999999889
1.023911476135254,2.1263179779052734,0.3783280849456787,7.319999999999888
0.7034564018249512,2.8166608810424805,0.6566977500915527,7.329999999999888
0.18390750885009766,3.68234920501709,1.1577057838439941,7.339999999999888
-0.3712807297706604,4.584029197692871,1.7869045734405518,7.349999999999888
-0.9164342880249023,5.396635055541992,2.529855728149414,7.3599999999998875
-1.283737063407898,5.858851432800293,3.2886977195739746,7.369999999999887
-1.4393248558044434,5.889082908630371,3.9892566204071045,7.379999999999887
-1.4957185983657837,5.504150390625,4.508790493011475,7.389999999999887
-1.613969326019287,4.857509613037109,4.869623184204102,7.399999999999887
-1.6688205003738403,3.956954002380371,5.090628147125244,7.4099999999998865
-1.6595556735992432,2.9705467224121094,5.262144088745117,7.419999999999886
-1.448913335800171,2.090052604675293,5.39537239074707,7.429999999999886
-1.2797024250030518,1.445469856262207,5.0950822830200195,7.439999999999886
-1.2483046054840088,1.1050596237182617,4.112664222717285,7.449999999999886
-1.5876507759094238,1.1274795532226562,2.6757328510284424,7.459999999999885
-2.157956838607788,1.5325136184692383,0.9278254508972168,7.469999999999885
-2.640920400619507,2.6307783126831055,-0.7794954776763916,7.479999999999885
-2.609142541885376,4.4563703536987305,-1.5800750255584717,7.489999999999885
-2.150210380554199,6.509091377258301,-1.5021958351135254,7.4999999999998845
-1.6280131340026855,8.43247127532959,-1.4122719764709473,7.509999999999884
-0.970790684223175,10.033011436462402,-1.9034029245376587,7.519999999999884
-0.19864916801452637,11.160280227661133,-2.8174095153808594,7.529999999999884
0.625372052192688,11.848339080810547,-3.7610955238342285,7.539999999999884
0.8891340494155884,11.836043357849121,-4.644672393798828,7.5499999999998835
0.32853400707244873,10.730916023254395,-5.262197494506836,7.559999999999883
-1.0491809844970703,8.391388893127441,-5.641212463378906,7.569999999999883
-2.933764696121216,5.0703125,-5.4559478759765625,7.579999999999883
-4.09559440612793,1.941807746887207,-4.619114398956299,7.589999999999883
-4.344640254974365,-0.47005558013916016,-3.8627915382385254,7.599999999999882
-3.902104377746582,-1.9240684509277344,-3.208035469055176,7.609999999999882
-2.9819984436035156,-2.612565517425537,-2.055072546005249,7.619999999999882
-1.933039903640747,-2.7205772399902344,-0.7079644203186035,7.629999999999882
-0.8964747190475464,-2.6791157722473145,0.19257164001464844,7.6399999999998816
0.209844172000885,-2.770695209503174,0.5477032661437988,7.649999999999881
1.1408700942993164,-2.995326519012451,0.4618492126464844,7.659999999999881
0.7952305674552917,-2.6353864669799805,0.08388209342956543,7.669999999999881
0.9808960556983948,-2.2749462127685547,-0.28774046897888184,7.679999999999881
1.3531217575073242,-1.8710112571716309,-0.6826255321502686,7.6899999999998805
1.6081515550613403,-1.4621315002441406,-1.0602340698242188,7.69999999999988
1.7266288995742798,-1.1922130584716797,-1.5608611106872559,7.70999999999988
1.5371752977371216,-1.183511734008789,-2.1325020790100098,7.71999999999988
1.4729241132736206,-1.3096199035644531,-2.3946354389190674,7.72999999999988
1.4475936889648438,-1.7216267585754395,-2.607974052429199,7.739999999999879
1.6146867275238037,-2.3073253631591797,-2.9280641078948975,7.749999999999879
1.7551665306091309,-2.4403438568115234,-3.1285810470581055,7.759999999999879
1.765188217163086,-2.214407444000244,-3.4991352558135986,7.769999999999879
1.4129061698913574,-1.4549713134765625,-3.6793737411499023,7.779999999999879
0.7137606739997864,-0.39148426055908203,-3.7716805934906006,7.789999999999878
-0.32825422286987305,0.7613458633422852,-3.5890727043151855,7.799999999999878
-1.5568358898162842,1.6646556854248047,-3.0665369033813477,7.809999999999878
-2.5995686054229736,2.142380714416504,-2.4857780933380127,7.819999999999878
-3.3534700870513916,2.121295928955078,-1.8698179721832275,7.8299999999998775
-3.668241500854492,1.6978435516357422,-1.3444844484329224,7.839999999999877
-3.4133052825927734,0.9155130386352539,-0.8844812512397766,7.849999999999877
-2.858952760696411,-0.08916091918945312,-0.48560452461242676,7.859999999999877
-2.2538461685180664,-1.2061595916748047,-0.20782029628753662,7.869999999999877
-1.7728374004364014,-2.289745807647705,-0.0676116943359375,7.879999999999876
-1.5196815729141235,-3.1512508392333984,-0.13881933689117432,7.889999999999876
-1.5535063743591309,-3.6882801055908203,-0.3418373465538025,7.899999999999876
-1.534644603729248,-3.961118221282959,-0.6041946411132812,7.909999999999876
-1.6482172012329102,-4.051382541656494,-0.9399707913398743,7.919999999999876
-1.6198909282684326,-3.9067044258117676,-1.2531015872955322,7.929999999999875
-1.462099552154541,-3.568122386932373,-1.5235106945037842,7.939999999999875
-1.151329755783081,-3.1483359336853027,-1.6977133750915527,7.949999999999875
-0.7471973299980164,-2.7766103744506836,-1.8137288093566895,7.959999999999875
-0.29007092118263245,-2.3931431770324707,-1.7709472179412842,7.9699999999998745
0.08896911144256592,-2.0457968711853027,-1.6316027641296387,7.979999999999874
0.3903522491455078,-1.7799439430236816,-1.5132277011871338,7.989999999999874
0.5570575594902039,-1.6289310455322266,-1.3254125118255615,7.999999999999874
