AccX,AccY,AccZ,stepCount
-1.9930915832519531,4.490154266357422,3.5001211166381836,-0.908393144607544
-2.3751723766326904,4.103939056396484,2.9057698249816895,2.4649643898010254
-2.6593189239501953,4.0714569091796875,2.1340491771698,0.07027912139892578
-3.0571160316467285,4.598946571350098,1.1132793426513672,-0.1506252884864807
-3.3946640491485596,5.574104309082031,0.07149505615234375,0.5990853905677795
-3.452303171157837,6.967512130737305,-0.44563913345336914,0.8597061634063721
-3.2565407752990723,8.636045455932617,-0.15521979331970215,0
-2.6974925994873047,10.371153831481934,0.4364199638366699,0
-2.0006048679351807,11.754067420959473,0.503455400466919,0
-1.3308565616607666,12.455588340759277,-0.24953317642211914,0
-0.7897882461547852,12.451455116271973,-1.323728322982788,0
-0.8873645663261414,11.864299774169922,-2.4743597507476807,0
-1.523634910583496,10.366048812866211,-3.5077104568481445,0
-2.7760276794433594,7.869265556335449,-4.4122138023376465,0
-3.934673309326172,4.764838218688965,-4.827888011932373,0
-4.775521278381348,1.599900245666504,-4.393228530883789,0
-4.770378112792969,-1.0538444519042969,-3.637054443359375,0
-3.6782710552215576,-3.2260055541992188,-2.940744400024414,0
-2.766867160797119,-4.677894115447998,-2.5900943279266357,0
-2.0941572189331055,-5.703977108001709,-2.588592052459717,0
-1.4681382179260254,-6.242306232452393,-2.6948115825653076,0
-0.8573765754699707,-6.420419692993164,-2.436542510986328,0
-0.6113230586051941,-6.140926361083984,-2.2360916137695312,0
-0.23669147491455078,-5.634078025817871,-2.204691171646118,0
0.40406250953674316,-4.94586181640625,-2.2047715187072754,0
1.0117316246032715,-4.1798224449157715,-2.1798551082611084,0
1.622854232788086,-3.470363140106201,-2.2748024463653564,0
1.9800564050674438,-2.5857982635498047,-2.5031275749206543,0
2.36930775642395,-1.5457005500793457,-2.8308615684509277,0
2.503176212310791,-1.0626554489135742,-3.1525981426239014,0
2.9212663173675537,-0.23509693145751953,-3.2781293392181396,0
3.2174248695373535,0.615626335144043,-3.2204222679138184,0
3.3812501430511475,1.5464372634887695,-3.332284927368164,0
2.9749014377593994,2.184507369995117,-3.4556915760040283,0
2.0618958473205566,2.554800033569336,-3.4910202026367188,0
0.8198933601379395,2.496061325073242,-3.344547986984253,0
-0.4731563329696655,2.1507673263549805,-2.970409631729126,0
-1.6056616306304932,1.6609745025634766,-2.415923833847046,0
-2.2169060707092285,0.945958137512207,-1.7784221172332764,0
-2.433614730834961,0.11854934692382812,-1.0998070240020752,0
-2.413158416748047,-0.7158689498901367,-0.5651248693466187,0
-2.209902286529541,-1.564509391784668,-0.23213839530944824,0
-2.0935921669006348,-2.31510066986084,-0.13182556629180908,0
-2.049360752105713,-2.8125553131103516,-0.05791473388671875,0
-1.9187723398208618,-3.220045566558838,-0.1220465898513794,0
-1.8231329917907715,-3.461411476135254,-0.27561819553375244,0
-1.747636318206787,-3.5728559494018555,-0.5875585079193115,0
-1.7641897201538086,-3.516305446624756,-0.887803852558136,0
-1.7416858673095703,-3.4162673950195312,-1.1787643432617188,0
-1.7066727876663208,-3.215423107147217,-1.4125359058380127,0
-1.6572813987731934,-3.023869037628174,-1.567528486251831,0
-1.369030237197876,-2.7125329971313477,-1.6219035387039185,0
-1.0836079120635986,-2.4609479904174805,-1.7619388103485107,0
-1.0037868022918701,-2.3886284828186035,-1.9515433311462402,0
-0.45644962787628174,-2.019639492034912,-2.0900919437408447,0
-0.15427368879318237,-1.779958724975586,-2.2495579719543457,0
0.02733433246612549,-1.5641956329345703,-2.2720565795898438,0
0.2629817724227905,-1.2169008255004883,-2.1336731910705566,0
0.3612252473831177,-1.1542158126831055,-2.0213587284088135,0
0.38686859607696533,-1.1653270721435547,-1.846911072731018,0
0.39021795988082886,-1.1951045989990234,-1.6299314498901367,0
0.2709696292877197,-1.3462963104248047,-1.4691270589828491,0
0.5051047801971436,-1.1046504974365234,-1.1667201519012451,0
0.4558470845222473,-0.8962059020996094,-0.9727224111557007,0
0.4102802872657776,-0.7041730880737305,-0.7874094247817993,0
0.30097347497940063,-0.3444385528564453,-0.5130761861801147,0
0.21835535764694214,-0.02525615692138672,-0.2839714288711548,0
0.2506241798400879,0.0883951187133789,-0.047522544860839844,0
0.31624484062194824,-0.010440826416015625,0.12915894389152527,0
0.3553365468978882,-0.19004249572753906,0.2365800142288208,0
0.36768338084220886,-0.37384033203125,0.33722877502441406,0
0.4321434497833252,-0.5618858337402344,0.35984092950820923,0
0.6206310391426086,-0.6657676696777344,0.4272361099720001,0
0.7801073789596558,-0.6928119659423828,0.55207359790802,0
0.8530170917510986,-0.5761928558349609,0.6490132212638855,0
1.0283271074295044,-0.5097799301147461,0.7545182704925537,0
1.205745816230774,-0.4959230422973633,0.8282541036605835,0
1.4165925979614258,-0.5489101409912109,0.898842990398407,0
1.582099199295044,-0.5730257034301758,0.985264778137207,0
1.7001030445098877,-0.4583244323730469,1.1352975368499756,0
1.7011973857879639,-0.3771352767944336,1.3081724643707275,0
1.664100170135498,-0.2457275390625,1.4631528854370117,0
1.5909132957458496,-0.05938148498535156,1.5186232328414917,0
1.497788906097412,0.17705154418945312,1.5317904949188232,0
1.4177463054656982,0.40849971771240234,1.5669721364974976,0
1.3051257133483887,0.611048698425293,1.7652952671051025,0
1.2268493175506592,0.834925651550293,1.9925817251205444,0
1.1759562492370605,1.120737075805664,2.2007243633270264,0
1.1073882579803467,1.4181756973266602,2.4732396602630615,0
1.1027206182479858,1.7630882263183594,2.7792587280273438,0
1.0806571245193481,2.095635414123535,2.9709036350250244,0
1.3328086137771606,2.391922950744629,2.7614753246307373,0
1.7436398267745972,2.541996955871582,2.1439836025238037,0
2.333902597427368,2.562774658203125,1.497062087059021,0
2.8636043071746826,2.583531379699707,1.1375075578689575,0
3.438051223754883,2.6377439498901367,1.0710351467132568,0
4.005403995513916,2.6153831481933594,1.149795413017273,0
4.377544403076172,2.4830684661865234,1.1653374433517456,0
4.5354766845703125,2.3628740310668945,0.8990999460220337,0
4.335467338562012,2.3910675048828125,0.3958553373813629,0
4.100185394287109,2.698955535888672,-0.10815338790416718,0
3.8648526668548584,3.2192344665527344,-0.45523881912231445,0
3.2837843894958496,4.226606369018555,-0.408534973859787,0
3.121664524078369,4.984004020690918,-0.4728531837463379,0
2.815873622894287,5.475015640258789,-0.6893824338912964,0
2.306715250015259,5.43697452545166,-1.3054558038711548,0
1.431627631187439,5.004478454589844,-2.1212148666381836,0
0.9253079891204834,4.068085670471191,-3.150153398513794,0
0.4150314927101135,3.003904342651367,-3.6661765575408936,0
-0.03125106915831566,2.111074447631836,-3.646688938140869,0
-0.36193668842315674,1.4133920669555664,-2.953936815261841,0
-0.726726770401001,1.0924434661865234,-1.9997986555099487,0
-0.928834080696106,1.1885242462158203,-1.3653942346572876,0
-1.0754157304763794,1.541041374206543,-1.3182411193847656,0
-0.9246045351028442,2.0278921127319336,-1.8248927593231201,0
-0.9642722606658936,2.4195728302001953,-2.510122299194336,0
-1.3239293098449707,2.910116195678711,-2.9072539806365967,0
-1.6591602563858032,3.3034534454345703,-3.0000829696655273,0
-1.912656545639038,3.661844253540039,-2.936258316040039,0
-2.2570347785949707,3.9445295333862305,-2.7699267864227295,0
-2.6997315883636475,4.180047035217285,-2.7109603881835938,0
-2.980029821395874,4.2103118896484375,-2.7232580184936523,0
-3.2561354637145996,4.104608535766602,-2.709476947784424,0
-3.5375609397888184,3.9011049270629883,-2.5996603965759277,0
-3.80501389503479,3.6835060119628906,-2.3395533561706543,0
-4.037073612213135,3.4925317764282227,-1.9068769216537476,0
-4.272332191467285,3.3354949951171875,-1.3275679349899292,0
-4.324544906616211,3.133692741394043,-0.6587229371070862,0
-4.203875541687012,2.9185495376586914,-0.03845047950744629,0
-4.00162935256958,2.6018428802490234,0.5345633029937744,0
-3.6844983100891113,2.255631446838379,0.8013776540756226,0
-3.29779052734375,1.8465909957885742,0.8552452325820923,0
-2.771503448486328,1.4250354766845703,0.6437474489212036,0
-2.128608465194702,0.9789638519287109,0.2725139856338501,0
-1.4012384414672852,0.5034542083740234,-0.14557385444641113,0
-0.8105812072753906,-0.016091346740722656,-0.5953434705734253,0
-0.39165133237838745,-0.5129690170288086,-1.07339608669281,0
-0.04797685146331787,-1.126145362854004,-1.5026161670684814,0
0.14191687107086182,-1.78873872756958,-1.930396318435669,0
0.4131077527999878,-2.515368938446045,-2.0283896923065186,0
0.720655083656311,-3.327690601348877,-2.13399338722229,0
0.9283424615859985,-3.993696689605713,-2.240298271179199,0
1.0575199127197266,-4.506377696990967,-2.227947950363159,0
1.1199705600738525,-4.853921413421631,-2.24080228805542,0
1.1203937530517578,-5.103531837463379,-2.147228240966797,0
1.0082623958587646,-5.181193828582764,-2.095579147338867,0
0.9961221218109131,-5.177940845489502,-2.0021677017211914,0
0.8967827558517456,-5.115367889404297,-1.7904133796691895,0
0.7288031578063965,-4.917025089263916,-1.5487072467803955,0
0.4751904010772705,-4.702760696411133,-1.3124723434448242,0
0.2503162622451782,-4.4656195640563965,-1.0689929723739624,0
-0.08776378631591797,-4.236835479736328,-0.884634256362915,0
-0.3816847801208496,-3.975877285003662,-0.7468929290771484,0
-0.7060713171958923,-3.709071636199951,-0.7514030933380127,0
-0.8098864555358887,-3.5465054512023926,-0.7161462306976318,0
-0.9686072468757629,-3.421126365661621,-0.6459472179412842,0
-1.050855278968811,-3.3400888442993164,-0.5838887691497803,0
-1.16706383228302,-3.202925205230713,-0.5179667472839355,0
-1.2722184658050537,-3.083850860595703,-0.4504837989807129,0
-1.3594441413879395,-3.0402002334594727,-0.4006621837615967,0
-1.4027870893478394,-3.007297992706299,-0.38048744201660156,0
-1.3736265897750854,-3.083118438720703,-0.3470950126647949,0
-1.3341772556304932,-3.248347759246826,-0.3318061828613281,0
-1.2218538522720337,-3.3833370208740234,-0.30844640731811523,0
-1.0911297798156738,-3.600557804107666,-0.2914755344390869,0
-0.9151479005813599,-3.83542537689209,-0.2545938491821289,0
-0.8345006704330444,-4.056842803955078,-0.21950149536132812,0
-0.6571842432022095,-4.3055243492126465,-0.12648558616638184,0
-0.5049314498901367,-4.555058479309082,-0.06437444686889648,0
-0.3319646716117859,-4.762310981750488,-0.007154941558837891,0
-0.293759822845459,-4.874561786651611,-6.628036499023438E-4,0
-0.3044074773788452,-4.762645721435547,-0.04034852981567383,0
-0.2658693194389343,-4.620394229888916,-0.12405037879943848,0
-0.20222675800323486,-4.416635036468506,-0.2926340103149414,0
-0.1449434757232666,-4.137002944946289,-0.39786624908447266,0
-0.13298505544662476,-3.850905418395996,-0.38704848289489746,0
-0.04763442277908325,-3.644461154937744,-0.22887372970581055,0
-0.011484384536743164,-3.326404094696045,-0.009080171585083008,0
0.053788602352142334,-2.990102767944336,0.17914509773254395,0
0.11239856481552124,-2.587714672088623,0.2830996513366699,0
0.26299214363098145,-2.1001620292663574,0.4413411617279053,0
0.417691707611084,-1.5106244087219238,0.5646054744720459,0
0.615510880947113,-0.8308792114257812,0.5705559253692627,0
0.8232274651527405,-0.060601234436035156,0.45077991485595703,0
0.9262709617614746,0.7407627105712891,0.31160998344421387,0
0.9176052212715149,1.6141929626464844,0.21883845329284668,0
0.8094534277915955,2.5193910598754883,0.1374835968017578,0
0.5733955502510071,3.4806528091430664,0.1976318359375,0
0.2952927350997925,4.337719917297363,0.6501796245574951,0
-0.09085005521774292,5.038191795349121,1.0739636421203613,0
-0.4242151081562042,5.587453842163086,1.2483210563659668,0
-0.6298561096191406,5.945111274719238,1.6783440113067627,0
-0.6487429738044739,6.077341079711914,2.552222967147827,0
-0.4974342882633209,5.959458351135254,3.7529890537261963,0
-0.6106858849525452,5.758066177368164,4.86966609954834,0
-0.716929018497467,5.462848663330078,5.631994247436523,0
-0.7458922266960144,4.88692569732666,6.041524410247803,0
-0.7708762884140015,3.9945478439331055,6.154056072235107,0
-0.7934513688087463,2.9823808670043945,5.785001754760742,0
-0.896355152130127,2.0836029052734375,4.79768180847168,0
-1.275296926498413,1.5414924621582031,3.153927803039551,0
-1.9097094535827637,1.4792814254760742,1.4096567630767822,0
-2.9530434608459473,1.851792335510254,0.08011674880981445,0
-3.8640780448913574,2.835386276245117,-0.8366165161132812,0
-4.202170372009277,4.70135498046875,-1.6119848489761353,0
-3.669240713119507,7.177399635314941,-2.1623764038085938,0
-2.5542523860931396,9.680274963378906,-2.675711154937744,0
-1.0841875076293945,11.791369438171387,-3.372955083847046,0
0.29837632179260254,13.600564956665039,-4.235551834106445,0
1.2777247428894043,14.736198425292969,-5.3248515129089355,0
1.1999449729919434,14.159669876098633,-5.901032447814941,0
-0.08708089590072632,11.602365493774414,-6.270310401916504,0
-2.383232593536377,7.376893997192383,-6.809772968292236,0
-4.3371968269348145,3.324474334716797,-6.60209846496582,0
-5.60800838470459,0.11990165710449219,-5.613860130310059,0
-5.39646577835083,-2.4362497329711914,-4.269711971282959,0
-4.1247100830078125,-3.959306240081787,-3.0472843647003174,0
-2.870046615600586,-4.738846778869629,-2.056212902069092,0
-1.893139362335205,-4.906364917755127,-1.3193117380142212,0
-1.1867845058441162,-4.864006519317627,-0.7788317203521729,0
-0.9912949204444885,-4.557078838348389,-0.5867457389831543,0
-0.9864445924758911,-4.0506439208984375,-0.8185005187988281,0
-0.6174881458282471,-3.529345989227295,-1.174243688583374,0
-0.18907701969146729,-2.893209934234619,-1.5768563747406006,0
0.816799521446228,-2.112013339996338,-1.9586423635482788,0
1.5550940036773682,-1.298874855041504,-2.311941623687744,0
1.9875457286834717,-0.5067367553710938,-2.6699461936950684,0
2.222710609436035,0.2330608367919922,-2.8095483779907227,0
2.411529064178467,0.5257062911987305,-2.940236806869507,0
2.486846923828125,0.5888557434082031,-2.961998224258423,0
2.348153591156006,0.4105215072631836,-3.1339480876922607,0
1.8667206764221191,0.08912277221679688,-3.5225090980529785,0
1.0303454399108887,-0.13303279876708984,-3.805872917175293,0
-0.0641602873802185,-0.2120523452758789,-3.9315409660339355,0
-1.3804149627685547,-0.19739151000976562,-3.8088576793670654,0
-2.5760669708251953,-0.19603729248046875,-3.4449260234832764,0
-3.2821598052978516,-0.24582481384277344,-2.8676533699035645,0
-3.445352077484131,-0.4134397506713867,-2.1044509410858154,0
-3.1145100593566895,-0.7537345886230469,-1.273037075996399,0
-2.4621078968048096,-1.173426628112793,-0.4999206066131592,0
-1.8918863534927368,-1.6559553146362305,0.12722015380859375,0
-1.4720373153686523,-2.156055450439453,0.3556971549987793,0
-1.0865167379379272,-2.618864059448242,0.33205950260162354,0
-0.9733271598815918,-3.1138534545898438,0.07322514057159424,0
-0.7868393063545227,-3.468926429748535,-0.1550581455230713,0
-0.9645381569862366,-3.892333984375,-0.49378180503845215,0
-0.7816157341003418,-4.063664436340332,-0.8274147510528564,0
-0.9490622282028198,-4.1912713050842285,-1.2703964710235596,0
-0.6995639801025391,-4.253625392913818,-1.7245547771453857,0
-0.5126132965087891,-4.021227836608887,-2.168093681335449,0
-0.11115342378616333,-3.5494508743286133,-2.4403157234191895,0
0.3512004017829895,-2.941390037536621,-2.725308656692505,0
0.6349843740463257,-2.2903976440429688,-2.9874229431152344,0
0.8357053995132446,-1.6753530502319336,-2.9545300006866455,0
1.0755102634429932,-1.0483436584472656,-2.6251885890960693,0
1.081831932067871,-0.6627998352050781,-2.2134363651275635,0
0.9870319366455078,-0.4801778793334961,-1.7896857261657715,0
0.8659820556640625,-0.258758544921875,-1.4244952201843262,0
0.6640042066574097,-0.11102104187011719,-1.1572341918945312,0
0.49829965829849243,-0.06083106994628906,-0.8025416731834412,0
0.327881395816803,-0.12966346740722656,-0.23701216280460358,0
0.20271313190460205,-0.2696371078491211,0.4143736958503723,0
0.1754995584487915,-0.53338623046875,0.962472677230835,0
0.3276761770248413,-0.7797946929931641,1.2903155088424683,0
0.6332069039344788,-1.090291976928711,1.3722174167633057,0
1.0707166194915771,-1.397933006286621,1.3048326969146729,0
1.4920654296875,-1.590402603149414,1.2065140008926392,0
1.911811351776123,-1.6535406112670898,1.0762169361114502,0
2.387512683868408,-1.6186199188232422,1.0399634838104248,0
2.8046481609344482,-1.488180160522461,0.9821130633354187,0
2.9673972129821777,-1.2647371292114258,0.9274916648864746,0
2.991138219833374,-0.9723234176635742,0.8741745352745056,0
3.368840217590332,-0.35756587982177734,0.8840660452842712,0
3.054579734802246,-0.06164073944091797,0.6601038575172424,0
2.8481557369232178,0.11430931091308594,0.5227870941162109,0
2.5703136920928955,0.36651039123535156,0.48147451877593994,0
2.10119366645813,0.5920839309692383,0.4904800057411194,0
1.687140703201294,0.7121801376342773,0.5806080102920532,0
1.0475976467132568,0.6098165512084961,0.7493764162063599,0
0.34253522753715515,0.6176671981811523,1.0925763845443726,0
-0.31821882724761963,0.6375761032104492,1.3539048433303833,0
-0.9709213972091675,0.7173604965209961,1.6217607259750366,0
-1.5105476379394531,0.7756490707397461,1.9581663608551025,0
-1.8202013969421387,0.8387746810913086,2.2937028408050537,0
-1.9218785762786865,0.7943477630615234,2.4872474670410156,0
-1.7781156301498413,0.8074808120727539,2.4619970321655273,0
-1.349195957183838,0.916346549987793,2.3302674293518066,0
-0.5783917903900146,1.1614599227905273,2.2882442474365234,0
0.3788737654685974,1.566544532775879,2.3840789794921875,0
1.341072678565979,1.8851127624511719,2.455547571182251,0
2.1410176753997803,2.0287952423095703,2.43109130859375,0
2.836393356323242,2.0097475051879883,2.305783271789551,0
3.4298994541168213,1.9500999450683594,2.1679046154022217,0
3.948289632797241,1.931182861328125,2.1319034099578857,0
4.458710670471191,2.0653114318847656,2.1735236644744873,0
4.793832302093506,2.2351274490356445,2.144380569458008,0
5.073456764221191,2.2660303115844727,1.9919774532318115,0
5.050792694091797,2.35186767578125,1.6566503047943115,0
4.810887336730957,2.4734344482421875,1.3466776609420776,0
4.362259864807129,2.6593494415283203,0.9349961876869202,0
3.8382723331451416,3.0362348556518555,0.457226037979126,0
3.2047624588012695,3.5727367401123047,0.09228673577308655,0
2.515251398086548,4.074921607971191,-0.5487215518951416,0
1.4440264701843262,4.6169328689575195,-1.119842529296875,0
0.5894095301628113,4.672679901123047,-1.9307280778884888,0
-0.6542781591415405,4.455636978149414,-2.5389962196350098,0
-1.5994131565093994,3.8012609481811523,-2.698147773742676,0
-2.0726981163024902,2.8895225524902344,-2.8944852352142334,0
-2.434211492538452,2.055588722229004,-2.7290868759155273,0
-2.776082992553711,1.426203727722168,-2.1255929470062256,0
-2.721956968307495,1.1494636535644531,-1.677699327468872,0
-2.683194637298584,1.1939659118652344,-1.3837761878967285,0
-2.4658381938934326,1.4351282119750977,-1.4312795400619507,0
-2.1413915157318115,1.6218347549438477,-1.7558256387710571,0
-1.4987900257110596,1.7519559860229492,-2.2825419902801514,0
-0.9465546607971191,1.8161592483520508,-2.8328065872192383,0
-0.764612078666687,2.0107059478759766,-3.162628412246704,0
-0.7715949416160583,2.4502344131469727,-3.3459279537200928,0
-0.8030337691307068,3.139164924621582,-3.5309629440307617,0
-0.9050725698471069,3.859450340270996,-3.5144777297973633,0
-1.0926079750061035,4.47457218170166,-3.2732906341552734,0
-1.3805670738220215,4.97012996673584,-2.796781063079834,0
-1.7165955305099487,5.262432098388672,-2.170788049697876,0
-2.100180149078369,5.41617488861084,-1.5560102462768555,0
-2.398806571960449,5.460147857666016,-1.0059772729873657,0
-2.7480309009552,5.349058151245117,-0.4717003107070923,0
-3.1806793212890625,5.142942428588867,-0.04308438301086426,0
-3.4957380294799805,4.839673042297363,0.21634018421173096,0
-3.6554009914398193,4.288924217224121,0.37249112129211426,0
-3.617079257965088,3.593963623046875,0.39853334426879883,0
-3.479248046875,2.8196516036987305,0.29420793056488037,0
-3.117481231689453,2.059408187866211,-3.6728382110595703E-4,0
-2.5838634967803955,1.253396987915039,-0.3296010494232178,0
-1.9130398035049438,0.4804248809814453,-0.5188323259353638,0
-1.3788957595825195,-0.2693204879760742,-0.7233909368515015,0
-0.9634979367256165,-0.9937276840209961,-0.9332139492034912,0
-0.7546029090881348,-1.7121562957763672,-1.2507286071777344,0
-0.6129007339477539,-2.3793020248413086,-1.7020378112792969,0
-0.3966825008392334,-3.143728256225586,-1.8417315483093262,0
-0.13154387474060059,-3.809586524963379,-1.8799469470977783,0
0.1327371597290039,-4.365255355834961,-2.022223949432373,0
0.3386794328689575,-4.837224006652832,-2.122621774673462,0
0.39025580883026123,-5.137129783630371,-2.157214641571045,0
0.5316364765167236,-5.303479194641113,-2.169234275817871,0
0.6093847751617432,-5.279060363769531,-2.1323280334472656,0
0.6684359312057495,-5.224240303039551,-2.063317060470581,0
0.7560198307037354,-5.1605544090271,-1.883105754852295,0
0.7089740037918091,-5.00439977645874,-1.6152288913726807,0
0.5007311105728149,-4.787010669708252,-1.4364434480667114,0
0.3030930757522583,-4.632900714874268,-1.2719590663909912,0
0.005194664001464844,-4.424877166748047,-1.1045262813568115,0
-0.2958172559738159,-4.258678913116455,-0.8810780048370361,0
-0.6272714734077454,-4.0027313232421875,-0.7209537029266357,0
-0.9275714159011841,-3.7647814750671387,-0.6143045425415039,0
-1.1805105209350586,-3.566354274749756,-0.541832447052002,0
-1.2285380363464355,-3.4600577354431152,-0.47953271865844727,0
-1.3423069715499878,-3.3262343406677246,-0.5015788078308105,0
-1.4047613143920898,-3.2605772018432617,-0.543344259262085,0
-1.4975332021713257,-3.2296252250671387,-0.49457621574401855,0
-1.5154638290405273,-3.187997817993164,-0.4460780620574951,0
-1.506477952003479,-3.2505288124084473,-0.405010461807251,0
-1.4898402690887451,-3.307136058807373,-0.40717434883117676,0
-1.4822676181793213,-3.4439144134521484,-0.41910815238952637,0
-1.3685964345932007,-3.6774916648864746,-0.4577505588531494,0
-1.2202810049057007,-3.9885964393615723,-0.47547388076782227,0
-1.0678987503051758,-4.398641109466553,-0.484494686126709,0
-0.9108088612556458,-4.790310382843018,-0.4038119316101074,0
-0.7124375104904175,-5.1707963943481445,-0.32702064514160156,0
-0.6015260219573975,-5.425283432006836,-0.1874244213104248,0
-0.6760424375534058,-5.4055609703063965,-0.07861948013305664,0
-0.7491958737373352,-5.264826774597168,-0.027324438095092773,0
-0.7996129989624023,-5.093921661376953,-0.01710677146911621,0
-0.8301471471786499,-4.885532855987549,0.013947010040283203,0
-0.7574694156646729,-4.675469875335693,-0.013241291046142578,0
-0.6419297456741333,-4.458808422088623,-0.01752471923828125,0
-0.4886794090270996,-4.221153736114502,-0.006135463714599609,0
-0.2357843518257141,-3.9289722442626953,0.07096004486083984,0
0.10507214069366455,-3.596681594848633,0.17771482467651367,0
0.41678929328918457,-3.0999059677124023,0.24445223808288574,0
0.6997337937355042,-2.357328414916992,0.16520261764526367,0
0.9471690058708191,-1.3976187705993652,-0.13996028900146484,0
1.09018874168396,-0.2614927291870117,-0.28661680221557617,0
1.2105798721313477,0.9362192153930664,-0.256542444229126,0
1.2558469772338867,2.1239776611328125,-0.15616726875305176,0
1.1826364994049072,3.2043962478637695,-0.19569921493530273,0
0.7267831563949585,4.338476181030273,-0.20476555824279785,0
0.1567785143852234,5.380626678466797,0.22966933250427246,0
-0.5150256156921387,6.429155349731445,0.9564359188079834,0
-1.1324645280838013,7.292508125305176,2.0578455924987793,0
-1.4017751216888428,7.872114181518555,3.4978744983673096,0
-1.2574801445007324,7.741830825805664,4.750300407409668,0
-1.3277864456176758,7.459071159362793,5.467965602874756,0
-1.4870606660842896,7.277417182922363,5.615622520446777,0
-1.6958152055740356,7.161445617675781,5.141655921936035,0
-2.1202707290649414,7.119253158569336,4.361394882202148,0
-2.658792018890381,7.273860931396484,3.252326250076294,0
-3.167205572128296,7.872405052185059,2.043630599975586,0
-3.609738349914551,8.95090389251709,1.0997817516326904,0
-3.946770668029785,10.494490623474121,0.4405205249786377,0
-3.9095077514648438,12.277168273925781,-0.13457727432250977,0
-3.163702964782715,14.021636962890625,-0.504378080368042,0
-1.758987307548523,15.265057563781738,-0.5968356132507324,0
-0.6231468915939331,15.54181957244873,-0.8690969944000244,0
-0.24687695503234863,14.488487243652344,-1.704573392868042,0
-0.8602703809738159,11.7998046875,-2.70626163482666,0
-2.3212389945983887,7.295712471008301,-3.4673869609832764,0
-3.5696473121643066,2.760561943054199,-3.7855608463287354,0
-4.047676086425781,-1.1934843063354492,-3.5103726387023926,0
-3.902698516845703,-4.185939311981201,-2.792128086090088,0
-3.4153802394866943,-6.363370895385742,-2.364938259124756,0
-2.837092399597168,-7.836223125457764,-2.4690823554992676,0
-2.1616125106811523,-8.700338363647461,-2.7779479026794434,0
-1.4406269788742065,-9.276000022888184,-3.350818395614624,0
-0.7163331508636475,-9.404881477355957,-3.9169907569885254,0
-0.24414598941802979,-9.063054084777832,-3.9827961921691895,0
0.0967247486114502,-8.24891185760498,-3.562323570251465,0
0.8686999082565308,-7.207822322845459,-2.914320945739746,0
2.015554904937744,-5.931510925292969,-2.3784592151641846,0
2.96201229095459,-4.533194541931152,-2.187657117843628,0
3.503281354904175,-3.077648639678955,-2.334207534790039,0
3.669271230697632,-1.4811501502990723,-2.600604295730591,0
3.9666476249694824,0.15093135833740234,-2.745769739151001,0
4.447029113769531,1.8302316665649414,-2.6952574253082275,0
4.711054801940918,3.640048027038574,-2.428851842880249,0
4.630708694458008,4.853261947631836,-2.426208972930908,0
3.789515972137451,5.528092384338379,-2.494257688522339,0
2.502911329269409,5.170733451843262,-2.8264620304107666,0
0.8622477054595947,3.8452959060668945,-3.1366655826568604,0
-0.6446852684020996,2.091459274291992,-3.043729782104492,0
-1.7556142807006836,0.49088478088378906,-2.6327545642852783,0
-2.440070390701294,-0.8155403137207031,-2.0651533603668213,0
-2.8979721069335938,-1.8735437393188477,-1.4423861503601074,0
-3.155498504638672,-2.621122360229492,-0.9590399265289307,0
-3.3402137756347656,-3.0919246673583984,-0.6468777656555176,0
-3.398397445678711,-3.369821548461914,-0.4703090190887451,0
-3.3505442142486572,-3.4693355560302734,-0.3311479091644287,0
-3.2647387981414795,-3.419435501098633,-0.2479482889175415,0
-3.0505621433258057,-3.3136649131774902,-0.21043109893798828,0
-2.7989327907562256,-3.135478973388672,-0.20595669746398926,0
-2.4156887531280518,-3.1241636276245117,-0.32048463821411133,0
-2.038543701171875,-3.1337032318115234,-0.5445036292076111,0
-1.8413739204406738,-3.2907800674438477,-0.8688495755195618,0
-1.627324104309082,-3.1982975006103516,-1.2387105226516724,0
-1.3726997375488281,-3.239072799682617,-1.6211493015289307,0
-1.144765019416809,-3.1403579711914062,-1.8033535480499268,0
-0.878670871257782,-2.84262752532959,-1.91910719871521,0
-0.7986839413642883,-2.47774076461792,-2.089923858642578,0
-0.3609696626663208,-1.8019661903381348,-2.282076835632324,0
-0.3265095353126526,-1.3368949890136719,-2.565519094467163,0
-0.6042284965515137,-1.0224428176879883,-2.6776723861694336,0
-0.3543831706047058,-0.3013181686401367,-2.3868906497955322,0
-0.307282954454422,0.010618209838867188,-2.007438898086548,0
-0.2642778754234314,0.10515022277832031,-1.5566786527633667,0
-0.18699011206626892,0.037499427795410156,-1.0710688829421997,0
-0.003439962863922119,-0.1013336181640625,-0.5943216681480408,0
0.24355757236480713,-0.28982067108154297,-0.08634573966264725,0
0.5231021642684937,-0.43233489990234375,0.45240518450737,0
0.6701363325119019,-0.4357471466064453,0.8925530314445496,0
0.8616742491722107,-0.45331859588623047,1.2268784046173096,0
1.1093776226043701,-0.5113773345947266,1.3646421432495117,0
1.3577947616577148,-0.5477304458618164,1.2965707778930664,0
1.5922777652740479,-0.5265665054321289,1.1834875345230103,0
1.9777642488479614,-0.5986099243164062,1.1077790260314941,0
2.3729166984558105,-0.7183218002319336,1.0206130743026733,0
2.433244228363037,-0.8856172561645508,0.8568684458732605,0
3.1615519523620605,-0.693934440612793,0.9770863652229309,0
3.253674030303955,-0.8514528274536133,0.7863436937332153,0
3.2438151836395264,-0.9990415573120117,0.7538992166519165,0
3.132387638092041,-1.0769309997558594,0.7522057294845581,0
2.9029860496520996,-1.061295509338379,0.9001351594924927,0
2.632772445678711,-1.0957422256469727,1.0505053997039795,0
2.3315937519073486,-1.0439462661743164,1.1399760246276855,0
1.8750135898590088,-0.934722900390625,1.2634881734848022,0
1.4924503564834595,-0.8327245712280273,1.1978092193603516,0
1.0949029922485352,-0.6184234619140625,1.0833107233047485,0
0.7485805153846741,-0.3326234817504883,0.9771567583084106,0
0.5196967124938965,-0.0997467041015625,0.9537888765335083,0
0.2998550832271576,0.11137104034423828,1.016096591949463,0
0.13372987508773804,0.35098934173583984,1.167166829109192,0
-0.05134524777531624,0.5975618362426758,1.4601497650146484,0
-0.0955701619386673,0.853449821472168,1.789963960647583,0
-0.03269025683403015,1.1353445053100586,2.108665704727173,0
0.19953981041908264,1.3666658401489258,2.432934522628784,0
0.5825599431991577,1.5020370483398438,2.8417418003082275,0
0.9157605767250061,1.584615707397461,3.277759552001953,0
1.4216649532318115,1.6120491027832031,3.5828561782836914,0
2.0141665935516357,1.644150733947754,3.4817404747009277,0
2.640303373336792,1.6545419692993164,2.866394519805908,0
3.1680514812469482,1.8129491806030273,2.0832040309906006,0
3.6449270248413086,2.1311168670654297,1.538722276687622,0
4.15949821472168,2.494129180908203,1.2169944047927856,0
4.589743614196777,2.837465286254883,0.9019433856010437,0
4.7513747215271,3.154054641723633,0.3155214190483093,0
4.706117630004883,3.434384346008301,-0.49314984679222107,0
4.125882148742676,3.7836952209472656,-0.9497432112693787,0
3.9699549674987793,4.249700546264648,-1.1412198543548584,0
3.7068064212799072,4.9469804763793945,-1.0640993118286133,0
3.2099006175994873,5.332426071166992,-0.9566543102264404,0
2.620882511138916,5.537909507751465,-1.013776421546936,0
1.631364345550537,5.444090843200684,-1.2957799434661865,0
0.8991818428039551,4.958101272583008,-1.9894015789031982,0
0.059527188539505005,4.513238906860352,-2.84104585647583,0
-0.09564382582902908,3.8871240615844727,-3.590367317199707,0
-0.19987136125564575,3.2354345321655273,-4.166928768157959,0
-0.3528202474117279,2.682549476623535,-4.450908660888672,0
-0.5463249683380127,2.228384017944336,-4.310460567474365,0
-0.9254539012908936,1.9829072952270508,-3.7131636142730713,0
-1.5183000564575195,2.03926944732666,-2.9534459114074707,0
-2.056033134460449,2.3900794982910156,-2.464259624481201,0
-2.5594418048858643,2.8629722595214844,-2.2620646953582764,0
-3.111560583114624,3.2642898559570312,-2.128882646560669,0
-3.4821934700012207,3.6014862060546875,-1.970691204071045,0
-3.7500410079956055,3.803071975708008,-1.7835512161254883,0
-4.056289196014404,3.902806282043457,-1.5889503955841064,0
-4.343686580657959,3.8290843963623047,-1.4386959075927734,0
-4.612771987915039,3.6537609100341797,-1.408689260482788,0
-4.71861457824707,3.3576745986938477,-1.443718671798706,0
-4.700033664703369,2.959871292114258,-1.525120496749878,0
-4.657756805419922,2.5463428497314453,-1.6138684749603271,0
-4.55845308303833,2.16241455078125,-1.5813381671905518,0
-4.514855861663818,1.8080377578735352,-1.3644130229949951,0
-4.302300453186035,1.5501880645751953,-0.969660758972168,0
-4.083736896514893,1.3649406433105469,-0.42513543367385864,0
-3.7516112327575684,1.1638545989990234,0.08839118480682373,0
-3.293909788131714,0.9757938385009766,0.43326079845428467,0
-2.784722328186035,0.6885414123535156,0.582048773765564,0
-2.255023717880249,0.3884849548339844,0.4502549171447754,0
-1.6427302360534668,0.05903816223144531,0.17658209800720215,0
-1.0240428447723389,-0.32605838775634766,-0.1572256088256836,0
-0.32398808002471924,-0.7141923904418945,-0.517287015914917,0
0.25960659980773926,-1.062434196472168,-0.8695270419120789,0
0.7758588790893555,-1.5098628997802734,-1.0953965187072754,0
0.8981145620346069,-1.8032865524291992,-1.4278912544250488,0
1.1224701404571533,-2.3616695404052734,-1.6172906160354614,0
1.4350690841674805,-2.974459648132324,-1.7760143280029297,0
1.587700605392456,-3.515003204345703,-1.8372859954833984,0
1.7193183898925781,-4.076743125915527,-1.748595952987671,0
1.717673659324646,-4.4421491622924805,-1.6105706691741943,0
1.6500554084777832,-4.743046283721924,-1.638568639755249,0
1.487687587738037,-4.812130451202393,-1.6460368633270264,0
1.304532766342163,-4.845701694488525,-1.559128761291504,0
1.1453895568847656,-4.788821697235107,-1.2580755949020386,0
0.7460774183273315,-4.562694072723389,-0.9602422714233398,0
0.2656518220901489,-4.181899070739746,-0.691214919090271,0
-0.06504833698272705,-3.8163914680480957,-0.4888150691986084,0
-0.3903385400772095,-3.3801674842834473,-0.38360118865966797,0
-0.6413944363594055,-2.9307708740234375,-0.35369873046875,0
-0.7851748466491699,-2.542471408843994,-0.3173704147338867,0
-0.9512941241264343,-2.253570556640625,-0.21694517135620117,0
-1.118530511856079,-1.8584470748901367,-0.07845807075500488,0
-1.291930079460144,-1.47684907913208,0.02636575698852539,0
-1.3997633457183838,-1.3742122650146484,0.12378787994384766,0
-1.4464452266693115,-1.4593772888183594,0.23034262657165527,0
-1.6496483087539673,-1.464268684387207,0.27164483070373535,0
-1.7269713878631592,-1.4750046730041504,0.264174222946167,0
-1.701904535293579,-1.6852946281433105,0.32256126403808594,0
-1.6530053615570068,-1.9945406913757324,0.42039036750793457,0
-1.567955493927002,-2.409820556640625,0.4977102279663086,0
-1.4799619913101196,-2.90476655960083,0.6191468238830566,0
-1.2930552959442139,-3.3884387016296387,0.724783182144165,0
-1.1147657632827759,-3.8751955032348633,0.8264970779418945,0
-0.9401225447654724,-4.4080657958984375,0.9146463871002197,0
-0.7137985825538635,-4.845810413360596,0.9457941055297852,0
-0.46437501907348633,-5.231417179107666,0.912299633026123,0
-0.25631749629974365,-5.50502872467041,0.8185887336730957,0
-0.14943033456802368,-5.53038215637207,0.7338290214538574,0
-0.04356241226196289,-5.427295684814453,0.7154409885406494,0
0.08000195026397705,-5.35850715637207,0.7443516254425049,0
0.3306248188018799,-5.271279335021973,0.7463672161102295,0
0.4419480562210083,-5.132087707519531,0.6737806797027588,0
0.5854408740997314,-5.0126190185546875,0.6055834293365479,0
0.7651855945587158,-4.888940811157227,0.5061612129211426,0
0.9089194536209106,-4.713195323944092,0.4449460506439209,0
1.1146879196166992,-4.518985271453857,0.43408966064453125,0
1.3323616981506348,-4.246652126312256,0.5144708156585693,0
1.5267205238342285,-3.893953323364258,0.5520823001861572,0
1.6673873662948608,-3.3603272438049316,0.40262269973754883,0
1.7147741317749023,-2.669536590576172,0.08155059814453125,0
1.7441565990447998,-1.885962963104248,-0.16620922088623047,0
1.7015719413757324,-0.9926519393920898,-0.2609541416168213,0
1.5258378982543945,-0.04192161560058594,-0.27405405044555664,0
1.2297638654708862,1.0290641784667969,-0.41652464866638184,0
0.6075546741485596,2.3667449951171875,-0.532926082611084,0
-0.057134389877319336,3.765493392944336,0.009555339813232422,0
-0.6996558308601379,5.168017387390137,0.8683896064758301,0
-1.3731410503387451,6.490328788757324,2.1671571731567383,0
-1.953225016593933,7.597757339477539,3.8373749256134033,0
-2.295039176940918,8.276541709899902,5.419116973876953,0
-2.1036458015441895,8.253719329833984,6.269541263580322,0
-2.0594611167907715,7.960188865661621,6.404598236083984,0
-2.1437597274780273,7.468274116516113,6.091555118560791,0
-2.400984764099121,6.846170425415039,5.217512130737305,0
-2.751190423965454,6.451625823974609,3.9198646545410156,0
-3.090667247772217,6.601296424865723,2.398239850997925,0
-3.30983567237854,7.302284240722656,1.156064510345459,0
-3.4098827838897705,8.27380084991455,0.5152850151062012,0
-3.2221672534942627,9.45963191986084,0.11992478370666504,0
-2.6113839149475098,10.487381935119629,-0.23822832107543945,0
-1.954699993133545,11.314400672912598,-0.8347306251525879,0
-1.4179487228393555,11.928595542907715,-1.8122375011444092,0
-0.75571608543396,12.282145500183105,-2.8673319816589355,0
-0.532393217086792,11.976935386657715,-3.6835579872131348,0
-1.2920002937316895,10.433307647705078,-4.47100305557251,0
-2.7378146648406982,7.327399253845215,-5.251891136169434,0
-4.082080364227295,3.4786691665649414,-5.364795684814453,0
-5.018527984619141,0.01562786102294922,-4.977543830871582,0
-4.900364398956299,-2.662104606628418,-4.404982566833496,0
-3.94142484664917,-4.622329235076904,-3.6366024017333984,0
-2.9921505451202393,-5.700697898864746,-3.058234453201294,0
-1.9953978061676025,-6.077110290527344,-2.8234944343566895,0
-1.1767092943191528,-6.089142322540283,-2.5952651500701904,0
-0.37604820728302,-5.985708713531494,-2.3160433769226074,0
0.3829883337020874,-5.819406509399414,-2.160374879837036,0
1.0538164377212524,-5.489745140075684,-2.080479145050049,0
1.4109402894973755,-4.882098197937012,-2.0308644771575928,0
1.9794039726257324,-4.06638765335083,-1.8197910785675049,0
2.7255449295043945,-3.1724367141723633,-1.5926284790039062,0
3.2570388317108154,-2.18170166015625,-1.460875391960144,0
3.3652215003967285,-1.276376724243164,-1.6579585075378418,0
3.3142638206481934,-0.4615135192871094,-1.7757505178451538,0
3.3772096633911133,0.23632335662841797,-1.937219500541687,0
3.489572525024414,0.589874267578125,-2.322866201400757,0
3.2974166870117188,1.0201807022094727,-2.720703363418579,0
2.800642967224121,1.1804113388061523,-3.1131057739257812,0
1.9198212623596191,1.212264060974121,-3.4403655529022217,0
0.727796196937561,1.2335805892944336,-3.4618046283721924,0
-0.5783845782279968,1.0656728744506836,-3.2772278785705566,0
-1.737159252166748,0.7715215682983398,-2.878812789916992,0
-2.6161646842956543,0.30634021759033203,-2.2277140617370605,0
-2.9148519039154053,-0.31978797912597656,-1.5957527160644531,0
-2.731494903564453,-1.0275745391845703,-1.022416114807129,0
-2.3169045448303223,-1.7857389450073242,-0.6163971424102783,0
-1.9243178367614746,-2.417234420776367,-0.39748167991638184,0
-1.7111108303070068,-2.8673267364501953,-0.22678565979003906,0
-1.4296150207519531,-3.224912166595459,-0.08001863956451416,0
-1.2625916004180908,-3.444882869720459,-0.06441569328308105,0
-1.2330117225646973,-3.7403464317321777,-0.1389561891555786,0
-1.2590092420578003,-3.9152331352233887,-0.3176197409629822,0
-1.4291369915008545,-3.881251335144043,-0.6241015791893005,0
-1.5117124319076538,-3.911254405975342,-1.0605381727218628,0
-1.5646953582763672,-3.821043014526367,-1.4306347370147705,0
-1.2681958675384521,-3.4673337936401367,-1.6383721828460693,0
-1.091494083404541,-3.0154876708984375,-1.884286642074585,0
-0.7592263221740723,-2.5661158561706543,-2.0792531967163086,0
-0.35467949509620667,-1.9088354110717773,-2.2111854553222656,0
-0.23942038416862488,-1.4479427337646484,-2.28044056892395,0
-0.25774678587913513,-1.0516653060913086,-2.0958871841430664,0
-0.04326680302619934,-0.4832010269165039,-1.7824963331222534,0
-0.06985455751419067,-0.3357248306274414,-1.5946259498596191,0
-0.06931930780410767,-0.2428722381591797,-1.3415035009384155,0
-0.08202719688415527,-0.26915740966796875,-1.1222208738327026,0
-0.05296221375465393,-0.2686042785644531,-0.7344731688499451,0
-0.08294305205345154,-0.2580270767211914,-0.21500170230865479,0
-0.016614437103271484,-0.2853260040283203,0.27061814069747925,0
0.10770773887634277,-0.3409700393676758,0.6335135102272034,0
0.20141172409057617,-0.4273834228515625,0.8233402371406555,0
0.3670211732387543,-0.42264366149902344,0.9046047925949097,0
0.5972005128860474,-0.44408607482910156,0.9684967398643494,0
0.8491268157958984,-0.4056558609008789,1.027432918548584,0
1.1229689121246338,-0.26202964782714844,1.0966548919677734,0
1.3804808855056763,-0.09463977813720703,1.1918187141418457,0
1.5308839082717896,0.012806892395019531,1.2592496871948242,0
1.6938707828521729,0.036502838134765625,1.3314239978790283,0
1.7856801748275757,0.022014617919921875,1.4237253665924072,0
1.926177740097046,-0.2051410675048828,1.5078587532043457,0
2.068112850189209,-0.6542568206787109,1.6149369478225708,0
2.00372314453125,-1.20550537109375,1.5887333154678345,0
2.292963981628418,-1.4188117980957031,1.8349140882492065,0
2.301968812942505,-1.796760082244873,1.6944160461425781,0
2.3830058574676514,-1.920731544494629,1.5444579124450684,0
2.3371143341064453,-1.6069364547729492,1.4012682437896729,0
2.330768585205078,-1.0280675888061523,1.2625483274459839,0
2.2333550453186035,-0.16769790649414062,1.188643455505371,0
2.1369266510009766,0.7132034301757812,1.177920937538147,0
1.9832265377044678,1.5691699981689453,1.2929006814956665,0
1.848397970199585,2.1802215576171875,1.4833431243896484,0
1.61283540725708,2.5585784912109375,1.7752275466918945,0
1.4350074529647827,2.680607795715332,2.1493518352508545,0
1.3491305112838745,2.5968666076660156,2.7042548656463623,0
1.3579022884368896,2.39849853515625,3.177177906036377,0
1.700393557548523,2.128676414489746,3.2453665733337402,0
2.2801456451416016,1.7419891357421875,2.8102622032165527,0
2.95023250579834,1.4513015747070312,2.1344194412231445,0
3.6121418476104736,1.368830680847168,1.59554123878479,0
4.388075828552246,1.4321470260620117,1.2796525955200195,0
5.017521858215332,1.6386833190917969,1.0766525268554688,0
5.402636528015137,1.8950300216674805,0.8338323831558228,0
5.428319454193115,2.275261878967285,0.45880207419395447,0
4.931138515472412,2.7840051651000977,0.005396604537963867,0
4.422763347625732,3.213083267211914,-0.37260717153549194,0
4.407388687133789,4.299044609069824,-0.5462861061096191,0
3.6615655422210693,5.0439605712890625,-0.48239943385124207,0
3.229722499847412,5.620456695556641,-0.32499000430107117,0
2.729628562927246,5.801579475402832,-0.7186516523361206,0
1.812541127204895,5.657114028930664,-1.6048935651779175,0
1.1073435544967651,4.988958358764648,-2.8533360958099365,0
0.27104735374450684,4.134913444519043,-3.7446706295013428,0
-0.33262449502944946,3.147871971130371,-4.129154682159424,0
-0.9113277792930603,2.2408838272094727,-3.967529296875,0
-1.4520761966705322,1.609999656677246,-3.321209192276001,0
-1.9703218936920166,1.364974021911621,-2.3875951766967773,0
-2.388294219970703,1.4432830810546875,-1.5046260356903076,0
-2.5879838466644287,1.727492332458496,-1.0673974752426147,0
-2.796175003051758,2.1983861923217773,-1.082990050315857,0
-2.7970077991485596,2.5116090774536133,-1.2181651592254639,0
-2.851170063018799,2.736910820007324,-1.4722211360931396,0
-2.8677616119384766,2.80047607421875,-1.692633867263794,0
-3.0334975719451904,2.843714714050293,-1.8077099323272705,0
-3.174044132232666,2.933643341064453,-1.927137017250061,0
-3.323328971862793,3.0366411209106445,-1.9880121946334839,0
-3.5083208084106445,3.147747039794922,-2.126526355743408,0
-3.607573986053467,3.206981658935547,-2.3434863090515137,0
-3.7293388843536377,3.2118701934814453,-2.494877338409424,0
-3.8834683895111084,3.1838912963867188,-2.44223690032959,0
-4.1539764404296875,3.161280632019043,-2.0953550338745117,0
-4.308773040771484,3.1224746704101562,-1.541269302368164,0
-4.326237201690674,3.084235191345215,-0.9603902101516724,0
-4.230249881744385,2.9749069213867188,-0.4591655731201172,0
-4.05665922164917,2.7444934844970703,-0.127327561378479,0
-3.772066354751587,2.3741884231567383,0.06992876529693604,0
-3.35260009765625,1.8667173385620117,0.12461209297180176,0
-2.8483214378356934,1.2438831329345703,0.06740450859069824,0
-2.2492563724517822,0.5775833129882812,-0.10880732536315918,0
-1.5714221000671387,0.03043079376220703,-0.4229506254196167,0
-0.9383901357650757,-0.45514965057373047,-0.8175144791603088,0
-0.21512597799301147,-0.9033117294311523,-1.0720338821411133,0
0.25981056690216064,-1.3072013854980469,-1.2360897064208984,0
0.5306732654571533,-1.6791582107543945,-1.4499305486679077,0
0.7342908382415771,-2.1246743202209473,-1.6099854707717896,0
0.8397986888885498,-2.6224265098571777,-1.6365160942077637,0
0.9502871036529541,-3.129549026489258,-1.5960888862609863,0
0.8809932470321655,-3.646040916442871,-1.6274813413619995,0
0.9476255178451538,-4.090653896331787,-1.5273958444595337,0
0.9181193113327026,-4.315383434295654,-1.388963222503662,0
0.8738493919372559,-4.4687323570251465,-1.3536819219589233,0
0.7859189510345459,-4.469418048858643,-1.3046636581420898,0
0.4572490453720093,-4.355672359466553,-1.254284381866455,0
0.2511183023452759,-4.151479244232178,-1.116595983505249,0
0.14096438884735107,-3.904872417449951,-0.8818328380584717,0
-0.0985192060470581,-3.663825035095215,-0.6190149784088135,0
-0.37219321727752686,-3.387767791748047,-0.4233224391937256,0
-0.5921753644943237,-3.1796603202819824,-0.28223729133605957,0
-0.806868851184845,-2.991685390472412,-0.16424798965454102,0
-0.980708658695221,-2.8885207176208496,-0.06413507461547852,0
-1.0828180313110352,-2.788844585418701,-0.058252573013305664,0
-1.0894806385040283,-2.6950950622558594,-0.1488490104675293,0
-1.0271767377853394,-2.7506542205810547,-0.2835714817047119,0
-0.9700796604156494,-2.862060546875,-0.40281248092651367,0
-0.8750364780426025,-2.9384074211120605,-0.46363091468811035,0
-0.866655707359314,-3.0132603645324707,-0.4635775089263916,0
-0.7773979902267456,-3.201470375061035,-0.4432675838470459,0
-0.6143262386322021,-3.491057872772217,-0.4001598358154297,0
-0.5038070678710938,-3.8533782958984375,-0.2862057685852051,0
-0.3401455879211426,-4.2215256690979,-0.12762689590454102,0
-0.25688278675079346,-4.614741802215576,0.023052215576171875,0
-0.19843101501464844,-4.987658500671387,0.18024301528930664,0
-0.10675442218780518,-5.354707717895508,0.2888808250427246,0
-0.053328514099121094,-5.651313304901123,0.31539297103881836,0
-0.021295666694641113,-5.88942813873291,0.2644319534301758,0
-0.0417865514755249,-5.96851921081543,0.17394089698791504,0
-0.1583482027053833,-5.8383378982543945,0.07468104362487793,0
-0.2639123201370239,-5.637643337249756,-0.004854440689086914,0
-0.24182844161987305,-5.41181755065918,0.04278254508972168,0
-0.21007472276687622,-5.167952537536621,0.11460328102111816,0
-0.121326744556427,-4.925120830535889,0.2584245204925537,0
0.02413761615753174,-4.601888179779053,0.28498268127441406,0
0.1469331979751587,-4.28419828414917,0.2776048183441162,0
0.2566143274307251,-3.981372833251953,0.24522638320922852,0
0.437150239944458,-3.5640430450439453,0.16794776916503906,0
0.6579928398132324,-3.082451820373535,0.1361072063446045,0
0.8885920643806458,-2.4240951538085938,0.09378504753112793,0
1.182308316230774,-1.6248359680175781,-0.08199524879455566,0
1.4317989349365234,-0.6510772705078125,-0.26549386978149414,0
1.4364824295043945,0.47817039489746094,-0.448413610458374,0
1.4071893692016602,1.6938972473144531,-0.5896315574645996,0
1.3078471422195435,2.9726943969726562,-0.6291301250457764,0
1.0301892757415771,4.266995429992676,-0.31455516815185547,0
0.419319212436676,5.49542236328125,0.5170903205871582,0
-0.14455097913742065,6.646103858947754,1.430830717086792,0
-0.8555529117584229,7.707075119018555,2.3775556087493896,0
-1.574328064918518,8.467595100402832,3.505112409591675,0
-1.6372897624969482,8.499187469482422,4.667560577392578,0
-1.7651729583740234,8.045745849609375,5.587525844573975,0
-1.985410451889038,7.41082763671875,6.262537002563477,0
-2.1871914863586426,6.541751861572266,6.552562713623047,0
-2.26712703704834,5.350362777709961,6.496048450469971,0
-2.2244062423706055,4.009404182434082,6.3125505447387695,0
-2.2160215377807617,2.730022430419922,5.627235412597656,0
-2.5237314701080322,1.912938117980957,3.95308518409729,0
-2.737874984741211,1.5878076553344727,2.087686777114868,0
-3.0050137042999268,1.6780614852905273,0.9004595279693604,0
-3.3454389572143555,2.498189926147461,0.3381776809692383,0
-3.520373582839966,3.9716882705688477,0.19680142402648926,0
-2.8684580326080322,5.720195770263672,0.2998538017272949,0
-1.5352213382720947,7.291616439819336,0.13382911682128906,0
-0.4383123517036438,8.572360038757324,-0.9402608871459961,0
0.3364388942718506,9.63591194152832,-2.6271326541900635,0
0.9479840993881226,10.222990989685059,-3.9455692768096924,0
1.0729026794433594,10.015453338623047,-4.680002689361572,0
0.08869946002960205,8.735509872436523,-5.147080421447754,0
-1.692719578742981,6.016535758972168,-5.580416679382324,0
-3.4411048889160156,3.125359535217285,-5.567605972290039,0
-4.1115264892578125,0.6634397506713867,-4.784702301025391,0
-3.5055227279663086,-1.2047357559204102,-3.8405933380126953,0
-2.8416988849639893,-2.2643613815307617,-3.5711190700531006,0
-2.2306995391845703,-2.657036304473877,-3.190168619155884,0
-1.6377754211425781,-2.679778575897217,-2.158214569091797,0
-1.0718247890472412,-2.682027816772461,-0.9853612184524536,0
-0.3793821334838867,-2.7404346466064453,-0.14435720443725586,0
0.1531936526298523,-2.9294824600219727,0.35511302947998047,0
0.25218522548675537,-3.0485262870788574,0.3716437816619873,0
0.5714334845542908,-3.018892765045166,-0.060361623764038086,0
0.8685790300369263,-2.680551528930664,-0.5631897449493408,0
1.3378292322158813,-2.315925121307373,-1.2051281929016113,0
1.507875919342041,-1.9849071502685547,-1.7546687126159668,0
1.6863105297088623,-1.7955384254455566,-2.201094388961792,0
1.9694130420684814,-1.779451847076416,-2.5277483463287354,0
2.4561495780944824,-1.8080329895019531,-2.9427411556243896,0
2.724210500717163,-1.5088791847229004,-3.3933098316192627,0
2.8003952503204346,-0.9760704040527344,-3.8318052291870117,0
2.3657431602478027,-0.2671794891357422,-4.211831092834473,0
1.6718488931655884,0.5966205596923828,-4.4117326736450195,0
0.6488149166107178,1.5133056640625,-4.5124406814575195,0
-0.5033869743347168,2.158641815185547,-4.229401588439941,0
-1.4768362045288086,2.2922496795654297,-3.603318452835083,0
-2.0509443283081055,2.0061893463134766,-2.765751838684082,0
-2.132554531097412,1.3156852722167969,-1.9319064617156982,0
-1.8519322872161865,0.44619274139404297,-1.218744158744812,0
-1.6377487182617188,-0.4753303527832031,-0.5966591835021973,0
-1.5812811851501465,-1.429840087890625,-0.11414778232574463,0
-1.6545491218566895,-2.2286534309387207,0.20511651039123535,0
-1.6406474113464355,-2.8077168464660645,0.3020768165588379,0
-1.6269679069519043,-3.375638961791992,0.1587439775466919,0
-1.7325494289398193,-3.7365808486938477,-0.19981813430786133,0
-1.8953348398208618,-3.917210578918457,-0.7057612538337708,0
-2.1183583736419678,-3.874744415283203,-1.2293301820755005,0
-2.2662038803100586,-3.578382968902588,-1.7006728649139404,0
-2.2821857929229736,-3.1815218925476074,-2.0377938747406006,0
-2.030182123184204,-2.7919464111328125,-2.1780807971954346,0
-1.6035511493682861,-2.3116750717163086,-2.2310898303985596,0
-1.2604029178619385,-1.7647695541381836,-2.237154245376587,0
-1.0340135097503662,-1.3593015670776367,-2.261052131652832,0
-0.8140369653701782,-1.1405057907104492,-2.2047574520111084,0
-0.4063423275947571,-0.7638034820556641,-2.0210092067718506,0
-0.27770665287971497,-0.6429767608642578,-1.7609472274780273,0
-0.11221715807914734,-0.7274675369262695,-1.4083843231201172,0
0.011318981647491455,-0.8472461700439453,-1.0859590768814087,0
0.05705052614212036,-1.0357427597045898,-0.8302068710327148,0
0.16597098112106323,-1.2307043075561523,-0.5964328050613403,0
0.19894856214523315,-1.405837059020996,-0.36369067430496216,0
0.21339040994644165,-1.4894790649414062,-0.14936156570911407,0
0.25217947363853455,-1.481797218322754,0.07729512453079224,0
0.274432897567749,-1.3733978271484375,0.3810799717903137,0
0.26830700039863586,-1.2935867309570312,0.640080451965332,0
0.5090887546539307,-1.196955680847168,0.9311536550521851,0
0.671550989151001,-1.0190153121948242,1.178220272064209,0
0.7368038892745972,-0.9989986419677734,1.2120662927627563,0
0.9277627468109131,-1.048262596130371,1.2799068689346313,0
1.1558865308761597,-1.032820701599121,1.2435102462768555,0
1.3348625898361206,-0.8881759643554688,1.1870520114898682,0
1.5482056140899658,-0.6885967254638672,1.1611905097961426,0
1.6664268970489502,-0.5775995254516602,1.2091456651687622,0
1.7611559629440308,-0.4474525451660156,1.350296974182129,0
1.8014626502990723,-0.4201192855834961,1.4986042976379395,0
1.8401505947113037,-0.4667797088623047,1.5678377151489258,0
1.747910737991333,-0.4701852798461914,1.5002617835998535,0
1.6733614206314087,-0.5619363784790039,1.4148684740066528,0
1.6932804584503174,-0.5889348983764648,1.3299012184143066,0
1.6211652755737305,-0.5130767822265625,1.2465128898620605,0
1.516730785369873,-0.27953529357910156,1.2501834630966187,0
1.4656411409378052,-8.955001831054688E-4,1.3361256122589111,0
1.2524241209030151,0.20565223693847656,1.438068151473999,0
1.4692964553833008,0.4884929656982422,1.9802943468093872,0
1.483638048171997,0.5104207992553711,2.317741870880127,0
1.8023794889450073,0.6423778533935547,2.644662380218506,0
