AccX,AccY,AccZ,stepCount
-1.7989426851272583,-5.012280464172363,-1.4163835048675537,12
-1.7989426851272583,-5.012280464172363,-1.4163835048675537,1.7553141117095947
-2.0131518840789795,-4.691854476928711,-1.4410884380340576,-0.4662590026855469
-1.9389002323150635,-4.120584964752197,-1.374654769897461,2.131584882736206
-1.6855754852294922,-3.463822841644287,-1.3337119817733765,-2.1040866374969482
-1.2568691968917847,-2.781477928161621,-1.2770899534225464,-0.651311993598938
-0.6410428881645203,-2.1668567657470703,-1.1660223007202148,-1.4467108249664307
-0.055204905569553375,-1.7107000350952148,-1.1318848133087158,2.1842479705810547
0.4534591734409332,-1.4294605255126953,-1.1605291366577148,-0.8467544913291931
0.8210915327072144,-1.3730239868164062,-1.2045652866363525,1.3908164501190186
0.947754979133606,-1.4668941497802734,-1.2239248752593994,-4.716988563537598
0.912572979927063,-1.6629915237426758,-1.1139780282974243,1.7329561710357666
0.8591373562812805,-1.9969863891601562,-0.9330099821090698,0.5213231444358826
0.863972544670105,-2.428011894226074,-0.7536569833755493,0
0.9316229820251465,-2.7455296516418457,-0.6462125778198242,0
0.9567018747329712,-2.8947324752807617,-0.5107208490371704,0
1.1564927101135254,-2.6726865768432617,-0.3929350972175598,0
1.2168874740600586,-2.3022961616516113,-0.28113609552383423,0
1.343198537826538,-1.8388195037841797,-0.14644363522529602,0
1.4515244960784912,-1.3780736923217773,-0.0029034465551376343,0
1.6065661907196045,-0.7575340270996094,0.11402544379234314,0
1.705419659614563,-0.3265113830566406,0.2262253314256668,0
1.7340245246887207,-0.013051986694335938,0.334125816822052,0
1.8388359546661377,0.31687355041503906,0.4644845128059387,0
1.8985071182250977,0.60107421875,0.6344525218009949,0
1.8945167064666748,0.7965822219848633,0.7966867089271545,0
1.9277957677841187,0.9106969833374023,0.9560360908508301,0
1.9340256452560425,0.9770078659057617,1.1197333335876465,0
1.9134726524353027,0.9740715026855469,1.2015818357467651,0
1.8762094974517822,0.8756828308105469,1.2201035022735596,0
1.7890020608901978,0.7010812759399414,1.2030001878738403,0
1.6567713022232056,0.5698928833007812,1.2572393417358398,0
1.5300599336624146,0.45813560485839844,1.2601814270019531,0
1.351557970046997,0.23906898498535156,1.364845633506775,0
1.0685368776321411,-0.046515464782714844,1.5449397563934326,0
0.8029152154922485,-0.26940345764160156,1.815118432044983,0
0.5903449654579163,-0.25032520294189453,2.001638412475586,0
0.3583097457885742,-0.06369876861572266,1.9573380947113037,0
0.10822346806526184,0.3547830581665039,1.7330248355865479,0
-0.08440989255905151,0.90911865234375,1.4434069395065308,0
-0.06987887620925903,1.4077978134155273,1.2963502407073975,0
0.11043581366539001,1.8986635208129883,1.3656415939331055,0
0.3243127465248108,2.431886672973633,1.5937862396240234,0
0.6335751414299011,2.935652732849121,1.8374433517456055,0
1.0307245254516602,3.3215103149414062,1.874546766281128,0
1.414686918258667,3.4317407608032227,1.6261461973190308,0
1.8494480848312378,3.367033004760742,1.257042646408081,0
2.329813241958618,3.1203699111938477,1.056133508682251,0
2.8845181465148926,2.9143190383911133,1.1400851011276245,0
3.437436819076538,2.746450424194336,1.410415768623352,0
3.833857536315918,2.580900192260742,1.7474160194396973,0
4.064903259277344,2.4631547927856445,1.943656325340271,0
4.090350151062012,2.357349395751953,2.050734043121338,0
3.9483373165130615,2.42364501953125,1.87322998046875,0
3.7726054191589355,2.520718574523926,1.3685230016708374,0
3.519543409347534,2.909092903137207,0.6446138024330139,0
3.3085989952087402,3.3325424194335938,-0.008915454149246216,0
2.8958826065063477,3.738406181335449,-0.569064199924469,0
2.393547773361206,3.9998960494995117,-1.3751963376998901,0
1.5018484592437744,4.107538223266602,-2.0008294582366943,0
0.6345911026000977,4.004153251647949,-2.454124927520752,0
-0.021468639373779297,3.5466489791870117,-2.8358423709869385,0
-0.4872460961341858,2.828866958618164,-3.1751959323883057,0
-0.7928169965744019,2.1286468505859375,-3.277033567428589,0
-1.0016663074493408,1.5967607498168945,-3.125884771347046,0
-1.2735446691513062,1.3216066360473633,-2.6309309005737305,0
-1.5556681156158447,1.319732666015625,-1.836611032485962,0
-1.7191948890686035,1.5693721771240234,-1.4815666675567627,0
-1.8219300508499146,1.87664794921875,-1.7402496337890625,0
-1.8254787921905518,2.141232490539551,-2.2732152938842773,0
-1.83934485912323,2.3083724975585938,-2.673430919647217,0
-1.8532543182373047,2.4141921997070312,-2.88192081451416,0
-2.045954704284668,2.4635915756225586,-3.0135793685913086,0
-2.2973058223724365,2.5545921325683594,-3.225986957550049,0
-2.4997036457061768,2.651132583618164,-3.4835634231567383,0
-2.737119197845459,2.781771659851074,-3.7712550163269043,0
-2.9671149253845215,3.0444164276123047,-3.840538501739502,0
-3.269223690032959,3.2236499786376953,-3.5699081420898438,0
-3.5264477729797363,3.360166549682617,-2.952589750289917,0
-3.7219395637512207,3.3894290924072266,-2.1612894535064697,0
-3.8220741748809814,3.4191627502441406,-1.3352402448654175,0
-3.889139413833618,3.485287666320801,-0.6976313591003418,0
-4.002409934997559,3.5447778701782227,-0.0981985330581665,0
-4.056982040405273,3.6048765182495117,0.3263665437698364,0
-4.079646587371826,3.5604286193847656,0.5402079820632935,0
-4.037160396575928,3.3231372833251953,0.6224209070205688,0
-3.9537222385406494,2.7975759506225586,0.674028754234314,0
-3.6807518005371094,2.153799057006836,0.6142967939376831,0
-3.294119119644165,1.3966732025146484,0.3622417449951172,0
-2.891108989715576,0.6577596664428711,0.06655144691467285,0
-2.46366286277771,-0.09895038604736328,-0.2390223741531372,0
-2.0203139781951904,-0.8185348510742188,-0.5402323007583618,0
-1.6704223155975342,-1.5178356170654297,-0.7201635837554932,0
-1.3464536666870117,-2.2016968727111816,-0.8796926736831665,0
-1.0145692825317383,-2.7816648483276367,-1.0001775026321411,0
-0.7702573537826538,-3.2937283515930176,-1.141806721687317,0
-0.5920436382293701,-3.673417568206787,-1.3405545949935913,0
-0.4511476159095764,-3.9089531898498535,-1.5988850593566895,0
-0.2948606610298157,-4.014956951141357,-1.80170476436615,0
-0.20702266693115234,-3.996413230895996,-1.9370626211166382,0
-0.07753360271453857,-3.927618980407715,-2.021846055984497,0
0.04559445381164551,-3.7943081855773926,-2.0871682167053223,0
0.10951310396194458,-3.5559182167053223,-2.051713228225708,0
0.1742154359817505,-3.315471649169922,-1.994369626045227,0
0.328436017036438,-3.221461296081543,-1.6633673906326294,0
0.5051413774490356,-3.21663236618042,-1.1680042743682861,0
0.48148179054260254,-3.2532458305358887,-0.758838415145874,0
0.40047794580459595,-3.30741548538208,-0.5573687553405762,0
0.05323970317840576,-3.3168673515319824,-0.5299973487854004,0
-0.360195517539978,-3.2647452354431152,-0.6553375720977783,0
-0.6584407091140747,-3.2897000312805176,-0.818789005279541,0
-0.8346128463745117,-3.3749399185180664,-0.8600102663040161,0
-1.1019665002822876,-3.448751926422119,-0.8362452983856201,0
-1.2354763746261597,-3.6619462966918945,-0.7974357604980469,0
-1.2879716157913208,-3.8997464179992676,-0.7359800338745117,0
-1.316643238067627,-4.162264347076416,-0.6779615879058838,0
-1.2350242137908936,-4.51417875289917,-0.5705420970916748,0
-1.1312048435211182,-4.7713799476623535,-0.45192503929138184,0
-0.8563021421432495,-5.106229782104492,-0.32453393936157227,0
-0.48618096113204956,-5.451767921447754,-0.15733933448791504,0
-0.1758294701576233,-5.676468372344971,0.0039730072021484375,0
0.20697695016860962,-5.84018087387085,0.13028693199157715,0
0.6316949129104614,-5.928522109985352,0.2259235382080078,0
0.8065861463546753,-5.836118221282959,0.2567172050476074,0
0.6405628323554993,-5.433767795562744,0.2339940071105957,0
0.6718956828117371,-4.975040435791016,0.19536590576171875,0
0.7707394361495972,-4.531557559967041,0.20029497146606445,0
0.869307279586792,-4.067337512969971,0.29893016815185547,0
0.8969830274581909,-3.611086368560791,0.4604053497314453,0
0.8929689526557922,-3.198740005493164,0.6255137920379639,0
1.004249095916748,-2.7824792861938477,0.7540719509124756,0
1.0645089149475098,-2.450835704803467,0.8082640171051025,0
1.1851391792297363,-2.1534957885742188,0.8935756683349609,0
1.4037225246429443,-1.837824821472168,1.0363821983337402,0
1.6149625778198242,-1.4965524673461914,1.1214077472686768,0
1.9057068824768066,-1.1940793991088867,1.1575005054473877,0
2.1072309017181396,-0.7960805892944336,1.0261001586914062,0
2.209052562713623,-0.3237419128417969,0.7854101657867432,0
2.1145198345184326,0.209014892578125,0.48616504669189453,0
1.939650297164917,0.8384943008422852,0.1670970916748047,0
1.5630499124526978,1.5912466049194336,0.05162167549133301,0
1.1740591526031494,2.3166913986206055,0.1267414093017578,0
0.5933944582939148,3.026728630065918,0.37103819847106934,0
-0.08603659272193909,3.673192024230957,0.7187647819519043,0
-0.7980564832687378,4.172060966491699,1.0973122119903564,0
-1.4356342554092407,4.482281684875488,1.6068115234375,0
-1.6954394578933716,4.5291643142700195,2.354977607727051,0
-1.8075029850006104,4.400728225708008,3.1383509635925293,0
-1.8394240140914917,4.264041900634766,3.7840003967285156,0
-1.8323718309402466,4.071089744567871,4.2400970458984375,0
-1.7844603061676025,3.712141990661621,4.503870964050293,0
-1.6363885402679443,3.1853713989257812,4.658143043518066,0
-1.5465281009674072,2.6590442657470703,4.665098667144775,0
-1.7421985864639282,2.4527053833007812,3.745509624481201,0
-2.19674015045166,2.7782325744628906,2.6169865131378174,0
-2.8595309257507324,3.702948570251465,1.8028712272644043,0
-3.7338814735412598,5.156767845153809,1.1789851188659668,0
-4.409073829650879,6.9112548828125,0.35782432556152344,0
-4.434247970581055,8.8262357711792,-0.2767007350921631,0
-3.7193353176116943,10.638754844665527,-0.467792272567749,0
-2.477095365524292,12.116765022277832,-0.7564036846160889,0
-1.2844157218933105,12.988300323486328,-1.5049407482147217,0
-0.6632606983184814,13.020654678344727,-2.5658583641052246,0
-0.793378472328186,12.0132474899292,-3.569310426712036,0
-2.109821319580078,9.810029983520508,-4.151089191436768,0
-4.22341251373291,6.392980575561523,-4.534261703491211,0
-5.920441627502441,2.6363162994384766,-4.524188041687012,0
-5.94035530090332,-0.9084224700927734,-3.9166643619537354,0
-4.024971961975098,-3.6244263648986816,-3.1938657760620117,0
-2.38405442237854,-5.079635143280029,-2.8421010971069336,0
-1.3114444017410278,-5.812928199768066,-2.8792169094085693,0
-0.46471768617630005,-6.173815727233887,-2.971041202545166,0
0.40600860118865967,-6.413790702819824,-2.5627079010009766,0
1.1707043647766113,-6.368316650390625,-1.8594907522201538,0
1.5410172939300537,-5.978174686431885,-1.389356017112732,0
1.284150242805481,-5.243992805480957,-1.3328999280929565,0
1.3890526294708252,-4.324291706085205,-1.3516544103622437,0
1.5963001251220703,-3.2528514862060547,-1.5339947938919067,0
1.5386974811553955,-2.1014227867126465,-1.901954174041748,0
1.3510007858276367,-1.008652687072754,-2.2453951835632324,0
1.414285659790039,0.027919769287109375,-2.5046865940093994,0
1.8109487295150757,0.8860979080200195,-2.5810728073120117,0
2.2792131900787354,1.4794588088989258,-2.5544233322143555,0
2.523514747619629,2.0178871154785156,-2.4577555656433105,0
2.4563655853271484,2.328679084777832,-2.4561500549316406,0
2.0568931102752686,2.428624153137207,-2.6198439598083496,0
1.2675492763519287,2.2035131454467773,-2.8890862464904785,0
0.17112797498703003,1.6950798034667969,-3.138491630554199,0
-1.0302190780639648,1.091059684753418,-3.2820241451263428,0
-2.0722789764404297,0.5717201232910156,-3.2339348793029785,0
-2.846512794494629,0.16150665283203125,-2.9154906272888184,0
-3.117419481277466,-0.25411319732666016,-2.4051706790924072,0
-3.0054550170898438,-0.6701822280883789,-1.7879685163497925,0
-2.6040468215942383,-1.1154098510742188,-1.0764296054840088,0
-2.166363477706909,-1.6353559494018555,-0.3900182247161865,0
-1.859142780303955,-2.0842785835266113,0.18337392807006836,0
-1.6529121398925781,-2.467256546020508,0.4365832805633545,0
-1.5708116292953491,-2.817990779876709,0.38719630241394043,0
-1.6480247974395752,-3.1103100776672363,0.06937277317047119,0
-1.622971534729004,-3.4686074256896973,-0.3280678987503052,0
-1.6318320035934448,-3.634519577026367,-0.697932779788971,0
-1.5717217922210693,-3.680046558380127,-0.9350340366363525,0
-1.5481618642807007,-3.6699934005737305,-1.1489062309265137,0
-1.4157013893127441,-3.5997018814086914,-1.3510080575942993,0
-1.1868867874145508,-3.440566062927246,-1.553076982498169,0
-0.9505250453948975,-3.1353163719177246,-1.6138982772827148,0
-0.5484862923622131,-2.837202548980713,-1.6911778450012207,0
-0.21747639775276184,-2.5055885314941406,-1.6292145252227783,0
0.128768652677536,-2.2385478019714355,-1.5643532276153564,0
0.5312508344650269,-1.9594759941101074,-1.5205097198486328,0
0.8469336032867432,-1.7663860321044922,-1.4765163660049438,0
1.0449128150939941,-1.6376142501831055,-1.370488166809082,0
1.1731688976287842,-1.6639213562011719,-1.152444839477539,0
1.1861451864242554,-1.582066535949707,-0.9494245052337646,0
1.1695576906204224,-1.5667142868041992,-0.7377153635025024,0
1.075123906135559,-1.5819034576416016,-0.5103319883346558,0
1.0629082918167114,-1.5199966430664062,-0.32965636253356934,0
1.0847419500350952,-1.4097938537597656,-0.2077597975730896,0
1.128342628479004,-1.0624675750732422,-0.12104686349630356,0
1.054741621017456,-0.7174491882324219,-0.0652315616607666,0
1.0624154806137085,-0.41780853271484375,-0.060328904539346695,0
1.1012688875198364,-0.18027591705322266,0.0026734645944088697,0
1.1739885807037354,-0.08852291107177734,0.2160813808441162,0
1.1970003843307495,-0.15439128875732422,0.526729941368103,0
1.2183666229248047,-0.3394804000854492,0.8986734747886658,0
1.1424705982208252,-0.5815191268920898,1.2196681499481201,0
1.0481857061386108,-0.7800445556640625,1.389777421951294,0
0.8900256156921387,-0.9016513824462891,1.4050859212875366,0
0.753831148147583,-0.9966621398925781,1.3336366415023804,0
0.4835280179977417,-0.881016731262207,1.2384971380233765,0
0.2673379182815552,-0.636317253112793,1.1799763441085815,0
0.24561721086502075,-0.37754344940185547,1.232574224472046,0
0.37218645215034485,-0.1477985382080078,1.4082667827606201,0
0.574882984161377,0.009874343872070312,1.6066964864730835,0
0.7866961359977722,0.11945247650146484,1.734684944152832,0
1.0126755237579346,0.24076461791992188,1.7157764434814453,0
1.1600807905197144,0.40967750549316406,1.6745200157165527,0
1.260655403137207,0.5281171798706055,1.6920561790466309,0
1.4107307195663452,0.6487760543823242,1.7705234289169312,0
1.7089948654174805,0.8386421203613281,1.8331741094589233,0
2.1559486389160156,1.0809345245361328,1.755441665649414,0
2.75146746635437,1.4210338592529297,1.5090219974517822,0
3.207648992538452,1.8300790786743164,1.1687246561050415,0
3.4538981914520264,2.3198471069335938,0.8405706882476807,0
3.6807870864868164,2.7777748107910156,0.7042806148529053,0
3.93349027633667,3.122565269470215,0.8432151079177856,0
4.149907112121582,3.2300052642822266,1.2207010984420776,0
4.339991092681885,3.1267032623291016,1.5706918239593506,0
4.5209503173828125,2.968364715576172,1.6777764558792114,0
4.585301399230957,2.7957258224487305,1.5976123809814453,0
4.381709098815918,2.8287363052368164,1.2930049896240234,0
3.851304769515991,3.1291675567626953,0.8200705051422119,0
3.114581823348999,3.6821956634521484,0.425785630941391,0
2.5728673934936523,4.408544540405273,0.16239379346370697,0
2.3673901557922363,5.143033027648926,-0.16278302669525146,0
2.1734838485717773,5.785289764404297,-0.6133918762207031,0
1.7553141117095947,6.091592788696289,-1.2555303573608398,0
1.2445528507232666,6.036039352416992,-2.1910743713378906,0
0.672160267829895,5.549739837646484,-3.2558810710906982,0
0.4000297784805298,4.621390342712402,-4.131988048553467,0
0.4170708954334259,3.4788455963134766,-4.674205780029297,0
0.29142338037490845,2.35205078125,-4.51576042175293,0
0.0627242922782898,1.5017509460449219,-3.7637903690338135,0
-0.2775328755378723,1.1477441787719727,-2.6987240314483643,0
-0.8389545679092407,1.1915159225463867,-1.626542568206787,0
-1.2576504945755005,1.4964237213134766,-1.085417628288269,0
-1.6671130657196045,1.784956932067871,-0.979210376739502,0
-2.0932974815368652,1.9712495803833008,-0.9988758563995361,0
-2.5313634872436523,2.0914649963378906,-1.037987470626831,0
-2.9765384197235107,2.2079715728759766,-1.1303582191467285,0
-3.3739230632781982,2.268207550048828,-1.302320957183838,0
-3.807753801345825,2.4754037857055664,-1.426690936088562,0
-4.269304275512695,2.82440185546875,-1.5916554927825928,0
-4.687824726104736,3.2095518112182617,-1.8737366199493408,0
-5.064626693725586,3.49185848236084,-2.1493892669677734,0
-5.300106048583984,3.609084129333496,-2.289081573486328,0
-5.382449150085449,3.587648391723633,-2.202573299407959,0
-5.170214653015137,3.516190528869629,-1.848111867904663,0
-4.938368320465088,3.540705680847168,-1.2154682874679565,0
-4.710986614227295,3.5176925659179688,-0.45911431312561035,0
-4.469222068786621,3.44970703125,0.31937432289123535,0
-4.153531074523926,3.324970245361328,0.7987064123153687,0
-3.8095450401306152,3.0050277709960938,0.9041842222213745,0
-3.346207857131958,2.5859241485595703,0.7143797874450684,0
-2.7394275665283203,1.9889678955078125,0.29155027866363525,0
-2.106074333190918,1.2980728149414062,-0.18443095684051514,0
-1.3787606954574585,0.6710739135742188,-0.605133056640625,0
-0.6618651151657104,0.18428325653076172,-0.9054346680641174,0
-0.05983799695968628,-0.27727222442626953,-1.147742509841919,0
0.43788468837738037,-0.7209196090698242,-1.3270230293273926,0
0.7109174728393555,-1.2162590026855469,-1.4212684631347656,0
0.9069951176643372,-1.7109203338623047,-1.5064733028411865,0
1.1517181396484375,-2.30075740814209,-1.5132067203521729,0
1.1589150428771973,-2.91640567779541,-1.590170979499817,0
1.087052822113037,-3.481353759765625,-1.6946475505828857,0
0.9575657844543457,-3.9454755783081055,-1.798110008239746,0
0.8583833575248718,-4.301722526550293,-1.7499847412109375,0
0.8892862200737,-4.555070400238037,-1.557346224784851,0
0.7693690657615662,-4.610069751739502,-1.3825081586837769,0
0.5458516478538513,-4.505232334136963,-1.2635515928268433,0
0.43355703353881836,-4.439220905303955,-1.1309984922409058,0
0.2929028272628784,-4.32589864730835,-0.89389967918396,0
0.017955005168914795,-4.182025909423828,-0.6575779914855957,0
-0.26964259147644043,-3.9836807250976562,-0.5369288921356201,0
-0.5537233948707581,-3.8002562522888184,-0.4552595615386963,0
-0.8131720423698425,-3.650848865509033,-0.3551485538482666,0
-1.048619031906128,-3.473254680633545,-0.26998162269592285,0
-1.0883677005767822,-3.4349288940429688,-0.16130399703979492,0
-1.1146713495254517,-3.46162748336792,-0.17244720458984375,0
-1.1301368474960327,-3.5318002700805664,-0.2266232967376709,0
-1.0631409883499146,-3.671668529510498,-0.4100155830383301,0
-0.9254858493804932,-3.9026455879211426,-0.6485557556152344,0
-0.8104735612869263,-4.131435871124268,-0.7794356346130371,0
-0.7538452744483948,-4.348592281341553,-0.8909831047058105,0
-0.4703834652900696,-4.721728801727295,-0.8081738948822021,0
-0.18223434686660767,-5.1003193855285645,-0.5974271297454834,0
-0.022625327110290527,-5.49654483795166,-0.41620755195617676,0
0.26045483350753784,-5.867466926574707,-0.2380373477935791,0
0.4451907277107239,-6.160530090332031,-0.17544174194335938,0
0.7047565579414368,-6.418842792510986,-0.14488959312438965,0
0.9487370848655701,-6.558696269989014,-0.11794710159301758,0
1.0938379764556885,-6.561062812805176,-0.07564687728881836,0
0.9912297129631042,-6.394955635070801,0.005921363830566406,0
0.5012202858924866,-5.876386642456055,0.16030430793762207,0
0.3650156259536743,-5.287851333618164,0.2462451457977295,0
0.2898216247558594,-4.727299690246582,0.2802467346191406,0
0.3371564745903015,-4.17537260055542,0.35520052909851074,0
0.29787370562553406,-3.593597412109375,0.41803598403930664,0
0.3458266258239746,-3.000973701477051,0.4636263847351074,0
0.5280977487564087,-2.392488479614258,0.431530237197876,0
0.6049879789352417,-1.7439212799072266,0.35187530517578125,0
0.7893418073654175,-1.1076488494873047,0.2548339366912842,0
0.9903134703636169,-0.4427337646484375,0.19916558265686035,0
1.1628187894821167,0.21033954620361328,0.27245664596557617,0
1.2832024097442627,0.8709402084350586,0.40427565574645996,0
1.2823821306228638,1.5608329772949219,0.45006585121154785,0
1.2637302875518799,2.2467117309570312,0.5333788394927979,0
1.0600162744522095,2.9311771392822266,0.6509702205657959,0
0.7310984134674072,3.6669158935546875,0.8168411254882812,0
0.32198551297187805,4.386771202087402,1.1654038429260254,0
-0.30912673473358154,5.066650390625,1.6709778308868408,0
-0.961694598197937,5.68474006652832,2.368180751800537,0
-1.5040371417999268,6.099427223205566,3.2971858978271484,0
-1.9454970359802246,6.415524482727051,4.290172576904297,0
-2.235736846923828,6.637450218200684,5.162158012390137,0
-2.4897568225860596,6.765172004699707,5.674664497375488,0
-2.6358542442321777,6.708439826965332,5.692540168762207,0
-2.7862708568573,6.437544822692871,5.0284929275512695,0
-2.99096417427063,6.102300643920898,4.159786701202393,0
-3.364835500717163,6.005187034606934,3.1932826042175293,0
-3.6402270793914795,6.35719108581543,2.22487211227417,0
-3.8589320182800293,7.05979061126709,1.365105152130127,0
-4.0171403884887695,8.18366527557373,0.5975005626678467,0
-3.7462334632873535,9.6289644241333,0.04117178916931152,0
-2.803245782852173,11.0345458984375,-0.48211240768432617,0
-1.4855483770370483,12.053077697753906,-0.8087368011474609,0
-0.4662590026855469,12.335258483886719,-1.1225190162658691,0
-0.16222435235977173,11.68402099609375,-1.6462663412094116,0
-0.6459493041038513,9.78468132019043,-2.3079848289489746,0
-2.163628101348877,6.632678985595703,-2.7755608558654785,0
-3.8681719303131104,2.72866153717041,-2.8098082542419434,0
-4.770725250244141,-0.8197908401489258,-2.8230981826782227,0
-4.7269134521484375,-3.717679500579834,-2.6807007789611816,0
-3.9928314685821533,-5.749869346618652,-2.6121625900268555,0
-3.126932144165039,-6.933327674865723,-2.8947079181671143,0
-2.3841514587402344,-7.6818695068359375,-3.3964738845825195,0
-1.6993205547332764,-8.210585594177246,-3.9132847785949707,0
-0.9472250938415527,-8.555464744567871,-3.8644115924835205,0
-0.19635382294654846,-8.528205871582031,-3.0675735473632812,0
0.27836406230926514,-8.00529956817627,-2.1893534660339355,0
0.5493217706680298,-6.968613147735596,-1.4865684509277344,0
0.790688693523407,-5.591429710388184,-1.0601080656051636,0
1.19964599609375,-4.099264144897461,-0.9875435829162598,0
1.502466082572937,-2.4970602989196777,-1.1537238359451294,0
1.772639274597168,-0.7751693725585938,-1.4325498342514038,0
2.3352808952331543,1.0401477813720703,-1.6814424991607666,0
3.0945804119110107,3.044438362121582,-1.8507968187332153,0
3.842259407043457,4.923857688903809,-1.9637279510498047,0
4.2349934577941895,6.350234031677246,-1.9314875602722168,0
3.97568416595459,6.93623161315918,-1.9452025890350342,0
2.8970906734466553,6.345864295959473,-2.2047595977783203,0
1.0031944513320923,4.487981796264648,-2.5601446628570557,0
-0.8676161766052246,2.08212947845459,-2.6494388580322266,0
-1.8221442699432373,-0.040802001953125,-2.365015983581543,0
-2.0287833213806152,-1.7253165245056152,-1.965535044670105,0
-1.9676225185394287,-2.988373279571533,-1.5654393434524536,0
-1.8660438060760498,-3.7490358352661133,-1.2542601823806763,0
-1.7465530633926392,-4.098761558532715,-0.9819223880767822,0
-1.7302014827728271,-4.061997890472412,-0.8223732709884644,0
-1.6985270977020264,-3.825831413269043,-0.7343443632125854,0
-1.6475484371185303,-3.5723628997802734,-0.6908348798751831,0
-1.5438313484191895,-3.392639636993408,-0.6910009980201721,0
-1.3940320014953613,-3.241300106048584,-0.7124491333961487,0
-1.2402023077011108,-3.223598003387451,-0.8074392676353455,0
-1.0287501811981201,-3.279606342315674,-0.9280843138694763,0
-0.844878077507019,-3.3566012382507324,-1.0890238285064697,0
-0.6782772541046143,-3.449753761291504,-1.2569929361343384,0
-0.4833793640136719,-3.4275012016296387,-1.408298373222351,0
-0.2769523859024048,-3.3736486434936523,-1.5120872259140015,0
-0.1553894430398941,-3.0969371795654297,-1.582695484161377,0
-0.12162037193775177,-2.686126708984375,-1.5505626201629639,0
-0.03695625066757202,-2.3015947341918945,-1.669151782989502,0
0.009875714778900146,-1.8357234001159668,-1.734755516052246,0
0.023619771003723145,-1.3914194107055664,-1.7570340633392334,0
0.15765154361724854,-1.1694908142089844,-1.7195205688476562,0
0.1083243191242218,-1.0476913452148438,-1.6179280281066895,0
0.048369988799095154,-1.0784931182861328,-1.3832128047943115,0
-0.065323606133461,-1.173238754272461,-1.0657418966293335,0
-0.036610569804906845,-1.3844490051269531,-0.7257949113845825,0
0.01745438016951084,-1.5374259948730469,-0.36863023042678833,0
0.14482584595680237,-1.617915153503418,-0.10687445104122162,0
0.10833516716957092,-1.4490833282470703,0.03805609792470932,0
0.13722175359725952,-1.155613899230957,0.24372848868370056,0
0.22136162221431732,-0.6324787139892578,0.4814504384994507,0
0.29080191254615784,-0.11432743072509766,0.7484202980995178,0
0.4576743543148041,0.1286029815673828,0.9433162212371826,0
0.6910465955734253,0.19702720642089844,1.1753238439559937,0
0.8595194816589355,0.11979103088378906,1.4077004194259644,0
1.0567522048950195,-0.16994380950927734,1.6302635669708252,0
1.1274662017822266,-0.44720935821533203,1.7277435064315796,0
1.1576769351959229,-0.6164522171020508,1.602004051208496,0
1.1474316120147705,-0.8404502868652344,1.3992923498153687,0
1.2283881902694702,-0.7891826629638672,1.1653796434402466,0
1.1420730352401733,-0.49886322021484375,0.9633469581604004,0
0.9980697631835938,-0.11563491821289062,0.8641481995582581,0
0.8938150405883789,0.31019115447998047,0.8813658952713013,0
0.8190933465957642,0.7044382095336914,0.9227321147918701,0
0.881373405456543,0.9499750137329102,1.0795649290084839,0
0.9900227785110474,1.099593162536621,1.3131009340286255,0
0.9973630905151367,1.2442569732666016,1.507366418838501,0
0.9636480808258057,1.4628028869628906,1.6485590934753418,0
0.8916870951652527,1.7311773300170898,1.8286449909210205,0
0.9564201831817627,1.965651512145996,2.0404515266418457,0
1.0767416954040527,2.1161460876464844,2.2014851570129395,0
1.250199556350708,2.1541318893432617,2.1145527362823486,0
1.5409674644470215,2.156264305114746,1.6942156553268433,0
1.9242457151412964,2.163149833679199,1.1149823665618896,0
2.399338722229004,2.055147171020508,0.6396143436431885,0
2.829178810119629,1.9566707611083984,0.4998887777328491,0
3.193955898284912,1.9202651977539062,0.6794001460075378,0
3.5192437171936035,1.9195022583007812,1.0114389657974243,0
3.8067986965179443,1.908858299255371,1.2910077571868896,0
3.9962804317474365,1.8882923126220703,1.4111993312835693,0
4.067911624908447,1.9294633865356445,1.2433503866195679,0
3.8726963996887207,2.123072624206543,0.8718261122703552,0
3.4003827571868896,2.566849708557129,0.3850545287132263,0
2.9233903884887695,3.2317323684692383,-0.13383063673973083,0
2.523336887359619,4.050528526306152,-0.5420732498168945,0
2.131584882736206,4.834235191345215,-0.9508702754974365,0
1.9259612560272217,5.339069366455078,-1.7063922882080078,0
1.5622930526733398,5.338271141052246,-2.5298385620117188,0
1.098587155342102,4.9162397384643555,-3.383619546890259,0
0.6766148805618286,4.135772705078125,-4.086520195007324,0
0.3475678861141205,3.205489158630371,-4.283111572265625,0
0.0936470627784729,2.2739810943603516,-3.8194077014923096,0
-0.26334232091903687,1.5494451522827148,-2.8971171379089355,0
-0.8420849442481995,1.2230463027954102,-1.8370026350021362,0
-1.261802315711975,1.3709049224853516,-1.3811125755310059,0
-1.648792028427124,1.8538780212402344,-1.431699275970459,0
-1.9257445335388184,2.298707962036133,-1.5028071403503418,0
-2.1499736309051514,2.6338653564453125,-1.3781746625900269,0
-2.3429794311523438,2.9026708602905273,-1.310501217842102,0
-2.485671043395996,3.1961822509765625,-1.31058931350708,0
-2.6905386447906494,3.593332290649414,-1.28065824508667,0
-3.0032427310943604,3.940898895263672,-1.3134260177612305,0
-3.472391366958618,4.169424057006836,-1.4656282663345337,0
-3.9150006771087646,4.113857269287109,-1.8188855648040771,0
-4.229349136352539,3.8891382217407227,-2.0588250160217285,0
-4.219902038574219,3.4833850860595703,-2.10652494430542,0
-4.1091837882995605,3.083240509033203,-1.8930513858795166,0
-4.057250022888184,2.832106590270996,-1.4741648435592651,0
-4.083004951477051,2.779984474182129,-0.943926990032196,0
-4.088395595550537,2.802339553833008,-0.47812825441360474,0
-4.092795372009277,2.7701101303100586,-0.1549054980278015,0
-3.9958674907684326,2.602261543273926,0.04335308074951172,0
-3.773754596710205,2.2943668365478516,0.17526471614837646,0
-3.4119300842285156,1.8276090621948242,0.25456058979034424,0
-2.9963111877441406,1.2429180145263672,0.2093513011932373,0
-2.5002923011779785,0.5882883071899414,0.020832180976867676,0
-1.8802791833877563,0.014402389526367188,-0.33659863471984863,0
-1.2767506837844849,-0.5530338287353516,-0.7666622400283813,0
-0.753921627998352,-1.0829715728759766,-1.1280111074447632,0
-0.2802174389362335,-1.582723617553711,-1.331810474395752,0
0.15944647789001465,-2.0333991050720215,-1.4061212539672852,0
0.4440748691558838,-2.552490711212158,-1.5079983472824097,0
0.5652801394462585,-3.0613064765930176,-1.6963555812835693,0
0.6006431579589844,-3.5384812355041504,-2.05248761177063,0
0.6247653961181641,-3.9578113555908203,-2.3134570121765137,0
0.6423860192298889,-4.2404937744140625,-2.364816188812256,0
0.6315282583236694,-4.484742164611816,-2.19256329536438,0
0.6395114660263062,-4.685999393463135,-1.8296992778778076,0
0.5007584691047668,-4.648458480834961,-1.4429770708084106,0
0.3609314560890198,-4.5949578285217285,-1.0677249431610107,0
0.29827678203582764,-4.587745189666748,-0.720453143119812,0
0.18259793519973755,-4.473684787750244,-0.470558762550354,0
-0.11874926090240479,-4.267171382904053,-0.272615909576416,0
-0.3984483480453491,-4.023237228393555,-0.11715912818908691,0
-0.6284060478210449,-3.8232312202453613,0.03177142143249512,0
-0.8398666977882385,-3.6838159561157227,0.11899113655090332,0
-0.9822061657905579,-3.564154624938965,0.055425405502319336,0
-1.0502265691757202,-3.416332244873047,-0.020558595657348633,0
-1.132354974746704,-3.266620635986328,-0.12841463088989258,0
-1.0155869722366333,-3.330256462097168,-0.21550273895263672,0
-0.9371985197067261,-3.4684481620788574,-0.15453076362609863,0
-0.9000667929649353,-3.528110980987549,-0.1319589614868164,0
-0.7342499494552612,-3.7031025886535645,-0.17866230010986328,0
-0.47520700097084045,-4.065112590789795,-0.20838332176208496,0
-0.27557235956192017,-4.394027233123779,-0.2401576042175293,0
0.01135939359664917,-4.733018398284912,-0.27399158477783203,0
0.3959295153617859,-5.146821975708008,-0.20915436744689941,0
0.6610066294670105,-5.48488187789917,-0.10758852958679199,0
0.8382591605186462,-5.7713212966918945,-0.024105072021484375,0
1.0383248329162598,-6.01111364364624,0.0654761791229248,0
1.2832138538360596,-6.2378692626953125,0.09671354293823242,0
1.4559404850006104,-6.315362930297852,0.1463756561279297,0
1.2711440324783325,-6.164837837219238,0.18599414825439453,0
0.7924166321754456,-5.709929466247559,0.18937969207763672,0
0.5622817873954773,-5.189985275268555,0.11098432540893555,0
0.5920596718788147,-4.686201572418213,0.05097198486328125,0
0.6848284602165222,-4.234253883361816,0.12619972229003906,0
0.7778695225715637,-3.7359328269958496,0.32442593574523926,0
0.8347815871238708,-3.234160900115967,0.5734236240386963,0
0.9771968126296997,-2.6854872703552246,0.6734251976013184,0
1.0706079006195068,-2.0392003059387207,0.6252143383026123,0
1.1268138885498047,-1.2470035552978516,0.5105512142181396,0
1.1172239780426025,-0.22254276275634766,0.5261886119842529,0
0.9753189086914062,0.9313020706176758,0.7521800994873047,0
0.9429494142532349,2.0853919982910156,1.0942730903625488,0
0.679950475692749,3.2016515731811523,1.3459339141845703,0
0.42500853538513184,4.1966657638549805,1.4633615016937256,0
0.0145149827003479,5.054080009460449,1.61090087890625,0
-0.39474543929100037,5.805080413818359,2.0399603843688965,0
-0.7848213911056519,6.327588081359863,2.655708074569702,0
-1.1562581062316895,6.566617965698242,3.136237144470215,0
-1.4845954179763794,6.483924865722656,3.5977556705474854,0
-1.7230056524276733,6.0720977783203125,4.171625137329102,0
-1.8751795291900635,5.486248016357422,4.800386428833008,0
-1.9619885683059692,4.769063949584961,5.306515693664551,0
-1.935257911682129,3.846367835998535,5.394308567047119,0
-1.7394616603851318,2.9217233657836914,5.2623701095581055,0
-1.5416553020477295,2.158036231994629,5.0508646965026855,0
-1.637997031211853,1.6421031951904297,4.242639541625977,0
-1.9325413703918457,1.5948896408081055,2.9872066974639893,0
-2.535768985748291,2.134016990661621,2.059077501296997,0
-3.3847694396972656,3.316288948059082,1.644493579864502,0
-4.029264450073242,5.126025199890137,0.9537513256072998,0
-4.120482444763184,7.2553300857543945,0.30647754669189453,0
-3.3303213119506836,9.41519832611084,-0.010088682174682617,0
-2.1040866374969482,11.11562442779541,-0.37490105628967285,0
-0.6505540609359741,11.838505744934082,-1.1880422830581665,0
-0.06441667675971985,11.774791717529297,-2.3083744049072266,0
-0.13767391443252563,10.93681812286377,-3.2656750679016113,0
-1.0286543369293213,9.429226875305176,-4.163508892059326,0
-2.430736541748047,6.671555519104004,-5.194893836975098,0
-4.06937313079834,3.691242218017578,-5.884405136108398,0
-5.0764923095703125,0.9158182144165039,-5.719298839569092,0
-3.9633586406707764,-1.4967923164367676,-4.98704195022583,0
-2.3667681217193604,-3.1809773445129395,-4.561699867248535,0
-1.2705717086791992,-4.161392688751221,-3.904829978942871,0
-0.4070247411727905,-4.517877101898193,-2.716982841491699,0
0.3548189699649811,-4.612465858459473,-1.2772475481033325,0
0.9782267808914185,-4.689668655395508,-0.19647645950317383,0
1.184527039527893,-4.630087852478027,0.21115922927856445,0
1.0838719606399536,-4.407602787017822,-0.07951164245605469,0
1.41313636302948,-4.120587348937988,-0.45996832847595215,0
1.7384284734725952,-3.539729595184326,-0.678844690322876,0
1.8830093145370483,-2.6152114868164062,-1.009251356124878,0
1.8492125272750854,-1.7133574485778809,-1.503747582435608,0
1.7433801889419556,-0.9229354858398438,-1.9314619302749634,0
1.92510986328125,-0.4260673522949219,-2.2761268615722656,0
2.2232556343078613,-0.14652729034423828,-2.638103723526001,0
2.3284990787506104,0.12821197509765625,-3.0437445640563965,0
2.2499196529388428,0.2855205535888672,-3.5059142112731934,0
1.9412187337875366,0.33521366119384766,-3.9237964153289795,0
1.2022494077682495,0.35203075408935547,-4.164487361907959,0
0.120974600315094,0.3464374542236328,-4.235410690307617,0
-1.2017587423324585,0.36960601806640625,-4.154118537902832,0
-2.6135902404785156,0.4126768112182617,-3.7560653686523438,0
-3.7973649501800537,0.47611141204833984,-3.1083531379699707,0
-4.576863765716553,0.4668426513671875,-2.2294445037841797,0
-4.765514373779297,0.34192943572998047,-1.2495054006576538,0
-4.258922100067139,-0.02527618408203125,-0.3940325975418091,0
-3.276554822921753,-0.5939455032348633,0.22930669784545898,0
-2.3934850692749023,-1.3352975845336914,0.599488377571106,0
-1.7179561853408813,-1.9623770713806152,0.6600832939147949,0
-1.5495587587356567,-2.5137224197387695,0.39999473094940186,0
-1.3984293937683105,-3.0803589820861816,-0.010543107986450195,0
-1.332553744316101,-3.5546889305114746,-0.48799580335617065,0
-1.2406736612319946,-3.8006157875061035,-0.8885981440544128,0
-1.2080421447753906,-3.7970666885375977,-1.1922638416290283,0
-1.2393178939819336,-3.6042919158935547,-1.5818030834197998,0
-1.2273887395858765,-3.191537857055664,-1.9005705118179321,0
-1.1203466653823853,-2.690601348876953,-2.1362099647521973,0
-0.8589181900024414,-2.182866096496582,-2.173910617828369,0
-0.3835187554359436,-1.7233076095581055,-2.0783932209014893,0
0.05960409343242645,-1.3811607360839844,-1.9073549509048462,0
0.3750614523887634,-1.2136030197143555,-1.6732861995697021,0
0.6780190467834473,-1.198836326599121,-1.3744921684265137,0
0.8684349656105042,-1.2576961517333984,-1.1053084135055542,0
1.0137008428573608,-1.4283199310302734,-0.8831150531768799,0
1.0204217433929443,-1.5862131118774414,-0.7085024118423462,0
1.0127640962600708,-1.8318262100219727,-0.5532883405685425,0
0.9568774104118347,-2.110076904296875,-0.3174288868904114,0
1.0246984958648682,-2.2344536781311035,-0.08967840671539307,0
0.9812193512916565,-2.1812829971313477,0.18736793100833893,0
1.0869786739349365,-2.1875505447387695,0.42766860127449036,0
1.147980809211731,-2.083449363708496,0.5835610628128052,0
1.2742877006530762,-1.9360980987548828,0.6408805847167969,0
1.4923286437988281,-1.7144842147827148,0.6524303555488586,0
1.6728291511535645,-1.516754150390625,0.5874204635620117,0
1.8326137065887451,-1.3620176315307617,0.5491390824317932,0
1.9956552982330322,-1.2478199005126953,0.6338448524475098,0
2.063394069671631,-1.1191339492797852,0.8158435225486755,0
2.0261757373809814,-1.1720409393310547,1.0215920209884644,0
2.027621269226074,-1.2843542098999023,1.1819802522659302,0
2.1037299633026123,-1.3053464889526367,1.351914405822754,0
2.0487563610076904,-1.1299247741699219,1.543023705482483,0
1.8790522813796997,-0.8444738388061523,1.6734004020690918,0
1.6683032512664795,-0.506596565246582,1.799849271774292,0
1.4230703115463257,-0.059062957763671875,1.8980343341827393,0
1.2310707569122314,0.26833152770996094,1.9869117736816406,0
1.0629998445510864,0.4995689392089844,2.1862194538116455,0
0.9496753811836243,0.6729841232299805,2.4890713691711426,0
0.9723507761955261,0.8412141799926758,2.7638168334960938,0
1.069036841392517,1.0066509246826172,2.905139684677124,0
1.3094987869262695,1.2195119857788086,2.9104487895965576,0
1.7849690914154053,1.4606304168701172,2.741504192352295,0
2.4283461570739746,1.7921533584594727,2.3438613414764404,0
3.1193480491638184,2.168497085571289,1.6586055755615234,0
3.714113235473633,2.7162981033325195,0.923071026802063,0
4.126509666442871,3.040739059448242,0.3878503441810608,0
4.4410200119018555,3.03928279876709,0.27184754610061646,0
5.055446147918701,3.5492401123046875,0.5593324899673462,0
5.149746894836426,3.228579521179199,0.8356831073760986,0
4.983163356781006,2.8244075775146484,1.196688175201416,0
4.704399108886719,2.4277477264404297,1.4443678855895996,0
4.236750602722168,2.158184051513672,1.6278696060180664,0
3.6989426612854004,2.034646987915039,1.6243336200714111,0
3.0533714294433594,2.195492744445801,1.313236951828003,0
2.113246202468872,2.92935848236084,0.5565230250358582,0
1.4488437175750732,3.8192758560180664,-0.1720339059829712,0
1.0216039419174194,4.683285713195801,-0.8208892345428467,0
0.6528148651123047,5.198640823364258,-1.482983112335205,0
0.12548798322677612,5.227104187011719,-1.9999281167984009,0
-0.651311993598938,4.757292747497559,-2.5859193801879883,0
-1.1870770454406738,4.055304527282715,-3.1502180099487305,0
-1.2899363040924072,3.284207344055176,-3.6546623706817627,0
-1.2630846500396729,2.597285270690918,-3.8465709686279297,0
-1.234584093093872,2.056788444519043,-3.5526440143585205,0
-1.2439898252487183,1.779897689819336,-2.7906172275543213,0
-1.2500357627868652,1.8118934631347656,-1.9508050680160522,0
-1.221288800239563,2.17169189453125,-1.4946634769439697,0
-1.2984299659729004,2.679734230041504,-1.4456477165222168,0
-1.2723824977874756,3.1160593032836914,-1.6433125734329224,0
-1.4078595638275146,3.4594497680664062,-1.9463671445846558,0
-1.6849992275238037,3.7628164291381836,-2.189181327819824,0
-2.1225383281707764,4.071789741516113,-2.307779312133789,0
-2.722853899002075,4.329019546508789,-2.3565549850463867,0
-3.402885675430298,4.436433792114258,-2.4448015689849854,0
-4.2165446281433105,4.470555305480957,-2.5536210536956787,0
-4.803391933441162,4.366758346557617,-2.6628665924072266,0
-5.077330112457275,4.141851425170898,-2.638469934463501,0
-5.183745861053467,3.872441291809082,-2.3899850845336914,0
-5.169947624206543,3.6972198486328125,-1.8966259956359863,0
-5.205694198608398,3.6399364471435547,-1.2214367389678955,0
-5.166984558105469,3.6550121307373047,-0.5400098562240601,0
-5.095309257507324,3.658694267272949,0.08942437171936035,0
-4.924508094787598,3.564962387084961,0.5874003171920776,0
-4.688685894012451,3.3022518157958984,0.8580749034881592,0
-4.249322414398193,2.806288719177246,0.9467042684555054,0
-3.7045278549194336,2.156308174133301,0.8319201469421387,0
-3.087498903274536,1.4601240158081055,0.5044262409210205,0
-2.2968122959136963,0.7703752517700195,0.0961756706237793,0
-1.517995834350586,0.10130023956298828,-0.31576693058013916,0
-0.7736599445343018,-0.4922933578491211,-0.6805886626243591,0
-0.17067211866378784,-0.9413042068481445,-0.9501309990882874,0
0.4017983675003052,-1.432469367980957,-1.1415953636169434,0
0.8559654355049133,-1.9514617919921875,-1.2194137573242188,0
1.1422419548034668,-2.4385762214660645,-1.186081051826477,0
1.3256522417068481,-2.9011354446411133,-1.1874895095825195,0
1.442521095275879,-3.391836166381836,-1.3098385334014893,0
1.5168383121490479,-3.788710117340088,-1.4145567417144775,0
1.5746057033538818,-4.070327281951904,-1.4852118492126465,0
1.61334228515625,-4.229681015014648,-1.4334120750427246,0
1.7044317722320557,-4.3483757972717285,-1.2466251850128174,0
1.5482032299041748,-4.244877815246582,-1.005591869354248,0
1.4339606761932373,-4.2376508712768555,-0.7766495943069458,0
1.3392996788024902,-4.190398693084717,-0.4300689697265625,0
0.9998211860656738,-4.062517166137695,-0.1714613437652588,0
0.6084899306297302,-3.9114198684692383,-0.08699584007263184,0
0.14555007219314575,-3.813563346862793,-0.0930933952331543,0
-0.28365421295166016,-3.728199005126953,-0.1851670742034912,0
-0.6522001624107361,-3.569150924682617,-0.34221696853637695,0
-0.9354425668716431,-3.439222812652588,-0.5314013957977295,0
-1.1645750999450684,-3.410127639770508,-0.5948559045791626,0
-1.3596906661987305,-3.441232681274414,-0.5439555644989014,0
-1.4114526510238647,-3.6282615661621094,-0.526423454284668,0
-1.3152698278427124,-3.8731632232666016,-0.4268772602081299,0
-1.1429452896118164,-4.1592841148376465,-0.34778285026550293,0
-0.9421175718307495,-4.450808048248291,-0.2434830665588379,0
-0.6667802333831787,-4.80758810043335,-0.10436534881591797,0
-0.41945815086364746,-5.1434807777404785,0.019216537475585938,0
-0.17082172632217407,-5.456088542938232,0.08394885063171387,0
0.18024086952209473,-5.7645158767700195,0.09671926498413086,0
0.4572823643684387,-6.056730270385742,0.06912827491760254,0
0.6153088808059692,-6.170053482055664,-0.05178213119506836,0
0.5704393982887268,-6.178718566894531,-0.15140485763549805,0
0.381958544254303,-5.91058349609375,-0.2060527801513672,0
0.35331735014915466,-5.6552228927612305,-0.27814555168151855,0
0.3954283595085144,-5.367128372192383,-0.2386326789855957,0
0.4597642421722412,-5.063061237335205,-0.1521167755126953,0
0.5218090415000916,-4.735912799835205,0.017497777938842773,0
0.5401073694229126,-4.436000347137451,0.21553564071655273,0
0.5020558834075928,-4.137031555175781,0.36572718620300293,0
0.45487064123153687,-3.8725104331970215,0.501816987991333,0
0.5059318542480469,-3.6256155967712402,0.5711021423339844,0
0.513908863067627,-3.3363595008850098,0.470184326171875,0
0.5820330381393433,-2.9590792655944824,0.3081362247467041,0
0.6583305597305298,-2.431447982788086,0.14609122276306152,0
0.85601806640625,-1.786877155303955,0.13598346710205078,0
0.9459025263786316,-1.0443801879882812,0.13064265251159668,0
1.1246685981750488,-0.22055339813232422,0.1288928985595703,0
1.2489840984344482,0.6632785797119141,0.1485891342163086,0
1.230617642402649,1.6551761627197266,0.1596696376800537,0
1.143458604812622,2.6644515991210938,0.15133213996887207,0
0.9388980269432068,3.6122398376464844,0.22147011756896973,0
0.6465702056884766,4.440918922424316,0.6344070434570312,0
0.317361444234848,4.994699478149414,1.3393371105194092,0
-0.030950143933296204,5.208854675292969,2.0199873447418213,0
-0.38650596141815186,5.112064361572266,2.6135518550872803,0
-0.7580952644348145,4.902777671813965,3.281829595565796,0
-1.2644248008728027,4.707647323608398,3.8987739086151123,0
-1.7685699462890625,4.569616317749023,4.3499250411987305,0
-2.1481053829193115,4.330860137939453,4.690213203430176,0
-2.4244532585144043,3.903270721435547,4.9643096923828125,0
-2.6858038902282715,3.40041446685791,4.563851356506348,0
-2.9671876430511475,3.0987911224365234,3.582519054412842,0
-3.3296384811401367,3.3438053131103516,2.6906893253326416,0
-4.017068862915039,4.102292060852051,1.780061960220337,0
-4.838985919952393,5.246915817260742,1.274749517440796,0
-5.296265125274658,7.015522003173828,0.9292786121368408,0
-5.376845359802246,9.2363920211792,0.5352582931518555,0
-4.658655643463135,11.443299293518066,-0.11651754379272461,0
-3.042116165161133,13.14052963256836,-0.8107156753540039,0
-1.4467108249664307,13.79926872253418,-1.511706829071045,0
-0.6078476309776306,13.330394744873047,-2.245898723602295,0
-1.0415773391723633,11.532225608825684,-2.947328567504883,0
-2.59556245803833,8.372262954711914,-3.5133893489837646,0
-4.287781715393066,4.30161190032959,-3.7497363090515137,0
-4.842795372009277,0.24100875854492188,-3.3261919021606445,0
-4.11196231842041,-2.7735838890075684,-2.9197921752929688,0
-3.0478899478912354,-4.6210126876831055,-2.8643882274627686,0
-2.142076015472412,-5.579292297363281,-3.0662291049957275,0
-1.247931957244873,-6.009598255157471,-3.403622627258301,0
-0.27347826957702637,-6.148889541625977,-3.306260347366333,0
0.7323006391525269,-6.165254592895508,-2.6516034603118896,0
1.5958727598190308,-5.954188346862793,-2.0505857467651367,0
2.18190598487854,-5.494872093200684,-1.7980982065200806,0
2.566643714904785,-4.8165154457092285,-1.6274727582931519,0
3.024310827255249,-3.6803154945373535,-1.4596290588378906,0
3.2221624851226807,-2.1991147994995117,-1.577211618423462,0
3.0114245414733887,-0.6099538803100586,-1.7675399780273438,0
2.783376693725586,0.797785758972168,-1.894561767578125,0
2.557908058166504,2.002840995788574,-2.0350122451782227,0
2.55572509765625,2.9550962448120117,-2.013784408569336,0
2.621633529663086,3.5397701263427734,-1.930199146270752,0
2.2500345706939697,3.713918685913086,-1.8566776514053345,0
1.5283997058868408,3.418081283569336,-1.8420915603637695,0
0.5802484750747681,2.5093822479248047,-2.019658327102661,0
-0.4705301523208618,1.3473968505859375,-2.1404290199279785,0
-1.3437210321426392,0.27948665618896484,-2.1862661838531494,0
-1.921426773071289,-0.5529212951660156,-2.2881381511688232,0
-2.2703168392181396,-1.0540151596069336,-2.366598606109619,0
-2.343144655227661,-1.3314218521118164,-2.327782392501831,0
-2.25363826751709,-1.401968002319336,-2.065157413482666,0
-1.9935778379440308,-1.3590927124023438,-1.7205342054367065,0
-1.7554707527160645,-1.2770757675170898,-1.3275816440582275,0
-1.4463633298873901,-1.2349967956542969,-0.9695185422897339,0
-1.1066889762878418,-1.2018203735351562,-0.6602423787117004,0
-0.814689040184021,-1.3951969146728516,-0.5428773164749146,0
-0.6696685552597046,-1.6929206848144531,-0.5837311148643494,0
-0.6367298364639282,-2.12833309173584,-0.749404788017273,0
-0.6259118318557739,-2.624770164489746,-1.0398499965667725,0
-0.6143075227737427,-3.0697922706604004,-1.2996538877487183,0
-0.6560395956039429,-3.351102828979492,-1.5695619583129883,0
-0.7580519318580627,-3.4091386795043945,-1.7611052989959717,0
-0.7365390658378601,-3.2776784896850586,-1.8023490905761719,0
-0.7792208194732666,-2.9808578491210938,-1.750746726989746,0
-0.7863100171089172,-2.600170612335205,-1.6351053714752197,0
-0.7034295797348022,-2.212228298187256,-1.460325002670288,0
-0.49248579144477844,-1.9413671493530273,-1.2481873035430908,0
-0.38297438621520996,-1.765925407409668,-1.0609471797943115,0
-0.281232625246048,-1.7001228332519531,-0.9370772242546082,0
-0.11051610112190247,-1.6696929931640625,-0.8719534277915955,0
-0.10791967064142227,-1.6387290954589844,-0.815378725528717,0
-0.20185638964176178,-1.6789684295654297,-0.758041501045227,0
-0.24170097708702087,-1.6540489196777344,-0.6425080299377441,0
