AccX,AccY,AccZ,stepCount
3.3547720909118652,2.9490537643432617,0.17485234141349792,1.2546019554138184
3.0119457244873047,2.9100399017333984,-0.2593604028224945,-0.8148236274719238
2.5947139263153076,2.6658010482788086,-0.8773151636123657,3.1566731929779053
2.1401636600494385,2.2548885345458984,-1.5648808479309082,-2.5345683097839355
1.7331230640411377,1.7707910537719727,-2.0048813819885254,1.903581976890564
1.3741755485534668,1.3284244537353516,-2.1267948150634766,-1.3183717727661133
0.9822666049003601,0.9971847534179688,-2.1832528114318848,1.4883016347885132
0.548117458820343,0.8105602264404297,-2.405344009399414,-2.017914295196533
0.13888847827911377,0.7732992172241211,-2.617846727371216,0.7711405754089355
-0.18066978454589844,0.8207769393920898,-2.685502052307129,-1.8977670669555664
-0.3836364150047302,0.8884315490722656,-2.739199161529541,-0.48859965801239014
-0.5652518272399902,0.9237470626831055,-2.998140811920166,0.6685597896575928
-0.7612924575805664,0.9674530029296875,-3.4004547595977783,1.4572640657424927
-0.9557331204414368,1.103128433227539,-3.689274787902832,0
-1.11833918094635,1.3735017776489258,-3.804452657699585,0
-1.3171947002410889,1.7447595596313477,-3.9427263736724854,0
-1.6065188646316528,2.192685127258301,-4.128507614135742,0
-1.9215902090072632,2.6906423568725586,-4.091566562652588,0
-2.207132339477539,3.1976823806762695,-3.6390066146850586,0
-2.4782564640045166,3.6443681716918945,-2.9985108375549316,0
-2.7893483638763428,4.01173210144043,-2.482767105102539,0
-3.10310435295105,4.3166913986206055,-2.1124823093414307,0
-3.3418431282043457,4.595264434814453,-1.7094974517822266,0
-3.5143306255340576,4.794987678527832,-1.2320468425750732,0
-3.677276134490967,4.849270820617676,-0.9474915862083435,0
-3.830376625061035,4.756189346313477,-0.9217075109481812,0
-3.885150909423828,4.532831192016602,-0.8966977596282959,0
-3.788991689682007,4.188996315002441,-0.7052093744277954,0
-3.546011447906494,3.72244930267334,-0.49837493896484375,0
-3.2360525131225586,3.152322769165039,-0.491593599319458,0
-2.8737778663635254,2.550016403198242,-0.6073685884475708,0
-2.4259941577911377,1.9556140899658203,-0.6437586545944214,0
-1.9052273035049438,1.344771385192871,-0.6056257486343384,0
-1.4558786153793335,0.7029552459716797,-0.7233971357345581,0
-1.1170744895935059,0.018072128295898438,-1.021567702293396,0
-0.7689139246940613,-0.7051658630371094,-1.241694450378418,0
-0.44192612171173096,-1.363734245300293,-1.2543213367462158,0
-0.10604214668273926,-1.9766106605529785,-1.2608742713928223,0
0.17124509811401367,-2.5341014862060547,-1.4219276905059814,0
0.36274242401123047,-2.9955267906188965,-1.5839377641677856,0
0.5156344175338745,-3.325265884399414,-1.5665624141693115,0
0.6605836153030396,-3.571230888366699,-1.4536844491958618,0
0.7161707878112793,-3.750267505645752,-1.496342420578003,0
0.6658166646957397,-3.8553824424743652,-1.7155187129974365,0
0.5827932357788086,-3.884326934814453,-1.8543477058410645,0
0.5117394924163818,-3.8468427658081055,-1.8165717124938965,0
0.43325138092041016,-3.793231964111328,-1.7935947179794312,0
0.3184468746185303,-3.7593283653259277,-1.9050662517547607,0
0.19299602508544922,-3.7262396812438965,-1.9416673183441162,0
0.09915578365325928,-3.6704397201538086,-1.7274998426437378,0
0.03388369083404541,-3.6136326789855957,-1.3794634342193604,0
-0.06029462814331055,-3.6155223846435547,-1.1754746437072754,0
-0.20275652408599854,-3.6112260818481445,-1.1424254179000854,0
-0.3365211486816406,-3.569692611694336,-1.0527987480163574,0
-0.42838752269744873,-3.526790142059326,-0.8446602821350098,0
-0.5235055685043335,-3.525352954864502,-0.7150797843933105,0
-0.6743361949920654,-3.5578761100769043,-0.8011729717254639,0
-0.8286216855049133,-3.5741734504699707,-0.9134573936462402,0
-0.948726236820221,-3.564936637878418,-0.8621542453765869,0
-1.0442171096801758,-3.5805602073669434,-0.7188873291015625,0
-1.148239016532898,-3.6304426193237305,-0.7138917446136475,0
-1.2557059526443481,-3.685840129852295,-0.8280398845672607,0
-1.3210957050323486,-3.711045265197754,-0.8432130813598633,0
-1.3199670314788818,-3.7254981994628906,-0.6657793521881104,0
-1.2969374656677246,-3.762756824493408,-0.5161087512969971,0
-1.303778886795044,-3.8108038902282715,-0.5619254112243652,0
-1.3141486644744873,-3.831479549407959,-0.6161208152770996,0
-1.2780964374542236,-3.8177895545959473,-0.48684239387512207,0
-1.198111891746521,-3.8007707595825195,-0.27012085914611816,0
-1.153124213218689,-3.7849249839782715,-0.18915915489196777,0
-1.112310528755188,-3.7364773750305176,-0.19423770904541016,0
-1.0118297338485718,-3.6243152618408203,-0.05317878723144531,0
-0.8379368782043457,-3.4364523887634277,0.28874802589416504,0
-0.6625473499298096,-3.208527088165283,0.5721817016601562,0
-0.4951096177101135,-2.921067714691162,0.6501517295837402,0
-0.2736012935638428,-2.542891025543213,0.716118574142456,0
0.02338850498199463,-2.0763845443725586,0.9227480888366699,0
0.3457547426223755,-1.5811777114868164,1.1254854202270508,0
0.6219744682312012,-1.097538948059082,1.081385850906372,0
0.8423349261283875,-0.608433723449707,0.8663582801818848,0
1.0757986307144165,-0.11850643157958984,0.7193002700805664,0
1.293269157409668,0.34846973419189453,0.6946914196014404,0
1.439870834350586,0.7519321441650391,0.5840368270874023,0
1.5231633186340332,1.1109228134155273,0.32564830780029297,0
1.5598711967468262,1.4610357284545898,0.15749239921569824,0
1.564314603805542,1.8093748092651367,0.20406341552734375,0
1.4506757259368896,2.1393651962280273,0.2923128604888916,0
1.181445837020874,2.4438629150390625,0.2522273063659668,0
0.8431594371795654,2.7511377334594727,0.2790679931640625,0
0.5170117020606995,3.050908088684082,0.626223087310791,0
0.2073081135749817,3.2829723358154297,1.2422459125518799,0
-0.148698091506958,3.41878604888916,1.7776637077331543,0
-0.5063055753707886,3.4875450134277344,2.0904924869537354,0
-0.804224967956543,3.5348405838012695,2.415354013442993,0
-1.0454784631729126,3.551309585571289,2.9096508026123047,0
-1.282589077949524,3.516129493713379,3.288872003555298,0
-1.55790376663208,3.480531692504883,3.2654032707214355,0
-1.8300246000289917,3.557737350463867,2.9756603240966797,0
-2.0530781745910645,3.812265396118164,2.7353718280792236,0
-2.243741273880005,4.221944808959961,2.5699660778045654,0
-2.4042468070983887,4.750105857849121,2.2279303073883057,0
-2.457981586456299,5.3861799240112305,1.709831953048706,0
-2.350498676300049,6.083184242248535,1.2976493835449219,0
-2.146878957748413,6.746077537536621,1.1468837261199951,0
-1.9469445943832397,7.27288818359375,0.9815928936004639,0
-1.8063102960586548,7.583776473999023,0.5076889991760254,0
-1.7163357734680176,7.656704902648926,-0.08859109878540039,0
-1.7027196884155273,7.425083160400391,-0.5801453590393066,0
-1.8555893898010254,6.794713973999023,-1.0729038715362549,0
-2.173797130584717,5.810835838317871,-1.7009321451187134,0
-2.5042834281921387,4.563715934753418,-2.2773358821868896,0
-2.7306482791900635,3.2409982681274414,-2.5325043201446533,0
-2.7333521842956543,1.9247245788574219,-2.4664855003356934,0
-2.535676956176758,0.7183771133422852,-2.3801939487457275,0
-2.260286808013916,-0.3177604675292969,-2.4302501678466797,0
-1.9297418594360352,-1.1717195510864258,-2.41060733795166,0
-1.5448436737060547,-1.8436431884765625,-2.1605911254882812,0
-1.1434603929519653,-2.3935089111328125,-1.8236591815948486,0
-0.7818871736526489,-2.816831588745117,-1.604872465133667,0
-0.48246100544929504,-3.0470752716064453,-1.4863535165786743,0
-0.15379858016967773,-3.0513839721679688,-1.2803910970687866,0
0.19810724258422852,-2.882899284362793,-0.981852650642395,0
0.4907025098800659,-2.5993289947509766,-0.8634288311004639,0
0.7014132142066956,-2.268097400665283,-1.0173593759536743,0
0.9176876544952393,-1.9019217491149902,-1.194862723350525,0
1.155173659324646,-1.484964370727539,-1.209010124206543,0
1.3911046981811523,-1.039510726928711,-1.2321709394454956,0
1.570993423461914,-0.6042299270629883,-1.4635891914367676,0
1.740541934967041,-0.21044445037841797,-1.7796276807785034,0
1.8873717784881592,0.17543411254882812,-1.918785572052002,0
1.9290988445281982,0.523005485534668,-1.913641333580017,0
1.7733417749404907,0.7450542449951172,-2.0020687580108643,0
1.4621210098266602,0.8045997619628906,-2.1828017234802246,0
1.1120105981826782,0.7264509201049805,-2.190359115600586,0
0.7971938848495483,0.5733613967895508,-1.9168987274169922,0
0.4873478412628174,0.33852577209472656,-1.6039056777954102,0
0.15242815017700195,0.010240554809570312,-1.4565911293029785,0
-0.16088545322418213,-0.3876523971557617,-1.3317384719848633,0
-0.4084984064102173,-0.8052177429199219,-1.0469574928283691,0
-0.6298545002937317,-1.2284116744995117,-0.7168509364128113,0
-0.8813526630401611,-1.6622447967529297,-0.6044714450836182,0
-1.1647179126739502,-2.1045608520507812,-0.6731752753257751,0
-1.3863712549209595,-2.491121768951416,-0.6845200657844543,0
-1.5463759899139404,-2.7768263816833496,-0.5557371377944946,0
-1.6930623054504395,-2.9522762298583984,-0.5255823135375977,0
-1.8343740701675415,-3.0151290893554688,-0.7063347101211548,0
-1.913959264755249,-2.9320082664489746,-0.8914397954940796,0
-1.863390326499939,-2.7269797325134277,-0.9128343462944031,0
-1.7193834781646729,-2.4503207206726074,-0.866283655166626,0
-1.5393869876861572,-2.1379494667053223,-0.9625581502914429,0
-1.2965556383132935,-1.833022117614746,-1.1391410827636719,0
-0.9856692552566528,-1.5691041946411133,-1.1872862577438354,0
-0.6304331421852112,-1.3604974746704102,-1.0831959247589111,0
-0.3189913034439087,-1.2285871505737305,-1.0479949712753296,0
-0.09428960084915161,-1.1612138748168945,-1.1498382091522217,0
0.09400784969329834,-1.1678485870361328,-1.1760003566741943,0
0.2817573547363281,-1.219710350036621,-0.999843955039978,0
0.4185929298400879,-1.314305305480957,-0.7800502777099609,0
0.4663583040237427,-1.4850358963012695,-0.7111895680427551,0
0.47970592975616455,-1.6432991027832031,-0.7025342583656311,0
0.5179879665374756,-1.74609375,-0.5403531789779663,0
0.5905160307884216,-1.7911224365234375,-0.24560536444187164,0
0.6202578544616699,-1.780813217163086,-0.08640401065349579,0
0.6018453240394592,-1.7008304595947266,-0.10865861177444458,0
0.621225118637085,-1.5560588836669922,-0.07513986527919769,0
0.7022789716720581,-1.3681297302246094,0.12916740775108337,0
0.7827438116073608,-1.1873292922973633,0.30764517188072205,0
0.8413467407226562,-1.0758514404296875,0.29967477917671204,0
0.8760406374931335,-1.0169258117675781,0.24430426955223083,0
0.947116494178772,-1.0009803771972656,0.32176533341407776,0
1.0403804779052734,-1.0279865264892578,0.4653547406196594,0
1.0696864128112793,-1.0931072235107422,0.4448337256908417,0
1.0299921035766602,-1.1484575271606445,0.2838519513607025,0
1.0000171661376953,-1.1318788528442383,0.24311041831970215,0
1.0104295015335083,-1.0267105102539062,0.41816747188568115,0
1.0226818323135376,-0.8641567230224609,0.5978282690048218,0
1.0050987005233765,-0.6442775726318359,0.700534999370575,0
0.9646327495574951,-0.37432289123535156,0.8583757281303406,0
0.9302094578742981,-0.0926370620727539,1.0834757089614868,0
0.880349338054657,0.18400287628173828,1.2918392419815063,0
0.7909665107727051,0.4555959701538086,1.4547910690307617,0
0.6860466003417969,0.6862764358520508,1.5870968103408813,0
0.6113911271095276,0.859344482421875,1.7159008979797363,0
0.5959506034851074,0.984431266784668,1.8346855640411377,0
0.6517437100410461,1.0711555480957031,1.8933753967285156,0
0.7835635542869568,1.1506338119506836,1.870144248008728,0
0.9624828100204468,1.2372064590454102,1.7764346599578857,0
1.1882328987121582,1.3236913681030273,1.652680516242981,0
1.417403221130371,1.414876937866211,1.5396287441253662,0
1.6524503231048584,1.5203237533569336,1.4783334732055664,0
1.912170648574829,1.618494987487793,1.4302279949188232,0
2.138702869415283,1.6902837753295898,1.419134259223938,0
2.3248579502105713,1.7500782012939453,1.4528131484985352,0
2.477724552154541,1.7811775207519531,1.527156114578247,0
2.5777201652526855,1.8195037841796875,1.5872727632522583,0
2.633939504623413,1.8818063735961914,1.6022628545761108,0
2.6746890544891357,1.9919824600219727,1.5601822137832642,0
2.711927890777588,2.1786680221557617,1.4512146711349487,0
2.7386667728424072,2.465656280517578,1.2625170946121216,0
2.723666191101074,2.838460922241211,0.9710509777069092,0
2.6213645935058594,3.2443599700927734,0.5633841753005981,0
2.4558324813842773,3.597254753112793,0.0629524290561676,0
2.244065761566162,3.8015918731689453,-0.46577733755111694,0
2.0394248962402344,3.7977867126464844,-0.9852294921875,0
1.8408257961273193,3.6004228591918945,-1.3983298540115356,0
1.65898597240448,3.262338638305664,-1.6466385126113892,0
1.444425344467163,2.896129608154297,-1.7215379476547241,0
1.207223892211914,2.599947929382324,-1.671235203742981,0
0.9691295623779297,2.4025211334228516,-1.653907060623169,0
0.7349724173545837,2.2775840759277344,-1.7628649473190308,0
0.5095427632331848,2.1869592666625977,-1.9516414403915405,0
0.30965089797973633,2.1020336151123047,-2.144253969192505,0
0.1064915657043457,2.042020797729492,-2.3315787315368652,0
-0.1099100112915039,2.0332374572753906,-2.5283284187316895,0
-0.3567041754722595,2.0995235443115234,-2.7541940212249756,0
-0.6104477643966675,2.2622461318969727,-3.0027356147766113,0
-0.8525393009185791,2.494871139526367,-3.2482833862304688,0
-1.0816929340362549,2.7804346084594727,-3.4244422912597656,0
-1.3041870594024658,3.0637664794921875,-3.503584384918213,0
-1.4966474771499634,3.3041162490844727,-3.468759536743164,0
-1.7021375894546509,3.4871368408203125,-3.315817356109619,0
-1.9177278280258179,3.60568904876709,-3.060114860534668,0
-2.1258018016815186,3.655076026916504,-2.7197508811950684,0
-2.320577621459961,3.661733627319336,-2.339416265487671,0
-2.498889923095703,3.6592893600463867,-1.944617748260498,0
-2.6556100845336914,3.6454896926879883,-1.5725070238113403,0
-2.7833564281463623,3.6300086975097656,-1.2357263565063477,0
-2.865434169769287,3.569873809814453,-0.9559962749481201,0
-2.901911735534668,3.453131675720215,-0.7255061864852905,0
-2.8544061183929443,3.2725839614868164,-0.5722916722297668,0
-2.737107992172241,3.0186309814453125,-0.5028800964355469,0
-2.5352911949157715,2.6984214782714844,-0.497769832611084,0
-2.267414093017578,2.3166542053222656,-0.539912223815918,0
-1.9684139490127563,1.8683748245239258,-0.6168895959854126,0
-1.7025408744812012,1.3702716827392578,-0.7165182828903198,0
-1.4695597887039185,0.8343410491943359,-0.843829870223999,0
-1.2570381164550781,0.2557973861694336,-0.9656002521514893,0
-1.066906452178955,-0.3438444137573242,-1.0748724937438965,0
-0.9278551936149597,-0.9358606338500977,-1.1789859533309937,0
-0.8256330490112305,-1.4891357421875,-1.3044328689575195,0
-0.7505865097045898,-1.9965815544128418,-1.4391597509384155,0
-0.6640193462371826,-2.463075637817383,-1.5761444568634033,0
-0.5440633893013,-2.896000862121582,-1.6839063167572021,0
-0.4361388683319092,-3.259720802307129,-1.7665773630142212,0
-0.33827030658721924,-3.561492443084717,-1.8263546228408813,0
-0.23444461822509766,-3.8013510704040527,-1.8439011573791504,0
-0.14235234260559082,-3.991250514984131,-1.8023194074630737,0
-0.0722038745880127,-4.1288347244262695,-1.7253799438476562,0
-0.07024133205413818,-4.2117109298706055,-1.6321043968200684,0
-0.10831785202026367,-4.247194766998291,-1.5244038105010986,0
-0.17486071586608887,-4.247386455535889,-1.4042879343032837,0
-0.2704874277114868,-4.221843242645264,-1.2908878326416016,0
-0.4005347490310669,-4.151421070098877,-1.1961703300476074,0
-0.5219664573669434,-4.067290782928467,-1.1249017715454102,0
-0.641979992389679,-3.9814629554748535,-1.0603200197219849,0
-0.7415512204170227,-3.9131107330322266,-1.0023488998413086,0
-0.8449382185935974,-3.823909282684326,-0.9415324926376343,0
-0.9474496841430664,-3.7042336463928223,-0.8853859901428223,0
-1.0274903774261475,-3.5684947967529297,-0.8291456699371338,0
-1.0604653358459473,-3.447917938232422,-0.7632365226745605,0
-1.0386229753494263,-3.3904690742492676,-0.6779088973999023,0
-0.9805144667625427,-3.3842272758483887,-0.5850954055786133,0
-0.8904053568840027,-3.426769733428955,-0.5040810108184814,0
-0.7918903827667236,-3.5036745071411133,-0.45418310165405273,0
-0.6943619251251221,-3.5981526374816895,-0.41153764724731445,0
-0.5930814146995544,-3.7029647827148438,-0.3786323070526123,0
-0.531553328037262,-3.7869133949279785,-0.3460066318511963,0
-0.49842554330825806,-3.830765724182129,-0.31380438804626465,0
-0.47261619567871094,-3.8297386169433594,-0.2652587890625,0
-0.44484466314315796,-3.791109561920166,-0.1905672550201416,0
-0.4227740168571472,-3.722148895263672,-0.08463764190673828,0
-0.4189460873603821,-3.63254451751709,0.05058002471923828,0
-0.39566540718078613,-3.527113437652588,0.19856739044189453,0
-0.3675658702850342,-3.41066312789917,0.3427088260650635,0
-0.32034796476364136,-3.2783403396606445,0.4780142307281494,0
-0.2634502649307251,-3.1300439834594727,0.6041176319122314,0
-0.18684351444244385,-2.9536828994750977,0.7180266380310059,0
-0.08521318435668945,-2.730009078979492,0.8334753513336182,0
0.01580226421356201,-2.45180606842041,0.9666543006896973,0
0.1408882737159729,-2.114152431488037,1.1046521663665771,0
0.259371280670166,-1.712033748626709,1.2295300960540771,0
0.3902965784072876,-1.2594547271728516,1.3111412525177002,0
0.519173800945282,-0.7752857208251953,1.331648349761963,0
0.6291817426681519,-0.27365779876708984,1.3021221160888672,0
0.7060276865959167,0.22165679931640625,1.2219347953796387,0
0.7259424328804016,0.7060356140136719,1.109616994857788,0
0.6869608759880066,1.1819696426391602,0.9862523078918457,0
0.5655528903007507,1.6566390991210938,0.8732659816741943,0
0.36656665802001953,2.127309799194336,0.8197364807128906,0
0.09200119972229004,2.5719223022460938,0.882749080657959,0
-0.2251642346382141,2.949213981628418,1.074223279953003,0
-0.5302703976631165,3.2396011352539062,1.3768794536590576,0
-0.8022820949554443,3.43814754486084,1.7294597625732422,0
-1.0130894184112549,3.53043270111084,2.1159489154815674,0
-1.1539498567581177,3.5117807388305664,2.517468214035034,0
-1.235151767730713,3.413825035095215,2.8490724563598633,0
-1.26642906665802,3.2924509048461914,3.034008026123047,0
-1.2808167934417725,3.225313186645508,3.054131269454956,0
-1.3257052898406982,3.318523406982422,2.934918165206909,0
-1.434718370437622,3.622572898864746,2.70143723487854,0
-1.5557246208190918,4.134903907775879,2.3347930908203125,0
-1.6268798112869263,4.812029838562012,1.881654977798462,0
-1.6198475360870361,5.590920448303223,1.447537899017334,0
-1.556844711303711,6.372096061706543,1.0753471851348877,0
-1.4507275819778442,7.074939727783203,0.7180843353271484,0
-1.3397347927093506,7.649934768676758,0.3141772747039795,0
-1.222449779510498,8.028770446777344,-0.18493247032165527,0
-1.1901510953903198,8.14856243133545,-0.743485689163208,0
-1.2591644525527954,7.911153793334961,-1.2987208366394043,0
-1.4677445888519287,7.260072708129883,-1.7975962162017822,0
-1.823875904083252,6.197275161743164,-2.196988344192505,0
-2.273561954498291,4.83729362487793,-2.464116334915161,0
-2.6741867065429688,3.346597671508789,-2.5673346519470215,0
-2.8934566974639893,1.8647775650024414,-2.5359811782836914,0
-2.8798131942749023,0.5240020751953125,-2.4583609104156494,0
-2.6886789798736572,-0.5988283157348633,-2.373887062072754,0
-2.3832123279571533,-1.4919748306274414,-2.1932122707366943,0
-2.0215184688568115,-2.177368640899658,-1.9149985313415527,0
-1.6563351154327393,-2.671969413757324,-1.6343414783477783,0
-1.3206202983856201,-2.9783434867858887,-1.396338939666748,0
-1.0155434608459473,-3.10396146774292,-1.2027536630630493,0
-0.695266842842102,-3.0611095428466797,-1.0413951873779297,0
-0.3581284284591675,-2.866893768310547,-0.9290436506271362,0
-0.011988580226898193,-2.547943115234375,-0.8968878984451294,0
0.33265113830566406,-2.138145923614502,-0.9492225646972656,0
0.6721811294555664,-1.6882781982421875,-1.0655356645584106,0
0.9977880716323853,-1.237283706665039,-1.2171989679336548,0
1.3296668529510498,-0.7906036376953125,-1.392298698425293,0
1.6500637531280518,-0.3917694091796875,-1.613088846206665,0
1.918877124786377,-0.06254386901855469,-1.8518173694610596,0
2.0710818767547607,0.24012088775634766,-2.040361166000366,0
2.1086721420288086,0.4687948226928711,-2.2032358646392822,0
1.9751960039138794,0.6482133865356445,-2.3230485916137695,0
1.687951922416687,0.7578554153442383,-2.380979299545288,0
1.3173545598983765,0.7651586532592773,-2.3679709434509277,0
0.9201556444168091,0.6803407669067383,-2.2623844146728516,0
0.5585530996322632,0.537236213684082,-2.0873465538024902,0
0.2761629819869995,0.3240327835083008,-1.8488324880599976,0
0.0522160530090332,0.047916412353515625,-1.5786293745040894,0
-0.15090316534042358,-0.2672300338745117,-1.3106002807617188,0
-0.3226704001426697,-0.6096172332763672,-1.0733489990234375,0
-0.4885562062263489,-0.9627275466918945,-0.8878575563430786,0
-0.6358975172042847,-1.31964111328125,-0.7603843212127686,0
-0.7883238792419434,-1.6590471267700195,-0.6755712032318115,0
-0.931270956993103,-1.9715609550476074,-0.634986937046051,0
-1.0575491189956665,-2.2310242652893066,-0.6187147498130798,0
-1.1408673524856567,-2.423243522644043,-0.6332367658615112,0
-1.1841928958892822,-2.5100412368774414,-0.6779404878616333,0
-1.1931228637695312,-2.4771690368652344,-0.7234715819358826,0
-1.1467080116271973,-2.358170509338379,-0.7673649191856384,0
-1.0403006076812744,-2.19138240814209,-0.8024086356163025,0
-0.8736600279808044,-1.9816412925720215,-0.8215712904930115,0
-0.6824172139167786,-1.764852523803711,-0.8346984386444092,0
-0.47798341512680054,-1.567326545715332,-0.830360472202301,0
-0.29576557874679565,-1.4129409790039062,-0.8115973472595215,0
-0.14751660823822021,-1.2920408248901367,-0.7791560888290405,0
-0.04981637001037598,-1.216526985168457,-0.7144386768341064,0
0.033492207527160645,-1.2054805755615234,-0.6275601387023926,0
0.07850766181945801,-1.23968505859375,-0.5309567451477051,0
0.08978468179702759,-1.3071117401123047,-0.4153527319431305,0
0.10549676418304443,-1.3981571197509766,-0.2881770730018616,0
0.14205503463745117,-1.479304313659668,-0.15206782519817352,0
0.2062816619873047,-1.5553455352783203,-0.01897779107093811,0
0.3002375364303589,-1.6119451522827148,0.10414345562458038,0
0.40904200077056885,-1.6395559310913086,0.21546441316604614,0
0.5346907377243042,-1.6406049728393555,0.30373144149780273,0
0.6721733808517456,-1.598393440246582,0.36242756247520447,0
0.8285850882530212,-1.5464601516723633,0.39684873819351196,0
0.9727654457092285,-1.4943838119506836,0.40732645988464355,0
1.1117758750915527,-1.4278106689453125,0.4011991024017334,0
1.2384896278381348,-1.3730621337890625,0.40482622385025024,0
1.3291089534759521,-1.354043960571289,0.422803670167923,0
1.3767495155334473,-1.3611679077148438,0.4570384919643402,0
1.393784999847412,-1.3944339752197266,0.5260398387908936,0
1.4022315740585327,-1.4395065307617188,0.6362522840499878,0
1.4167054891586304,-1.4844484329223633,0.7701755166053772,0
1.388932228088379,-1.4623069763183594,0.9322258234024048,0
1.3593254089355469,-1.4018621444702148,1.0887236595153809,0
1.3393912315368652,-1.2983741760253906,1.227677345275879,0
1.3016669750213623,-1.127950668334961,1.3421469926834106,0
1.2475496530532837,-0.9217100143432617,1.4642696380615234,0
1.1815087795257568,-0.69403076171875,1.5950583219528198,0
1.1081526279449463,-0.4545106887817383,1.7300187349319458,0
1.029935598373413,-0.1840505599975586,1.8692874908447266,0
0.9785084128379822,0.0885763168334961,2.0128092765808105,0
0.9712384939193726,0.35377025604248047,2.1580936908721924,0
0.9966954588890076,0.6138992309570312,2.269185781478882,0
1.0862230062484741,0.8641653060913086,2.2884726524353027,0
1.2204715013504028,1.092604637145996,2.208400011062622,0
1.394395112991333,1.2824783325195312,2.0450758934020996,0
1.6198842525482178,1.4314088821411133,1.8362421989440918,0
1.8898141384124756,1.5466060638427734,1.653486967086792,0
2.1949477195739746,1.6400699615478516,1.5282917022705078,0
2.5183534622192383,1.7070589065551758,1.441746711730957,0
2.8095788955688477,1.7667665481567383,1.3898435831069946,0
3.0225110054016113,1.8168659210205078,1.3306370973587036,0
3.1200833320617676,1.8980531692504883,1.2143492698669434,0
3.137197971343994,2.046163558959961,1.050446629524231,0
3.1116058826446533,2.3089218139648438,0.8406766653060913,0
3.048072338104248,2.68377685546875,0.6060237884521484,0
2.9154880046844482,3.141878128051758,0.3456805646419525,0
2.70660400390625,3.6209354400634766,0.027269214391708374,0
2.4021077156066895,4.02288818359375,-0.37660661339759827,0
2.0212955474853516,4.25460147857666,-0.8690894246101379,0
1.6271559000015259,4.278059959411621,-1.4006636142730713,0
1.2546019554138184,4.110272407531738,-1.852602243423462,0
0.9052402377128601,3.8184471130371094,-2.1084890365600586,0
0.5681372284889221,3.517578125,-2.1252341270446777,0
0.24372145533561707,3.293844223022461,-1.9720838069915771,0
-0.07264512777328491,3.1902942657470703,-1.8504722118377686,0
-0.35231196880340576,3.2021312713623047,-1.8708808422088623,0
-0.5880612134933472,3.291110038757324,-2.006646156311035,0
-0.7702897787094116,3.39511775970459,-2.1848881244659424,0
-0.9278256297111511,3.5142526626586914,-2.3511016368865967,0
-1.1015701293945312,3.6341772079467773,-2.4545602798461914,0
-1.2676823139190674,3.74045467376709,-2.516059398651123,0
-1.4600865840911865,3.825758934020996,-2.5326147079467773,0
-1.6579720973968506,3.8588638305664062,-2.533639430999756,0
-1.8473994731903076,3.813386917114258,-2.528127908706665,0
-2.0236167907714844,3.691716194152832,-2.502110004425049,0
-2.205833911895752,3.5178422927856445,-2.4208498001098633,0
-2.370079278945923,3.3253660202026367,-2.2669057846069336,0
-2.5161876678466797,3.1430845260620117,-2.049086809158325,0
-2.6344122886657715,2.978273391723633,-1.795271873474121,0
-2.7174882888793945,2.8334312438964844,-1.5235074758529663,0
-2.7533187866210938,2.7134275436401367,-1.2610560655593872,0
-2.7416152954101562,2.606321334838867,-1.0153831243515015,0
-2.672372579574585,2.4905595779418945,-0.7983499765396118,0
-2.5572476387023926,2.351792335510254,-0.6169333457946777,0
-2.395793914794922,2.1803979873657227,-0.49454790353775024,0
-2.173055410385132,1.9595413208007812,-0.43533241748809814,0
-1.9171181917190552,1.6914539337158203,-0.4287055730819702,0
-1.6251691579818726,1.380777359008789,-0.4762464761734009,0
-1.3112481832504272,1.0250272750854492,-0.572733998298645,0
-1.015775203704834,0.6313800811767578,-0.7015562653541565,0
-0.7530198097229004,0.19266128540039062,-0.843545138835907,0
-0.5590335726737976,-0.2838926315307617,-0.982056736946106,0
-0.41208481788635254,-0.783970832824707,-1.1193361282348633,0
-0.30206984281539917,-1.2789573669433594,-1.2409985065460205,0
-0.22406113147735596,-1.7640972137451172,-1.3591516017913818,0
-0.17087411880493164,-2.222677230834961,-1.4738383293151855,0
-0.14529645442962646,-2.637984275817871,-1.57298743724823,0
-0.12382709980010986,-3.0004215240478516,-1.6544198989868164,0
-0.10194683074951172,-3.310171604156494,-1.7055915594100952,0
-0.09660220146179199,-3.5339932441711426,-1.7353665828704834,0
-0.08652830123901367,-3.712632656097412,-1.7413911819458008,0
-0.07731950283050537,-3.817326545715332,-1.7143115997314453,0
-0.08871352672576904,-3.857654571533203,-1.6494874954223633,0
-0.12569975852966309,-3.8528218269348145,-1.5589113235473633,0
-0.19822192192077637,-3.807687282562256,-1.4567744731903076,0
-0.29944050312042236,-3.729430675506592,-1.3623110055923462,0
-0.41037845611572266,-3.637209892272949,-1.28752863407135,0
-0.5241063237190247,-3.5453810691833496,-1.2180570363998413,0
-0.6383464336395264,-3.4396586418151855,-1.165671944618225,0
-0.734143853187561,-3.3392205238342285,-1.1230794191360474,0
-0.8163009285926819,-3.256049156188965,-1.0950417518615723,0
-0.8656954169273376,-3.2021217346191406,-1.0719166994094849,0
-0.9135473966598511,-3.1582932472229004,-1.0584521293640137,0
-0.9404072761535645,-3.155686378479004,-1.0451171398162842,0
-0.9627307653427124,-3.1823105812072754,-1.0224676132202148,0
-0.9705195426940918,-3.23580265045166,-0.9881359338760376,0
-0.9587346315383911,-3.313807487487793,-0.9444477558135986,0
-0.9366158843040466,-3.3996119499206543,-0.8961782455444336,0
-0.9063393473625183,-3.5004358291625977,-0.8360879421234131,0
-0.8700315952301025,-3.616363048553467,-0.7615816593170166,0
-0.8348113894462585,-3.7522387504577637,-0.6628773212432861,0
-0.8248622417449951,-3.900970458984375,-0.5371840000152588,0
-0.8527340888977051,-4.0219011306762695,-0.39624691009521484,0
-0.8974547982215881,-4.0815653800964355,-0.2375795841217041,0
-0.9425424933433533,-4.079979419708252,-0.07086372375488281,0
-0.9692524671554565,-4.029082298278809,0.10133194923400879,0
-0.9826521277427673,-3.940861701965332,0.27661609649658203,0
-0.9829785823822021,-3.827296733856201,0.43826723098754883,0
-0.9537234902381897,-3.6907739639282227,0.5743365287780762,0
-0.9071821570396423,-3.5384340286254883,0.687180757522583,0
-0.8390007019042969,-3.3845367431640625,0.7766580581665039,0
-0.7347054481506348,-3.221839427947998,0.8593118190765381,0
-0.5868924260139465,-3.0406503677368164,0.9442265033721924,0
-0.389992892742157,-2.8217368125915527,1.0427372455596924,0
-0.14330196380615234,-2.5529632568359375,1.1347010135650635,0
0.15128791332244873,-2.224515914916992,1.1925609111785889,0
0.4679139256477356,-1.828974723815918,1.2030551433563232,0
0.7950109243392944,-1.385298728942871,1.177072525024414,0
1.1185150146484375,-0.9006137847900391,1.133195161819458,0
1.4028557538986206,-0.3939399719238281,1.077824354171753,0
1.631467580795288,0.12770748138427734,0.9910173416137695,0
1.7727928161621094,0.6694564819335938,0.8619801998138428,0
1.8022390604019165,1.2338018417358398,0.7550413608551025,0
1.7380611896514893,1.8086128234863281,0.759495735168457,0
1.5960818529129028,2.3697566986083984,0.8882849216461182,0
1.413969874382019,2.873894691467285,1.125948429107666,0
1.220425009727478,3.2728147506713867,1.4693219661712646,0
1.011143684387207,3.5540847778320312,1.9108247756958008,0
0.8082842826843262,3.7101221084594727,2.404372215270996,0
0.6193361282348633,3.74554443359375,2.9007115364074707,0
0.4706686735153198,3.6701717376708984,3.3276736736297607,0
0.36698538064956665,3.498912811279297,3.6216251850128174,0
0.3108363747596741,3.2492103576660156,3.804436445236206,0
0.2544938325881958,3.0010547637939453,3.7961506843566895,0
0.1621159315109253,2.7819595336914062,3.5640127658843994,0
-0.009752213954925537,2.688553810119629,3.1815316677093506,0
-0.2596774399280548,2.7926340103149414,2.76125431060791,0
-0.5282648801803589,3.186793327331543,2.314915895462036,0
-0.7724217176437378,3.869988441467285,1.8262546062469482,0
-0.8940939903259277,4.778718948364258,1.3348031044006348,0
-0.9081746339797974,5.817988395690918,0.8837745189666748,0
-0.872706949710846,6.844457626342773,0.4581639766693115,0
-0.8422347903251648,7.752999305725098,-0.012008190155029297,0
-0.7813838124275208,8.41041374206543,-0.524507999420166,0
-0.8148236274719238,8.692073822021484,-1.0687593221664429,0
-1.0489602088928223,8.465182304382324,-1.5918984413146973,0
-1.5221331119537354,7.676992416381836,-2.0745601654052734,0
-2.1257636547088623,6.4111328125,-2.454665184020996,0
-2.745391368865967,4.891742706298828,-2.669318914413452,0
-3.1997458934783936,3.306365966796875,-2.723802089691162,0
-3.424691915512085,1.835205078125,-2.702040433883667,0
-3.4391369819641113,0.5818471908569336,-2.6234068870544434,0
-3.2743773460388184,-0.4174375534057617,-2.473020553588867,0
-2.99312162399292,-1.1841802597045898,-2.2252166271209717,0
-2.665419101715088,-1.7282705307006836,-1.9033386707305908,0
-2.3240602016448975,-2.1051931381225586,-1.5949673652648926,0
-2.010684013366699,-2.346433162689209,-1.3351768255233765,0
-1.7179467678070068,-2.433171272277832,-1.137888789176941,0
-1.3916873931884766,-2.3776936531066895,-1.0125867128372192,0
-1.0614280700683594,-2.194509983062744,-0.9884330034255981,0
-0.7208733558654785,-1.9268808364868164,-1.0583934783935547,0
-0.3879658579826355,-1.6087470054626465,-1.1950796842575073,0
-0.06665027141571045,-1.2671709060668945,-1.3720773458480835,0
0.2530934810638428,-0.9365911483764648,-1.5643181800842285,0
0.5883837938308716,-0.6369838714599609,-1.7660266160964966,0
0.9088824391365051,-0.3855876922607422,-2.015714406967163,0
1.186673641204834,-0.1898336410522461,-2.283177614212036,0
1.3497236967086792,-0.009177207946777344,-2.499906301498413,0
1.3972591161727905,0.1782217025756836,-2.6420230865478516,0
1.3239853382110596,0.3253335952758789,-2.7547662258148193,0
1.0949413776397705,0.4691314697265625,-2.803032398223877,0
0.7756401896476746,0.5724649429321289,-2.783565044403076,0
0.420029878616333,0.6315116882324219,-2.673956871032715,0
0.09448212385177612,0.6516790390014648,-2.4557666778564453,0
-0.16742467880249023,0.5901784896850586,-2.150111198425293,0
-0.3772830665111542,0.4255790710449219,-1.7843555212020874,0
-0.5370181798934937,0.16980648040771484,-1.3994466066360474,0
-0.6578540802001953,-0.16295242309570312,-1.0523256063461304,0
-0.7602376341819763,-0.5585746765136719,-0.7924514412879944,0
-0.8407453298568726,-0.9814481735229492,-0.6354420781135559,0
-0.9104152917861938,-1.400834083557129,-0.5580739974975586,0
-0.9661359786987305,-1.802717685699463,-0.5538684725761414,0
-1.0098607540130615,-2.1754140853881836,-0.6046397089958191,0
-1.0387934446334839,-2.476119041442871,-0.6899528503417969,0
-1.0576673746109009,-2.685901641845703,-0.7897106409072876,0
-1.045027256011963,-2.7809906005859375,-0.891387939453125,0
-1.0060902833938599,-2.747117042541504,-0.9781262874603271,0
-0.9315897822380066,-2.6130127906799316,-1.045645833015442,0
-0.8459254503250122,-2.419292449951172,-1.0756031274795532,0
-0.7251600027084351,-2.2018203735351562,-1.0758110284805298,0
-0.5834654569625854,-1.9916701316833496,-1.03485107421875,0
-0.45201587677001953,-1.8150691986083984,-0.9605922102928162,0
-0.3213057518005371,-1.6862592697143555,-0.8705913424491882,0
-0.2057545781135559,-1.6147069931030273,-0.7631901502609253,0
-0.09833616018295288,-1.5883636474609375,-0.6389162540435791,0
0.007947027683258057,-1.5999946594238281,-0.49333855509757996,0
0.11752992868423462,-1.628026008605957,-0.3434324562549591,0
0.2132057547569275,-1.6652498245239258,-0.2014377862215042,0
0.29713374376296997,-1.6997051239013672,-0.07234939932823181,0
0.39086949825286865,-1.7147111892700195,0.046502530574798584,0
0.48006004095077515,-1.7175178527832031,0.15804928541183472,0
0.5792213082313538,-1.712977409362793,0.27729228138923645,0
0.6788304448127747,-1.701141357421875,0.3858870267868042,0
0.7597039937973022,-1.7035551071166992,0.47981393337249756,0
0.8385769128799438,-1.7369461059570312,0.5524082779884338,0
0.9225800633430481,-1.784531593322754,0.60650634765625,0
1.021272897720337,-1.8630270957946777,0.6522603034973145,0
1.1298795938491821,-1.9652090072631836,0.6877462267875671,0
1.2437695264816284,-2.0695152282714844,0.7205338478088379,0
1.355804681777954,-2.1639609336853027,0.7317532300949097,0
1.4516699314117432,-2.229398727416992,0.7212556600570679,0
1.5291259288787842,-2.2395429611206055,0.6933800578117371,0
1.578786849975586,-2.1848936080932617,0.6759707927703857,0
1.6079050302505493,-2.0511980056762695,0.6653543710708618,0
1.6021738052368164,-1.8744616508483887,0.6577213406562805,0
1.5639867782592773,-1.6619682312011719,0.6589051485061646,0
1.4980928897857666,-1.4233856201171875,0.6848429441452026,0
1.3970773220062256,-1.161172866821289,0.7423806190490723,0
1.277672290802002,-0.8849506378173828,0.8125662803649902,0
1.1395394802093506,-0.5923595428466797,0.8762942552566528,0
0.9773937463760376,-0.25228404998779297,0.977789044380188,0
0.7813935279846191,0.09218025207519531,1.002514123916626,0
0.5874946117401123,0.4457988739013672,1.0536195039749146,0
0.46070006489753723,0.7989883422851562,1.308410882949829,0
0.4130179286003113,1.1063051223754883,1.7117094993591309,0
0.398831307888031,1.3558273315429688,1.995208501815796,0
0.41544151306152344,1.54998779296875,2.067633628845215,0
0.5465132594108582,1.7175350189208984,2.113320827484131,0
0.8229063749313354,1.8393678665161133,2.254276990890503,0
1.1843684911727905,1.8820581436157227,2.318040132522583,0
1.532387375831604,1.855264663696289,2.1491756439208984,0
1.888418197631836,1.8260431289672852,1.9062297344207764,0
2.2882378101348877,1.8327293395996094,1.8441051244735718,0
2.7269387245178223,1.8538246154785156,1.9543993473052979,0
3.1130940914154053,1.8797712326049805,1.964811086654663,0
3.3622591495513916,1.9225130081176758,1.7582511901855469,0
3.5092358589172363,2.0250635147094727,1.5214706659317017,0
3.588785171508789,2.2040786743164062,1.4217383861541748,0
3.6076629161834717,2.454679489135742,1.3513438701629639,0
3.529900312423706,2.7552194595336914,1.070396900177002,0
3.413200855255127,3.1008033752441406,0.649688184261322,0
3.3032214641571045,3.4817962646484375,0.33495181798934937,0
3.1566731929779053,3.8049116134643555,0.16148105263710022,0
2.8895843029022217,3.9817676544189453,-0.19928473234176636,0
2.47365403175354,3.9790725708007812,-0.8606622219085693,0
2.053988456726074,3.813800811767578,-1.4260354042053223,0
1.7020869255065918,3.5196104049682617,-1.6500962972640991,0
1.3553142547607422,3.1348819732666016,-1.6754220724105835,0
0.9386240243911743,2.738612174987793,-1.70417320728302,0
0.5173680782318115,2.433664321899414,-1.7037863731384277,0
0.16803845763206482,2.2893810272216797,-1.624204397201538,0
-0.08350899815559387,2.248345375061035,-1.6112638711929321,0
-0.3239004909992218,2.2771482467651367,-1.8634212017059326,0
-0.5845281481742859,2.3735342025756836,-2.2457010746002197,0
-0.8080568313598633,2.563910484313965,-2.454354763031006,0
-1.0186872482299805,2.8626232147216797,-2.3763833045959473,0
-1.2865257263183594,3.2360963821411133,-2.2623679637908936,0
-1.629032850265503,3.602886199951172,-2.329805850982666,0
-1.9969322681427002,3.927001953125,-2.4323477745056152,0
-2.3144969940185547,4.174829483032227,-2.364438533782959,0
-2.5556185245513916,4.3056135177612305,-2.194877862930298,0
-2.806100845336914,4.2954864501953125,-2.137758731842041,0
-3.046203374862671,4.182869911193848,-2.1423566341400146,0
-3.2083542346954346,4.015684127807617,-1.9659614562988281,0
-3.2752392292022705,3.827495574951172,-1.545790672302246,0
-3.308617115020752,3.5969343185424805,-1.1498180627822876,0
-3.334529399871826,3.3122901916503906,-0.9501043558120728,0
-3.302581310272217,3.012004852294922,-0.7585049271583557,0
-3.1552677154541016,2.703293800354004,-0.42426061630249023,0
-2.9021754264831543,2.3766469955444336,-0.1077737808227539,0
-2.610126495361328,2.032114028930664,-0.06010293960571289,0
-2.2881157398223877,1.7007274627685547,-0.20395433902740479,0
-1.8802310228347778,1.4037809371948242,-0.2941941022872925,0
-1.4098145961761475,1.141007423400879,-0.2843902111053467,0
-0.9793292284011841,0.8715677261352539,-0.40134549140930176,0
-0.6194000244140625,0.5714540481567383,-0.7212502360343933,0
-0.3110204339027405,0.24771595001220703,-0.999034583568573,0
-0.04744672775268555,-0.09498977661132812,-1.0735554695129395,0
0.13040566444396973,-0.48770999908447266,-1.10783052444458,0
0.19668829441070557,-0.9470005035400391,-1.3374214172363281,0
0.19749855995178223,-1.4535961151123047,-1.6480650901794434,0
0.20707178115844727,-1.9716768264770508,-1.7738091945648193,0
0.22545123100280762,-2.458322525024414,-1.7215051651000977,0
0.2027202844619751,-2.9232101440429688,-1.7471492290496826,0
0.131797194480896,-3.373504638671875,-1.9082800149917603,0
0.08156418800354004,-3.756753921508789,-1.9575598239898682,0
0.07739496231079102,-4.037320613861084,-1.7482075691223145,0
0.08760404586791992,-4.23451042175293,-1.4906096458435059,0
0.039899230003356934,-4.39376974105835,-1.4098167419433594,0
-0.030440449714660645,-4.488818645477295,-1.4074821472167969,0
-0.06937265396118164,-4.4863762855529785,-1.2675389051437378,0
-0.07515275478363037,-4.424889087677002,-1.0185136795043945,0
-0.12940764427185059,-4.356989860534668,-0.897520899772644,0
-0.24209922552108765,-4.268202304840088,-0.9574939012527466,0
-0.3635658621788025,-4.1180100440979,-0.9562238454818726,0
-0.443833589553833,-3.9258408546447754,-0.7615458965301514,0
-0.5210040807723999,-3.7706713676452637,-0.5675837993621826,0
-0.6380049586296082,-3.6499032974243164,-0.5831234455108643,0
-0.7592043876647949,-3.5275769233703613,-0.6741745471954346,0
-0.8323642015457153,-3.403808116912842,-0.6178097724914551,0
-0.8477907180786133,-3.3312525749206543,-0.4189760684967041,0
-0.8885970711708069,-3.333674430847168,-0.3223307132720947,0
-0.9518139362335205,-3.387022018432617,-0.37835168838500977,0
-0.974845290184021,-3.453042507171631,-0.35723066329956055,0
-0.9430108666419983,-3.5413384437561035,-0.14423847198486328,0
-0.8986400365829468,-3.6947388648986816,0.05622053146362305,0
-0.8866910934448242,-3.8937230110168457,0.04445028305053711,0
-0.8857067823410034,-4.068742275238037,-0.04107403755187988,0
-0.8603436350822449,-4.167243957519531,0.0367436408996582,0
-0.8061949610710144,-4.177393913269043,0.25639772415161133,0
-0.7637573480606079,-4.149433135986328,0.3734769821166992,0
-0.7450829148292542,-4.076271057128906,0.34284448623657227,0
-0.7314830422401428,-3.9391283988952637,0.40502381324768066,0
-0.6564668416976929,-3.7718210220336914,0.671018123626709,0
-0.5680049657821655,-3.61985445022583,0.9160239696502686,0
-0.5211821794509888,-3.478269100189209,0.9363217353820801,0
-0.4706835448741913,-3.308784008026123,0.8924851417541504,0
-0.3472636342048645,-3.092331886291504,0.995227575302124,0
-0.17675238847732544,-2.8647451400756836,1.1817355155944824,0
0.010908901691436768,-2.6353816986083984,1.1996493339538574,0
0.2069501280784607,-2.3753724098205566,1.0673725605010986,0
0.4619249105453491,-2.04156494140625,0.9924309253692627,0
0.7662992477416992,-1.6457462310791016,1.071709156036377,0
1.0243420600891113,-1.2210111618041992,1.0783863067626953,0
1.214563012123108,-0.7644309997558594,0.8355815410614014,0
1.3457815647125244,-0.2157583236694336,0.5186314582824707,0
1.4263756275177002,0.43237781524658203,0.382526159286499,0
1.4118099212646484,1.1224555969238281,0.44429683685302734,0
1.2338182926177979,1.7945995330810547,0.4915921688079834,0
0.9393668174743652,2.4461803436279297,0.5593924522399902,0
0.5975725054740906,3.0527963638305664,0.8771343231201172,0
0.259108304977417,3.5901050567626953,1.4894533157348633,0
-0.10829782485961914,4.057999610900879,2.0951149463653564,0
-0.5199313163757324,4.49969482421875,2.442312002182007,0
-0.8616693019866943,4.951272010803223,2.6401376724243164,0
-1.1561566591262817,5.429862022399902,2.8805675506591797,0
-1.5174773931503296,5.902748107910156,2.9835760593414307,0
-1.9309659004211426,6.428251266479492,2.695209503173828,0
-2.3185677528381348,7.10972785949707,2.131929636001587,0
-2.641122817993164,7.941835403442383,1.664947509765625,0
-2.868682861328125,8.813109397888184,1.4430186748504639,0
-2.908231735229492,9.599757194519043,1.232978343963623,0
-2.710209608078003,10.189723014831543,0.8718860149383545,0
-2.3739280700683594,10.477960586547852,0.5012073516845703,0
-2.0874624252319336,10.336289405822754,0.30313944816589355,0
-1.9562314748764038,9.65954875946045,0.11350870132446289,0
-2.0351459980010986,8.530756950378418,-0.29334306716918945,0
-2.258925199508667,7.064455032348633,-0.7329938411712646,0
-2.5345683097839355,5.410406112670898,-0.9267961978912354,0
-2.7775235176086426,3.636570930480957,-0.9020400047302246,0
-2.958176612854004,1.8659257888793945,-0.9783445596694946,0
-3.0578420162200928,0.24300003051757812,-1.3104416131973267,0
-3.0263381004333496,-1.1694393157958984,-1.6545459032058716,0
-2.8028512001037598,-2.33779239654541,-1.8300565481185913,0
-2.4756600856781006,-3.2788615226745605,-1.9666361808776855,0
-2.1768205165863037,-3.966378688812256,-2.219796895980835,0
-1.8679070472717285,-4.3768157958984375,-2.41629695892334,0
-1.4178410768508911,-4.518260478973389,-2.2838757038116455,0
-0.881074070930481,-4.393965721130371,-1.9671450853347778,0
-0.34287208318710327,-4.056952476501465,-1.7867811918258667,0
0.15169477462768555,-3.526564121246338,-1.7453511953353882,0
0.6244363784790039,-2.824596405029297,-1.6346149444580078,0
1.0785369873046875,-1.977656364440918,-1.38767671585083,0
1.503305435180664,-1.067464828491211,-1.240981936454773,0
1.8445812463760376,-0.1351757049560547,-1.350775957107544,0
2.111734628677368,0.7467994689941406,-1.4937479496002197,0
2.2893614768981934,1.4824180603027344,-1.4685440063476562,0
2.2831368446350098,1.9786748886108398,-1.40365731716156,0
2.0083773136138916,2.121617317199707,-1.546469807624817,0
1.5488150119781494,1.902602195739746,-1.7929096221923828,0
1.0827038288116455,1.4657821655273438,-1.8473553657531738,0
0.6784186363220215,0.9264698028564453,-1.6541475057601929,0
0.3053380250930786,0.3498191833496094,-1.4956964254379272,0
-0.04169183969497681,-0.23486995697021484,-1.5230211019515991,0
-0.33518534898757935,-0.7173395156860352,-1.500246286392212,0
-0.5431274175643921,-1.0450048446655273,-1.2626819610595703,0
-0.6951526999473572,-1.2418556213378906,-1.0336912870407104,0
-0.8491635918617249,-1.3773651123046875,-1.0051169395446777,0
-0.9672209024429321,-1.4661121368408203,-1.0277835130691528,0
-1.0062286853790283,-1.5108327865600586,-0.8944151997566223,0
-0.9751062393188477,-1.5500755310058594,-0.6400541663169861,0
-0.9231756925582886,-1.6341867446899414,-0.5301126837730408,0
-0.8852930665016174,-1.784742832183838,-0.6146165132522583,0
-0.7982115149497986,-1.956416130065918,-0.6534547805786133,0
-0.651563286781311,-2.118227958679199,-0.5624375343322754,0
-0.5191030502319336,-2.243889808654785,-0.5380414128303528,0
-0.4272920489311218,-2.3166322708129883,-0.7313842177391052,0
-0.34574830532073975,-2.2862606048583984,-0.9481546878814697,0
-0.21085917949676514,-2.1600341796875,-0.984404981136322,0
-0.05196976661682129,-1.9905900955200195,-0.8956103324890137,0
0.06835168600082397,-1.823310375213623,-0.907625138759613,0
0.1597573161125183,-1.6940374374389648,-1.0233255624771118,0
0.26553696393966675,-1.6075439453125,-1.024843454360962,0
0.3859661817550659,-1.570998191833496,-0.8355753421783447,0
0.47589707374572754,-1.5915203094482422,-0.6668388247489929,0
0.5043953061103821,-1.6594715118408203,-0.677448570728302,0
0.5098533034324646,-1.774827480316162,-0.6880239844322205,0
0.5712838768959045,-1.8897504806518555,-0.5309115052223206,0
0.6503358483314514,-1.9947094917297363,-0.29713690280914307,0
0.6918739676475525,-2.09212064743042,-0.2166667878627777,0
0.7052973508834839,-2.165273666381836,-0.24623434245586395,0
0.7574048042297363,-2.202259063720703,-0.15775108337402344,0
0.876754879951477,-2.17922306060791,0.08969837427139282,0
0.9937220215797424,-2.105807304382324,0.2662128806114197,0
1.055429458618164,-2.0322933197021484,0.26135534048080444,0
1.1217386722564697,-1.9563074111938477,0.2837933599948883,0
1.233207106590271,-1.8156805038452148,0.4967743158340454,0
1.3274238109588623,-1.6535253524780273,0.7641912698745728,0
1.3469208478927612,-1.5368232727050781,0.851594865322113,0
1.320800542831421,-1.4703187942504883,0.8453789949417114,0
1.316434383392334,-1.4109115600585938,0.9924725294113159,0
1.3485530614852905,-1.3586225509643555,1.275691270828247,0
1.3406553268432617,-1.3373966217041016,1.4379446506500244,0
1.2832074165344238,-1.3329010009765625,1.4089488983154297,0
1.2409220933914185,-1.3092823028564453,1.4421781301498413,0
1.2615132331848145,-1.2378664016723633,1.6526113748550415,0
1.2752476930618286,-1.1043739318847656,1.855880856513977,0
1.258112907409668,-0.9639072418212891,1.8196556568145752,0
1.233918309211731,-0.7949705123901367,1.6804695129394531,0
1.2336260080337524,-0.5664854049682617,1.6902248859405518,0
1.2477866411209106,-0.3335142135620117,1.808395504951477,0
1.19291090965271,-0.12957763671875,1.8001723289489746,0
1.0978667736053467,0.07164573669433594,1.6535425186157227,0
1.0223617553710938,0.31802845001220703,1.6277217864990234,0
1.0261921882629395,0.5856552124023438,1.7951310873031616,0
1.0779145956039429,0.845794677734375,1.8875212669372559,0
1.1458090543746948,1.0840415954589844,1.7149193286895752,0
1.2554980516433716,1.336252212524414,1.499413013458252,0
1.44704270362854,1.6095705032348633,1.496861219406128,0
1.701054573059082,1.8465614318847656,1.64463472366333,0
1.9648555517196655,2.004169464111328,1.671621561050415,0
2.173865556716919,2.111147880554199,1.5606825351715088,0
2.404698133468628,2.20827579498291,1.5641237497329712,0
2.64483642578125,2.298065185546875,1.7671375274658203,0
2.8172030448913574,2.373446464538574,1.9199883937835693,0
2.8778257369995117,2.448805809020996,1.7313464879989624,0
2.864029884338379,2.5910959243774414,1.3858413696289062,0
2.862107276916504,2.8337182998657227,1.1564003229141235,0
2.8629331588745117,3.1358537673950195,0.9989455342292786,0
2.7975656986236572,3.45668888092041,0.6197434663772583,0
2.6301188468933105,3.774625778198242,0.024845659732818604,0
2.4034125804901123,4.072966575622559,-0.4748193621635437,0
2.181878089904785,4.277667999267578,-0.7740623354911804,0
1.903581976890564,4.3051862716674805,-1.1774635314941406,0
1.5527198314666748,4.136595726013184,-1.801148533821106,0
1.2003576755523682,3.8414745330810547,-2.30412220954895,0
0.8889241814613342,3.5084733963012695,-2.385622501373291,0
0.6052192449569702,3.173543930053711,-2.1898794174194336,0
0.2634695768356323,2.9013137817382812,-2.1150436401367188,0
-0.09568393230438232,2.7396411895751953,-2.2432022094726562,0
-0.39590367674827576,2.7100954055786133,-2.3297529220581055,0
-0.6206463575363159,2.7888002395629883,-2.258695363998413,0
-0.8561443090438843,2.930368423461914,-2.244328498840332,0
-1.1405667066574097,3.087042808532715,-2.3907461166381836,0
-1.4574675559997559,3.292386054992676,-2.4633593559265137,0
-1.747636318206787,3.534381866455078,-2.3107032775878906,0
-2.0067291259765625,3.724398612976074,-2.109440803527832,0
-2.2925782203674316,3.812130928039551,-2.1136889457702637,0
-2.552854537963867,3.7975215911865234,-2.2407608032226562,0
-2.737358808517456,3.71158504486084,-2.224379777908325,0
-2.8388192653656006,3.585360527038574,-2.0197553634643555,0
-2.916933059692383,3.418905258178711,-1.8489031791687012,0
-3.014528751373291,3.233870506286621,-1.799994945526123,0
-3.062248706817627,3.068608283996582,-1.666028618812561,0
-3.014885902404785,2.937527656555176,-1.3237152099609375,0
-2.901198387145996,2.809650421142578,-0.9684243202209473,0
-2.802421808242798,2.646932601928711,-0.8243342041969299,0
-2.672722578048706,2.4423398971557617,-0.7817681431770325,0
-2.4571726322174072,2.2198123931884766,-0.6150579452514648,0
-2.1341209411621094,1.9793100357055664,-0.35950416326522827,0
-1.7891950607299805,1.70166015625,-0.27309656143188477,0
-1.4407527446746826,1.4154443740844727,-0.40759706497192383,0
-1.0714360475540161,1.120396614074707,-0.529436469078064,0
-0.6708379983901978,0.8281459808349609,-0.49395573139190674,0
-0.3174275755882263,0.4691791534423828,-0.48520565032958984,0
-0.0754014253616333,0.0195770263671875,-0.6897283792495728,0
0.07193779945373535,-0.4776163101196289,-0.9539016485214233,0
0.17235803604125977,-0.9794883728027344,-1.0617272853851318,0
0.25936031341552734,-1.5004377365112305,-1.0493509769439697,0
0.2876981496810913,-2.0307741165161133,-1.15693998336792,0
0.2502872943878174,-2.5512280464172363,-1.3995249271392822,0
0.2046107053756714,-3.0022125244140625,-1.5204118490219116,0
0.19112610816955566,-3.3600754737854004,-1.4257748126983643,0
0.1639641523361206,-3.6463208198547363,-1.338782548904419,0
0.08682548999786377,-3.8680591583251953,-1.405792236328125,0
-0.0026475191116333008,-4.008669376373291,-1.4587947130203247,0
-0.05982708930969238,-4.039621829986572,-1.3274682760238647,0
-0.10439443588256836,-3.992056369781494,-1.1007168292999268,0
-0.1891377568244934,-3.932870864868164,-1.0279422998428345,0
-0.3358699083328247,-3.8429088592529297,-1.1066523790359497,0
-0.4661610722541809,-3.6984429359436035,-1.1087675094604492,0
-0.539983332157135,-3.5331058502197266,-0.9406447410583496,0
-0.6148180365562439,-3.406658172607422,-0.8155858516693115,0
-0.7264545559883118,-3.3332595825195312,-0.9111285209655762,0
-0.827179491519928,-3.250774383544922,-1.044920563697815,0
-0.8621394038200378,-3.1857385635375977,-0.9866141080856323,0
-0.86482834815979,-3.178889751434326,-0.8222658634185791,0
-0.8923382759094238,-3.234882354736328,-0.8130528926849365,0
-0.9491382837295532,-3.303460121154785,-0.9397149085998535,0
-0.9583234786987305,-3.4135923385620117,-0.9382421970367432,0
-0.9243875741958618,-3.5558676719665527,-0.7150205373764038,0
-0.9087209701538086,-3.763786792755127,-0.5215435028076172,0
-0.929698646068573,-4.037204265594482,-0.5089237689971924,0
-0.9582951068878174,-4.297165870666504,-0.5214941501617432,0
-0.9443179368972778,-4.524662494659424,-0.3603529930114746,0
-0.8996301889419556,-4.748355388641357,-0.10010600090026855,0
-0.8672131299972534,-4.941710948944092,0.028797626495361328,0
-0.8473649024963379,-5.06633996963501,0.011777877807617188,0
-0.807228684425354,-5.0769219398498535,0.09810185432434082,0
-0.7136671543121338,-5.014314651489258,0.3980693817138672,0
-0.6218750476837158,-4.938305377960205,0.6625943183898926,0
-0.577919602394104,-4.839038848876953,0.6877024173736572,0
-0.5590262413024902,-4.670871734619141,0.6430766582489014,0
-0.49691739678382874,-4.4360857009887695,0.7174108028411865,0
-0.39669737219810486,-4.17990255355835,0.8139121532440186,0
-0.299035906791687,-3.9139857292175293,0.7328555583953857,0
-0.20155954360961914,-3.6071314811706543,0.564749002456665,0
-0.042208075523376465,-3.2091407775878906,0.5414729118347168,0
0.18391519784927368,-2.734405040740967,0.7006874084472656,0
0.3888051509857178,-2.22359561920166,0.8000955581665039,0
0.5276473760604858,-1.6670846939086914,0.7075188159942627,0
0.6341819167137146,-1.0385866165161133,0.5950424671173096,0
0.7589917778968811,-0.3357200622558594,0.6319179534912109,0
0.8191115856170654,0.40348052978515625,0.6823844909667969,0
0.7675154209136963,1.1723203659057617,0.547825813293457,0
0.6329634785652161,1.9899568557739258,0.4171111583709717,0
0.40595507621765137,2.813136100769043,0.5085301399230957,0
0.07988709211349487,3.5816707611083984,0.804297685623169,0
-0.32122665643692017,4.230359077453613,1.2498013973236084,0
-0.730640172958374,4.696374893188477,1.7789466381072998,0
-1.106324553489685,4.9292497634887695,2.317385673522949,0
-1.3993308544158936,4.9171552658081055,2.8158833980560303,0
-1.5626189708709717,4.667557716369629,3.27230167388916,0
-1.6107350587844849,4.248190879821777,3.6106319427490234,0
-1.600616216659546,3.7653541564941406,3.755640745162964,0
-1.5744023323059082,3.356797218322754,3.6350512504577637,0
-1.5986628532409668,3.1670761108398438,3.3069350719451904,0
-1.6905899047851562,3.2895660400390625,2.871138095855713,0
-1.8079074621200562,3.766519546508789,2.3493165969848633,0
-1.8193297386169434,4.534361839294434,1.8102755546569824,0
-1.6992037296295166,5.47409725189209,1.3433709144592285,0
-1.4825520515441895,6.4495697021484375,0.9773910045623779,0
-1.2449963092803955,7.346281051635742,0.6115801334381104,0
-0.9927607178688049,8.093271255493164,0.19103622436523438,0
-0.7846702933311462,8.577319145202637,-0.28216123580932617,0
-0.7172540426254272,8.659993171691895,-0.7514932155609131,0
-0.9002771377563477,8.201762199401855,-1.220849633216858,0
-1.3183717727661133,7.202751159667969,-1.6794546842575073,0
-1.8944758176803589,5.876020431518555,-2.090796709060669,0
-2.477083683013916,4.407322883605957,-2.366170644760132,0
-2.8195791244506836,2.952609062194824,-2.411557197570801,0
-2.8255250453948975,1.6699247360229492,-2.2851321697235107,0
-2.53865647315979,0.6359043121337891,-2.075923442840576,0
-2.091562509536743,-0.1519927978515625,-1.7955926656723022,0
-1.5629123449325562,-0.7540750503540039,-1.4523394107818604,0
-0.9754492044448853,-1.2352714538574219,-1.1147561073303223,0
-0.3730834424495697,-1.6100378036499023,-0.8306427001953125,0
0.15973180532455444,-1.8329143524169922,-0.6363197565078735,0
0.6089507341384888,-1.8872957229614258,-0.5201722383499146,0
1.0000752210617065,-1.795003890991211,-0.4823709726333618,0
1.3584527969360352,-1.5994138717651367,-0.5203754901885986,0
1.6366522312164307,-1.3774833679199219,-0.6280826330184937,0
1.8127729892730713,-1.1894464492797852,-0.7793630361557007,0
1.9232075214385986,-1.0882539749145508,-0.9914975166320801,0
2.024733781814575,-1.0982284545898438,-1.2289154529571533,0
2.07112979888916,-1.2149419784545898,-1.4918004274368286,0
2.042651414871216,-1.3836393356323242,-1.7423934936523438,0
1.9673831462860107,-1.4919300079345703,-1.9849092960357666,0
1.8146419525146484,-1.4725751876831055,-2.1962101459503174,0
1.5131726264953613,-1.3106346130371094,-2.3566906452178955,0
1.0714199542999268,-1.053147315979004,-2.4451966285705566,0
0.5384758114814758,-0.7831211090087891,-2.433248996734619,0
-0.011365413665771484,-0.5598268508911133,-2.296846866607666,0
-0.480416476726532,-0.43316650390625,-2.066835880279541,0
-0.8176174163818359,-0.4579286575317383,-1.7979109287261963,0
-1.0479114055633545,-0.6316261291503906,-1.5058280229568481,0
-1.2079100608825684,-0.9208049774169922,-1.2104220390319824,0
-1.3176052570343018,-1.272989273071289,-0.9523598551750183,0
-1.3923356533050537,-1.6381769180297852,-0.7550037503242493,0
-1.4313158988952637,-1.9806995391845703,-0.6321746110916138,0
-1.4848685264587402,-2.2576727867126465,-0.5832843780517578,0
-1.5535802841186523,-2.435786247253418,-0.6026924252510071,0
-1.6142905950546265,-2.488926887512207,-0.6845283508300781,0
-1.6535062789916992,-2.4292311668395996,-0.8039777874946594,0
-1.6553196907043457,-2.2640228271484375,-0.9291253685951233,0
-1.6200013160705566,-2.0293335914611816,-1.030542016029358,0
-1.5116310119628906,-1.7539787292480469,-1.098175287246704,0
-1.3418935537338257,-1.4858617782592773,-1.1174755096435547,0
-1.115329384803772,-1.2608613967895508,-1.0836409330368042,0
-0.8554189205169678,-1.1124267578125,-1.0110185146331787,0
-0.5880197882652283,-1.073958396911621,-0.899981677532196,0
-0.33189934492111206,-1.1357660293579102,-0.7752985954284668,0
-0.0914202332496643,-1.242757797241211,-0.6257323026657104,0
0.1336805820465088,-1.3757829666137695,-0.4662979245185852,0
0.34601593017578125,-1.525284767150879,-0.2997516393661499,0
0.5457121133804321,-1.6673669815063477,-0.11670636385679245,0
0.7375898361206055,-1.7781577110290527,0.07803674787282944,0
0.9189773201942444,-1.862480640411377,0.26056161522865295,0
1.0607900619506836,-1.9371042251586914,0.4141604006290436,0
1.2085490226745605,-1.9877128601074219,0.5486282110214233,0
1.3597959280014038,-1.9976062774658203,0.6498438119888306,0
1.497516393661499,-1.9979076385498047,0.7134816646575928,0
1.6334409713745117,-1.9646978378295898,0.7449259161949158,0
1.7364165782928467,-1.9003911018371582,0.747238278388977,0
1.8280398845672607,-1.8241333961486816,0.7307146787643433,0
1.8819639682769775,-1.7359108924865723,0.7103028297424316,0
1.898212194442749,-1.6404943466186523,0.7030777931213379,0
1.867368221282959,-1.5546236038208008,0.7233098745346069,0
1.796894907951355,-1.478306770324707,0.7799925804138184,0
1.7086169719696045,-1.4091606140136719,0.877407431602478,0
1.6051039695739746,-1.3448095321655273,1.0149962902069092,0
1.4909511804580688,-1.2804908752441406,1.1728119850158691,0
1.4068506956100464,-1.2449474334716797,1.3308520317077637,0
1.2945780754089355,-1.1520681381225586,1.510221242904663,0
1.2037208080291748,-1.0234384536743164,1.7013061046600342,0
1.1506612300872803,-0.8686742782592773,1.8897829055786133,0
1.122971534729004,-0.6638908386230469,2.0567626953125,0
1.1035230159759521,-0.4067354202270508,2.2027573585510254,0
1.0827610492706299,-0.09963417053222656,2.3333239555358887,0
1.0608267784118652,0.2238750457763672,2.4511172771453857,0
1.0167148113250732,0.5302209854125977,2.5147128105163574,0
0.9675390124320984,0.8049631118774414,2.4821009635925293,0
0.9232538938522339,1.0312919616699219,2.3353610038757324,0
0.8792783617973328,1.2044572830200195,2.1126112937927246,0
0.8593987822532654,1.326970100402832,1.8816006183624268,0
0.8871721029281616,1.4228696823120117,1.6742627620697021,0
0.9835159182548523,1.5066041946411133,1.5225234031677246,0
1.1818029880523682,1.547163963317871,1.4726204872131348,0
1.4484508037567139,1.5565967559814453,1.5250458717346191,0
1.7523515224456787,1.5277862548828125,1.6345105171203613,0
2.047907829284668,1.4727468490600586,1.7557834386825562,0
2.305436611175537,1.424983024597168,1.7717036008834839,0
2.494757652282715,1.449014663696289,1.6511141061782837,0
2.633754014968872,1.606893539428711,1.4298489093780518,0
2.7405478954315186,1.9366846084594727,1.1485307216644287,0
2.802546501159668,2.4357528686523438,0.825873076915741,0
2.821915626525879,3.010601043701172,0.4276483356952667,0
2.7603046894073486,3.541537284851074,-0.07367104291915894,0
2.5768661499023438,3.9257736206054688,-0.6866082549095154,0
2.3150057792663574,4.082237243652344,-1.3449504375457764,0
2.040595054626465,4.013648986816406,-1.9300785064697266,0
1.7748024463653564,3.77773380279541,-2.2875916957855225,0
1.4883016347885132,3.501495361328125,-2.337204933166504,0
1.1558514833450317,3.304640769958496,-2.1992437839508057,0
0.8427489399909973,3.2565431594848633,-2.103599786758423,0
0.5732696056365967,3.340437889099121,-2.2176151275634766,0
0.33278778195381165,3.491795539855957,-2.533503532409668,0
0.09466776251792908,3.689228057861328,-2.913755416870117,0
-0.1771637201309204,3.959178924560547,-3.2127416133880615,0
-0.4850311875343323,4.287314414978027,-3.3871030807495117,0
-0.8450884819030762,4.6520233154296875,-3.46054744720459,0
-1.223222017288208,4.990972518920898,-3.4859862327575684,0
-1.5979726314544678,5.227540016174316,-3.485835552215576,0
-1.9622291326522827,5.3138580322265625,-3.4566102027893066,0
-2.291994094848633,5.257134437561035,-3.390941619873047,0
-2.5871360301971436,5.083745956420898,-3.2680821418762207,0
-2.840695858001709,4.834501266479492,-3.0657191276550293,0
-3.0385000705718994,4.559770584106445,-2.775986433029175,0
-3.1711113452911377,4.295522689819336,-2.392975330352783,0
-3.250682830810547,4.058589935302734,-1.9370923042297363,0
-3.267871141433716,3.846649169921875,-1.4449748992919922,0
-3.2417635917663574,3.6597232818603516,-0.9695587158203125,0
-3.1650025844573975,3.4714975357055664,-0.5729806423187256,0
-3.0420172214508057,3.260404586791992,-0.2786726951599121,0
-2.884446859359741,3.0168256759643555,-0.11229157447814941,0
-2.6771726608276367,2.740619659423828,-0.06815874576568604,0
-2.4218430519104004,2.407721519470215,-0.12164545059204102,0
-2.116016387939453,2.0132980346679688,-0.24106407165527344,0
