AccX,AccY,AccZ,SampleRate
0.622139036655426,-0.9527902603149414,1.515913963317871,0
0.6695982813835144,-0.6312932968139648,2.5085439682006836,0.01
0.5840252637863159,-0.24218463897705078,2.7796523571014404,0.02
0.5642960667610168,-0.24735641479492188,2.4549663066864014,0.03
0.36840033531188965,-0.4428129196166992,2.061406373977661,0.04
0.12877756357192993,-0.5720796585083008,1.7877707481384277,0.05
-0.0635533332824707,-0.43639087677001953,1.3246235847473145,0.060000000000000005
-0.4147185683250427,-0.031119346618652344,0.5355008840560913,0.07
-0.7754453420639038,0.44429874420166016,0.02229917049407959,0.08
-1.106585144996643,0.8860034942626953,0.11790543794631958,0.09
-1.2397643327713013,1.2787609100341797,0.8859502673149109,0.09999999999999999
-0.864435076713562,1.6912269592285156,2.1185832023620605,0.10999999999999999
-0.015323549509048462,1.8787813186645508,2.940706253051758,0.11999999999999998
1.8492205142974854,1.6953372955322266,3.222296953201294,0.12999999999999998
3.7964367866516113,1.3880462646484375,2.6355090141296387,0.13999999999999999
5.664285182952881,0.859379768371582,2.476547956466675,0.15
6.313742637634277,0.9952459335327148,2.747443675994873,0.16
6.052335739135742,1.9627456665039062,3.2703423500061035,0.17
5.386242389678955,3.198674201965332,2.532078504562378,0.18000000000000002
4.571998119354248,4.535737037658691,1.2482571601867676,0.19000000000000003
3.8055453300476074,5.943218231201172,-0.07692253589630127,0.20000000000000004
2.931095600128174,6.176815986633301,-1.9147214889526367,0.21000000000000005
2.1890807151794434,5.170427322387695,-2.817875623703003,0.22000000000000006
0.9816272258758545,3.393294334411621,-3.2757606506347656,0.23000000000000007
-0.039064258337020874,1.7201404571533203,-2.8129711151123047,0.24000000000000007
-0.5365080833435059,-0.4122123718261719,-1.9291419982910156,0.25000000000000006
-0.5896657109260559,-2.0186471939086914,-0.7182857990264893,0.26000000000000006
-0.1715468019247055,-2.7398033142089844,-1.765893816947937,0.2700000000000001
0.9612081050872803,-1.222365379333496,-3.001368999481201,0.2800000000000001
1.7609498500823975,2.350691795349121,-2.1348421573638916,0.2900000000000001
-2.002098798751831,3.18759822845459,-0.7125039100646973,0.3000000000000001
-21.205636978149414,8.458041191101074,-1.2740775346755981,0.3100000000000001
-15.81517505645752,6.878692626953125,-1.806020975112915,0.3200000000000001
-3.9251255989074707,3.2591285705566406,-2.508988857269287,0.3300000000000001
-1.3598237037658691,2.022296905517578,-1.9020837545394897,0.34000000000000014
-0.9085376262664795,1.3875455856323242,-0.7881156206130981,0.35000000000000014
0.5209619998931885,0.4173927307128906,0.3781166076660156,0.36000000000000015
1.9248204231262207,-0.7799720764160156,2.4143600463867188,0.37000000000000016
2.680436134338379,-2.0494046211242676,2.3292689323425293,0.38000000000000017
2.9514927864074707,-3.065567970275879,0.34329938888549805,0.3900000000000002
2.176819324493408,-3.658165454864502,-2.165201187133789,0.4000000000000002
1.8804148435592651,-5.519890785217285,-3.5368030071258545,0.4100000000000002
1.865192174911499,-6.2829437255859375,-2.299337863922119,0.4200000000000002
1.398537516593933,-6.2088823318481445,-0.7851436138153076,0.4300000000000002
0.8329439759254456,-5.622300148010254,-0.6207797527313232,0.4400000000000002
-0.005058884620666504,-4.760833263397217,-1.0837318897247314,0.45000000000000023
-0.7427014112472534,-4.105617523193359,-1.331913948059082,0.46000000000000024
-1.1175222396850586,-3.5345258712768555,-1.5218651294708252,0.47000000000000025
-1.3388997316360474,-3.0703535079956055,-1.3135159015655518,0.48000000000000026
-1.5998002290725708,-2.8684463500976562,-0.8253626823425293,0.49000000000000027
-1.7102346420288086,-3.034062385559082,-0.3225557804107666,0.5000000000000002
-1.4785051345825195,-3.1846113204956055,0.05762624740600586,0.5100000000000002
-0.9582140445709229,-3.2945852279663086,0.19184303283691406,0.5200000000000002
-0.22835516929626465,-3.2601394653320312,0.5048785209655762,0.5300000000000002
0.0628746747970581,-3.2287774085998535,1.0123224258422852,0.5400000000000003
0.42601191997528076,-3.2877120971679688,1.2952821254730225,0.5500000000000003
0.40556156635284424,-3.1437673568725586,1.2522075176239014,0.5600000000000003
0.15299618244171143,-2.6218795776367188,1.230644702911377,0.5700000000000003
0.00668179988861084,-1.6545381546020508,1.5470030307769775,0.5800000000000003
0.4227473735809326,-0.09279537200927734,2.221820831298828,0.5900000000000003
0.7547111511230469,1.2992210388183594,2.821467876434326,0.6000000000000003
0.4234297275543213,3.023423194885254,3.8071277141571045,0.6100000000000003
-0.7455987930297852,4.297145843505859,4.384142875671387,0.6200000000000003
-2.2433152198791504,5.313876152038574,3.8761653900146484,0.6300000000000003
-4.587343215942383,5.741147041320801,2.889214038848877,0.6400000000000003
-5.345383644104004,2.790215492248535,2.844783306121826,0.6500000000000004
-5.232368469238281,0.030611038208007812,3.288100242614746,0.6600000000000004
-4.83663272857666,-2.079014301300049,2.5335512161254883,0.6700000000000004
-4.839642524719238,-2.053654193878174,2.460383415222168,0.6800000000000004
-1.941267728805542,2.490659713745117,-1.513120174407959,0.6900000000000004
-1.9865784645080566,7.751812934875488,-2.4425010681152344,0.7000000000000004
-2.7813096046447754,12.540492057800293,-4.288861274719238,0.7100000000000004
-2.9046645164489746,13.5963773727417,-6.436861038208008,0.7200000000000004
-0.0982210636138916,10.281438827514648,-5.0103349685668945,0.7300000000000004
2.664425849914551,2.3505144119262695,0.7325313091278076,0.7400000000000004
1.7872432470321655,-4.288428783416748,2.997555732727051,0.7500000000000004
0.6403939723968506,-7.458250045776367,-1.7729685306549072,0.7600000000000005
0.8966987133026123,-8.640069961547852,-7.00069522857666,0.7700000000000005
1.3635305166244507,-7.122597694396973,-7.124331951141357,0.7800000000000005
2.985506057739258,-2.389087200164795,-3.846088171005249,0.7900000000000005
4.753871917724609,1.7560606002807617,-1.7131856679916382,0.8000000000000005
6.3299665451049805,4.120841026306152,-0.7308640480041504,0.8100000000000005
6.025806427001953,4.1241912841796875,-0.9176990985870361,0.8200000000000005
4.047552585601807,1.1334190368652344,-2.7271625995635986,0.8300000000000005
2.333108425140381,-1.5650248527526855,-3.668616771697998,0.8400000000000005
-0.08999449014663696,-3.6156396865844727,-3.0426018238067627,0.8500000000000005
-3.5324153900146484,-3.6956887245178223,-1.6266181468963623,0.8600000000000005
-4.548957347869873,-3.526057243347168,-0.33634161949157715,0.8700000000000006
-3.2194302082061768,-3.387974262237549,0.17028379440307617,0.8800000000000006
-1.9081120491027832,-3.048722743988037,0.43177330493927,0.8900000000000006
-1.3994431495666504,-2.261146068572998,0.3449059724807739,0.9000000000000006
-0.5680163502693176,-1.412179946899414,-0.14630192518234253,0.9100000000000006
0.44908756017684937,-0.9167108535766602,-1.45953369140625,0.9200000000000006
1.038074254989624,-0.695561408996582,-2.8064565658569336,0.9300000000000006
1.3320426940917969,-0.6358013153076172,-3.015207290649414,0.9400000000000006
1.6452341079711914,-0.7903957366943359,-2.012847661972046,0.9500000000000006
1.7357439994812012,-0.9445505142211914,-0.7220418453216553,0.9600000000000006
1.951034426689148,-0.9865942001342773,0.7503315210342407,0.9700000000000006
2.386220932006836,-1.0103731155395508,1.9930076599121094,0.9800000000000006
2.5577871799468994,-1.1238336563110352,2.5119969844818115,0.9900000000000007
2.4903404712677,-1.3915433883666992,2.084635019302368,1.0000000000000007
2.0870614051818848,-1.4924125671386719,0.9985977411270142,1.0100000000000007
1.6379246711730957,-1.0932674407958984,0.5780029296875,1.0200000000000007
1.473742127418518,-0.5364971160888672,1.0657949447631836,1.0300000000000007
1.148180365562439,-0.2749929428100586,2.0652220249176025,1.0400000000000007
0.37591204047203064,-0.1843423843383789,2.7930214405059814,1.0500000000000007
-0.5055866241455078,0.03488349914550781,2.7293953895568848,1.0600000000000007
-1.2513298988342285,0.7134618759155273,2.0455150604248047,1.0700000000000007
-1.405037760734558,1.3650474548339844,2.0360565185546875,1.0800000000000007
-1.0253088474273682,1.995499610900879,2.640226364135742,1.0900000000000007
-0.21101528406143188,2.3471155166625977,3.046596050262451,1.1000000000000008
0.38257211446762085,2.7152395248413086,3.1562137603759766,1.1100000000000008
1.2095527648925781,2.7014570236206055,3.156435966491699,1.1200000000000008
2.9057154655456543,2.0975723266601562,2.652090072631836,1.1300000000000008
4.191254615783691,1.5935354232788086,2.174456834793091,1.1400000000000008
5.12985372543335,1.4811277389526367,2.141754150390625,1.1500000000000008
5.277322769165039,1.5923223495483398,3.157209873199463,1.1600000000000008
4.597339153289795,1.5901908874511719,3.039672374725342,1.1700000000000008
3.0909183025360107,1.6370611190795898,0.8730140924453735,1.1800000000000008
3.120483160018921,1.6262311935424805,0.7518733739852905,1.1900000000000008
0.3136076331138611,1.6535005569458008,-2.715712308883667,1.2000000000000008
-1.1814570426940918,2.524378776550293,-4.831377983093262,1.2100000000000009
-2.9174418449401855,3.4206905364990234,-3.9640870094299316,1.2200000000000009
-4.418132781982422,3.4256982803344727,-0.3619784712791443,1.2300000000000009
-4.327212333679199,3.8324642181396484,1.5449836254119873,1.2400000000000009
-2.2995502948760986,5.177272796630859,1.2420209646224976,1.2500000000000009
-0.48813414573669434,6.0248308181762695,1.1730319261550903,1.260000000000001
0.6426846981048584,6.346617698669434,-0.34328359365463257,1.270000000000001
-0.024277091026306152,6.309334754943848,-2.9249520301818848,1.280000000000001
-1.2941176891326904,6.396522521972656,-5.058930397033691,1.290000000000001
-2.0079030990600586,5.846944808959961,-5.2060065269470215,1.300000000000001
-1.9369107484817505,4.42537784576416,-3.8666634559631348,1.310000000000001
-1.9280095100402832,2.644207000732422,-3.1487066745758057,1.320000000000001
-1.7837954759597778,0.4662208557128906,-2.324354410171509,1.330000000000001
-2.3651647567749023,-1.131627082824707,0.576263427734375,1.340000000000001
-2.8086917400360107,-2.442775249481201,3.737610340118408,1.350000000000001
-2.3085689544677734,-2.7562098503112793,2.7364988327026367,1.360000000000001
-0.6862276792526245,-2.2870893478393555,-0.702411413192749,1.370000000000001
0.8879007697105408,-2.387054920196533,-2.8930039405822754,1.380000000000001
1.9229984283447266,-2.8019962310791016,-3.9157421588897705,1.390000000000001
2.4890336990356445,-4.100430965423584,-3.649890184402466,1.400000000000001
2.928217887878418,-5.638382434844971,-2.477607250213623,1.410000000000001
2.676271438598633,-6.068938255310059,-1.2479753494262695,1.420000000000001
1.6515369415283203,-5.812525749206543,-1.2207379341125488,1.430000000000001
1.7665168046951294,-5.745932579040527,-1.3265018463134766,1.440000000000001
-0.435818076133728,-5.4776411056518555,-1.736234188079834,1.450000000000001
-1.0941797494888306,-4.857463836669922,-1.6317057609558105,1.460000000000001
-1.6849446296691895,-4.061568737030029,-1.4309990406036377,1.470000000000001
-1.994895339012146,-3.4154515266418457,-1.3293297290802002,1.480000000000001
-1.6415258646011353,-3.010809898376465,-1.428251028060913,1.490000000000001
-1.1592363119125366,-2.90305233001709,-1.55562162399292,1.500000000000001
-0.5227710008621216,-3.062516212463379,-1.216167688369751,1.5100000000000011
-0.015947341918945312,-3.4688329696655273,-0.17318010330200195,1.5200000000000011
0.14484882354736328,-3.873457908630371,1.3687419891357422,1.5300000000000011
0.3874690532684326,-3.9221343994140625,2.4099574089050293,1.5400000000000011
0.6770529747009277,-3.353268623352051,2.5752553939819336,1.5500000000000012
0.7120168209075928,-2.497498035430908,2.518332004547119,1.5600000000000012
0.30181002616882324,-0.9738068580627441,2.949937343597412,1.5700000000000012
0.34536242485046387,0.4656972885131836,2.95137357711792,1.5800000000000012
0.6276222467422485,1.9966926574707031,2.023029327392578,1.5900000000000012
0.4161984920501709,3.8929338455200195,1.0733890533447266,1.6000000000000012
-0.5775842666625977,6.787256240844727,1.6304378509521484,1.6100000000000012
-2.632624864578247,8.928584098815918,3.2369120121002197,1.6200000000000012
-3.9466195106506348,6.925044059753418,4.810628890991211,1.6300000000000012
-4.085236549377441,3.1572790145874023,4.927340507507324,1.6400000000000012
-4.701201438903809,0.12996387481689453,2.2574875354766846,1.6500000000000012
-4.5689215660095215,-0.9467449188232422,-0.34902429580688477,1.6600000000000013
-2.9149062633514404,3.913562774658203,-1.7218165397644043,1.6700000000000013
-3.5831732749938965,9.032583236694336,-4.4538373947143555,1.6800000000000013
-5.13284158706665,12.981013298034668,-8.561548233032227,1.6900000000000013
-3.1310372352600098,12.719210624694824,-9.258896827697754,1.7000000000000013
1.3752307891845703,8.076375961303711,-2.0319409370422363,1.7100000000000013
4.681917190551758,0.9276285171508789,5.785086631774902,1.7200000000000013
4.785231590270996,-5.906797885894775,1.1602754592895508,1.7300000000000013
3.829845428466797,-8.717461585998535,-5.610687255859375,1.7400000000000013
2.4588570594787598,-8.653761863708496,-9.407614707946777,1.7500000000000013
1.3060266971588135,-5.60982608795166,-7.4066314697265625,1.7600000000000013
1.7533793449401855,-1.3605761528015137,-3.2796218395233154,1.7700000000000014
2.6393847465515137,1.9726505279541016,-0.4898645877838135,1.7800000000000014
3.0484824180603027,4.197815895080566,0.5245671272277832,1.7900000000000014
2.544711112976074,4.027619361877441,0.023385286331176758,1.8000000000000014
1.606750726699829,2.038045883178711,-0.8982471227645874,1.8100000000000014
1.1203382015228271,-0.46056652069091797,-1.5706477165222168,1.8200000000000014
0.10393035411834717,-2.608189105987549,-1.7230055332183838,1.8300000000000014
-0.6910995841026306,-4.058616638183594,-1.9694596529006958,1.8400000000000014
-1.5765721797943115,-4.543900966644287,-1.938541293144226,1.8500000000000014
-1.8876757621765137,-3.8639893531799316,-1.729009985923767,1.8600000000000014
-1.7072200775146484,-2.752704620361328,-1.533845067024231,1.8700000000000014
-0.992125928401947,-1.60028076171875,-1.7014269828796387,1.8800000000000014
-0.1482553482055664,-0.798090934753418,-2.0189461708068848,1.8900000000000015
0.41571545600891113,-0.4375877380371094,-1.8636415004730225,1.9000000000000015
0.4434505105018616,-0.6435928344726562,-1.117462396621704,1.9100000000000015
0.4274771511554718,-1.1694660186767578,-0.3813265860080719,1.9200000000000015
0.6636536717414856,-1.8218860626220703,0.44080936908721924,1.9300000000000015
1.203371524810791,-2.263808250427246,1.0045242309570312,1.9400000000000015
1.7038273811340332,-2.382645606994629,0.7186880111694336,1.9500000000000015
1.9951767921447754,-2.003333568572998,0.04281638562679291,1.9600000000000015
2.215780019760132,-1.6261138916015625,-0.9284940361976624,1.9700000000000015
1.9512014389038086,-1.1866340637207031,-1.1084660291671753,1.9800000000000015
1.624333143234253,-0.7593584060668945,-0.3957548141479492,1.9900000000000015
1.4381351470947266,-0.3782014846801758,1.1595430374145508,2.0000000000000013
1.2184137105941772,-0.15108776092529297,2.6842494010925293,2.010000000000001
0.6656240224838257,-0.0924215316772461,3.5507137775421143,2.020000000000001
0.05104586482048035,-0.07029056549072266,3.0677897930145264,2.0300000000000007
-0.3133966624736786,-0.058066368103027344,2.263108491897583,2.0400000000000005
-0.5398444533348083,-0.007823944091796875,1.5681921243667603,2.0500000000000003
-0.35585570335388184,0.24277400970458984,1.687330722808838,2.06
0.44706660509109497,0.8916683197021484,2.4397213459014893,2.07
1.1968810558319092,1.729440689086914,2.900216817855835,2.0799999999999996
1.7904964685440063,2.546743392944336,2.7566163539886475,2.0899999999999994
2.4597513675689697,2.5960750579833984,2.7120094299316406,2.099999999999999
3.363797903060913,2.1907472610473633,2.5813865661621094,2.109999999999999
3.9031901359558105,2.0102977752685547,2.354717254638672,2.1199999999999988
4.000794887542725,1.8596582412719727,2.941537618637085,2.1299999999999986
3.918241024017334,1.8242053985595703,2.8298287391662598,2.1399999999999983
3.3140525817871094,2.2810401916503906,1.1136362552642822,2.149999999999998
2.5407705307006836,2.7068891525268555,-0.11542999744415283,2.159999999999998
1.9473912715911865,3.4704160690307617,-1.106115460395813,2.1699999999999977
0.8803756833076477,5.0700178146362305,-2.300959587097168,2.1799999999999975
-0.5857069492340088,6.089391708374023,-3.5238897800445557,2.1899999999999973
-1.5026925802230835,5.630576133728027,-3.2633254528045654,2.199999999999997
-2.8533506393432617,5.16728401184082,-1.8972980976104736,2.209999999999997
-3.8486499786376953,5.170793533325195,-0.8620461821556091,2.2199999999999966
-3.857776165008545,5.1439313888549805,-0.6647223234176636,2.2299999999999964
-3.0824666023254395,5.003761291503906,-1.978029727935791,2.239999999999996
-2.264828681945801,5.230463981628418,-2.6784794330596924,2.249999999999996
-1.7433350086212158,5.483911514282227,-2.6498703956604004,2.259999999999996
-1.6861785650253296,4.499520301818848,-3.041825294494629,2.2699999999999956
-1.4285717010498047,3.3175182342529297,-3.205265522003174,2.2799999999999954
-1.9192544221878052,1.9196929931640625,-3.0598831176757812,2.289999999999995
-2.3859262466430664,0.6293001174926758,-2.20302414894104,2.299999999999995
-2.440211534500122,-0.7570095062255859,-1.2884066104888916,2.3099999999999947
-2.039154052734375,-2.218533992767334,0.6523749828338623,2.3199999999999945
-1.3429585695266724,-3.477811813354492,2.3603177070617676,2.3299999999999943
-0.3059345483779907,-3.9816765785217285,1.0257766246795654,2.339999999999994
1.0309133529663086,-3.5881552696228027,-1.6132155656814575,2.349999999999994
2.137044906616211,-3.3971657752990723,-3.474365234375,2.3599999999999937
2.4623208045959473,-3.1321163177490234,-3.770261287689209,2.3699999999999934
2.889601230621338,-4.293300628662109,-3.151226043701172,2.3799999999999932
2.6826517581939697,-4.754072666168213,-1.5470573902130127,2.389999999999993
2.0463974475860596,-5.159158706665039,-1.158057451248169,2.399999999999993
0.6664861440658569,-4.896592140197754,-1.2640905380249023,2.4099999999999926
-0.7117656469345093,-4.604649543762207,-1.737187385559082,2.4199999999999924
-1.6110533475875854,-4.269608974456787,-1.8934988975524902,2.429999999999992
-2.239915370941162,-3.5500450134277344,-1.8540570735931396,2.439999999999992
-2.8885273933410645,-2.6839370727539062,-1.8508565425872803,2.4499999999999917
-3.136784076690674,-2.1270294189453125,-1.9264512062072754,2.4599999999999915
-3.0169754028320312,-1.854722023010254,-1.7303366661071777,2.4699999999999913
-2.546107292175293,-2.158003807067871,-0.9697389602661133,2.479999999999991
-1.9047621488571167,-2.7284598350524902,-0.03863239288330078,2.489999999999991
-1.2755323648452759,-3.401597499847412,0.8953042030334473,2.4999999999999907
-0.616362452507019,-3.9210996627807617,1.9010810852050781,2.5099999999999905
-0.08913302421569824,-3.9103217124938965,2.355693817138672,2.5199999999999902
0.4393739700317383,-3.453248977661133,2.2578930854797363,2.52999999999999
0.6681900024414062,-2.615644931793213,2.161095142364502,2.53999999999999
1.0200713872909546,-1.6908025741577148,2.4124350547790527,2.5499999999999896
1.499924898147583,-0.5243234634399414,3.102773904800415,2.5599999999999894
1.8345619440078735,0.8697776794433594,3.3263940811157227,2.569999999999989
1.7298059463500977,2.0370731353759766,3.3048439025878906,2.579999999999989
1.160172939300537,3.314692497253418,3.0169756412506104,2.5899999999999888
-0.5809184312820435,4.945682525634766,2.391387701034546,2.5999999999999885
-3.601263999938965,6.355555534362793,2.0949292182922363,2.6099999999999883
-5.432250499725342,5.271595001220703,2.4294495582580566,2.619999999999988
-5.0775251388549805,2.8148365020751953,2.6196815967559814,2.629999999999988
-5.3600850105285645,2.3295373916625977,1.6992011070251465,2.6399999999999877
-4.585192680358887,4.212399482727051,-0.575484037399292,2.6499999999999875
-3.7713823318481445,8.28709602355957,-2.1081509590148926,2.6599999999999873
-4.033082008361816,11.47083568572998,-6.287820816040039,2.669999999999987
-4.769426345825195,11.673399925231934,-10.724801063537598,2.679999999999987
-0.764428973197937,6.579751014709473,-6.678186416625977,2.6899999999999866
3.3938310146331787,1.426774024963379,1.4128949642181396,2.6999999999999864
4.694143295288086,-4.083862781524658,4.1432695388793945,2.709999999999986
4.782192230224609,-6.58555269241333,-2.03865647315979,2.719999999999986
4.012817859649658,-7.064992904663086,-7.598917007446289,2.7299999999999858
2.883308172225952,-5.258915901184082,-9.202970504760742,2.7399999999999856
2.728950023651123,-5.33113956451416,-9.060274124145508,2.7499999999999853
1.4622564315795898,1.4616632461547852,-2.848310947418213,2.759999999999985
1.3068195581436157,3.5483837127685547,0.19025802612304688,2.769999999999985
0.8208453059196472,3.7606687545776367,1.37803316116333,2.7799999999999847
0.26995646953582764,1.5680484771728516,1.0089828968048096,2.7899999999999845
0.6314701437950134,-1.2901935577392578,0.07942628860473633,2.7999999999999843
0.7605540752410889,-4.1082868576049805,-1.07694411277771,2.809999999999984
0.4664146602153778,-5.223525524139404,-2.1581695079803467,2.819999999999984
0.09777933359146118,-5.352262020111084,-2.9198055267333984,2.8299999999999836
-0.693558394908905,-4.1464033126831055,-3.0770516395568848,2.8399999999999834
-1.2207584381103516,-2.4913387298583984,-2.70979642868042,2.849999999999983
-0.6143278479576111,-1.4948930740356445,-1.7438249588012695,2.859999999999983
0.6977159976959229,-0.9524364471435547,-0.42875802516937256,2.869999999999983
1.1911745071411133,-0.5803632736206055,0.04004240036010742,2.8799999999999826
1.535393476486206,-0.5357589721679688,0.3965033292770386,2.8899999999999824
1.5141528844833374,-0.549138069152832,0.5330640077590942,2.899999999999982
1.208681344985962,-0.6706724166870117,0.2697870135307312,2.909999999999982
1.1543935537338257,-0.8043546676635742,0.8389056921005249,2.9199999999999817
1.4334582090377808,-1.0555925369262695,2.040799140930176,2.9299999999999815
1.691207766532898,-1.395956039428711,2.7123191356658936,2.9399999999999813
1.9510929584503174,-1.840134620666504,2.6826095581054688,2.949999999999981
1.8680613040924072,-2.124891757965088,2.0211048126220703,2.959999999999981
1.4874165058135986,-2.008236885070801,1.2242728471755981,2.9699999999999807
0.9796234369277954,-1.6646547317504883,0.6179819703102112,2.9799999999999804
0.455835223197937,-0.9668388366699219,0.9103009104728699,2.9899999999999802
0.19169995188713074,-0.3817291259765625,1.894515872001648,2.99999999999998
-0.20117217302322388,0.12178421020507812,2.8704946041107178,3.00999999999998
-0.6030896902084351,0.27800750732421875,3.0019924640655518,3.0199999999999796
-0.7701553106307983,0.35263824462890625,2.326190233230591,3.0299999999999794
-0.6914792060852051,0.2878761291503906,1.310291051864624,3.039999999999979
-0.3227687180042267,0.6383037567138672,0.5311678051948547,3.049999999999979
-0.11322355270385742,1.3330516815185547,0.9217699766159058,3.0599999999999787
0.46976345777511597,2.028226852416992,2.0334815979003906,3.0699999999999785
1.8214200735092163,2.0266380310058594,2.982306718826294,3.0799999999999783
3.2239882946014404,1.613718032836914,3.020655870437622,3.089999999999978
4.191432476043701,1.608407974243164,2.8344802856445312,3.099999999999978
4.766242027282715,2.4436445236206055,2.829206705093384,3.1099999999999777
4.709871292114258,3.376896858215332,2.6737284660339355,3.1199999999999775
4.098644733428955,4.338651657104492,1.0155467987060547,3.1299999999999772
3.100496530532837,5.345128059387207,-0.7030849456787109,3.139999999999977
1.731187105178833,6.421795845031738,-1.5621339082717896,3.149999999999977
0.6210170984268188,6.745372772216797,-1.8558562994003296,3.1599999999999766
0.7221973538398743,5.222294807434082,-2.195894241333008,3.1699999999999764
0.3058463931083679,3.8830156326293945,-3.0281190872192383,3.179999999999976
-0.9649316072463989,2.887481689453125,-3.613943338394165,3.189999999999976
-2.727855682373047,2.4312992095947266,-2.7629942893981934,3.1999999999999758
-4.373871803283691,2.988666534423828,-0.7528040409088135,3.2099999999999755
-4.205840110778809,3.5559511184692383,-1.333647608757019,3.2199999999999753
-2.946288824081421,2.9748287200927734,-2.533630847930908,3.229999999999975
-2.199673652648926,2.681264877319336,-1.4918067455291748,3.239999999999975
-1.831153392791748,2.41961669921875,-0.5322525501251221,3.2499999999999747
-1.9264100790023804,2.1202449798583984,-0.33638936281204224,3.2599999999999745
-2.139284610748291,2.196681022644043,-1.0361143350601196,3.2699999999999743
-1.8860564231872559,1.8475589752197266,-1.8330297470092773,3.279999999999974
-1.8436095714569092,0.8797407150268555,-2.19193172454834,3.289999999999974
-1.6162798404693604,-0.060294151306152344,-2.3667662143707275,3.2999999999999736
-0.9637762904167175,-1.1765966415405273,-1.9292367696762085,3.3099999999999734
-0.10193973779678345,-2.3917407989501953,-1.3156707286834717,3.319999999999973
0.4777643084526062,-2.925842761993408,-0.6188344955444336,3.329999999999973
1.1706655025482178,-3.0295019149780273,-0.5266976356506348,3.3399999999999728
1.4107296466827393,-3.1793689727783203,-0.804398775100708,3.3499999999999726
1.1174710988998413,-3.1088685989379883,-1.0308115482330322,3.3599999999999723
1.1162846088409424,-4.102819919586182,-2.576075792312622,3.369999999999972
1.1154077053070068,-4.600008964538574,-2.7557406425476074,3.379999999999972
0.8223549723625183,-4.670148849487305,-1.8026854991912842,3.3899999999999717
0.2758692502975464,-4.718010902404785,-1.2889628410339355,3.3999999999999715
-0.39801573753356934,-4.390670299530029,-1.6928927898406982,3.4099999999999713
-1.0680906772613525,-4.043103218078613,-1.9795379638671875,3.419999999999971
-1.5609956979751587,-3.615269660949707,-1.8868553638458252,3.429999999999971
-1.7346737384796143,-3.241821765899658,-1.8367741107940674,3.4399999999999706
-1.5293556451797485,-3.1577792167663574,-1.5827817916870117,3.4499999999999704
-1.2502787113189697,-3.410097122192383,-1.0955166816711426,3.45999999999997
-0.8946048021316528,-3.8047614097595215,-0.15988636016845703,3.46999999999997
-0.8087748289108276,-4.0735673904418945,0.9193768501281738,3.47999999999997
-0.6250362396240234,-4.392435073852539,1.8335490226745605,3.4899999999999696
-0.7477562427520752,-4.2773823738098145,1.9726853370666504,3.4999999999999694
-1.0269246101379395,-3.72719144821167,1.840616226196289,3.509999999999969
-1.0299077033996582,-2.9355978965759277,1.8654522895812988,3.519999999999969
-0.5743169784545898,-1.5596661567687988,2.6388025283813477,3.5299999999999687
-0.06340634822845459,-0.3318643569946289,2.9502453804016113,3.5399999999999685
0.5987285375595093,1.1641788482666016,2.0235040187835693,3.5499999999999683
1.2027711868286133,3.02321720123291,1.1455204486846924,3.559999999999968
1.0406564474105835,5.704251289367676,1.486215591430664,3.569999999999968
-0.6223764419555664,8.314619064331055,3.0965771675109863,3.5799999999999677
-2.5749363899230957,6.715169906616211,5.343152046203613,3.5899999999999674
-3.2500603199005127,3.460333824157715,5.835290908813477,3.5999999999999672
-4.474736213684082,-0.5479192733764648,3.9736058712005615,3.609999999999967
-4.688399314880371,-3.69580078125,1.047299861907959,3.619999999999967
-2.35548734664917,-2.9963717460632324,-0.8294415473937988,3.6299999999999666
-1.9927613735198975,2.8864364624023438,-2.525808334350586,3.6399999999999664
-2.726381540298462,10.389952659606934,-7.9625349044799805,3.649999999999966
-4.038406848907471,15.751631736755371,-11.019624710083008,3.659999999999966
-3.2628631591796875,19.344810485839844,-11.100067138671875,3.6699999999999657
0.9611939787864685,13.023159980773926,-1.8253204822540283,3.6799999999999655
2.177927017211914,1.579075813293457,8.391599655151367,3.6899999999999653
1.8816208839416504,-6.077299118041992,3.2936410903930664,3.699999999999965
1.5850646495819092,-10.246230125427246,-6.301342964172363,3.709999999999965
1.466050148010254,-10.871896743774414,-9.509702682495117,3.7199999999999647
1.8579180240631104,-7.608431816101074,-7.043000221252441,3.7299999999999645
3.1430749893188477,-1.8476495742797852,-2.081810474395752,3.7399999999999642
4.6249003410339355,2.062026023864746,-0.053026437759399414,3.749999999999964
5.188036918640137,4.6602067947387695,0.26117610931396484,3.759999999999964
4.073945999145508,4.657713890075684,-1.2816234827041626,3.7699999999999636
1.9300551414489746,2.6220083236694336,-2.451261043548584,3.7799999999999634
-0.1993471384048462,-0.9445705413818359,-3.3095366954803467,3.789999999999963
-1.9846724271774292,-3.681837558746338,-2.2001168727874756,3.799999999999963
-3.0888736248016357,-5.116034507751465,-1.3406713008880615,3.8099999999999627
-3.239781379699707,-5.162362575531006,-1.1267391443252563,3.8199999999999625
-2.7824835777282715,-4.450930595397949,-0.8769433498382568,3.8299999999999623
-1.9482696056365967,-3.572450637817383,-0.793335497379303,3.839999999999962
-1.00706148147583,-2.4544801712036133,-0.8569244742393494,3.849999999999962
-0.38028058409690857,-1.219552993774414,-1.3475837707519531,3.8599999999999617
0.6179314851760864,-0.4645509719848633,-1.6393715143203735,3.8699999999999615
1.333288311958313,-0.2593402862548828,-1.3639180660247803,3.8799999999999613
1.834399938583374,-0.5009651184082031,-0.39836788177490234,3.889999999999961
2.2199058532714844,-0.8164529800415039,0.5540404319763184,3.899999999999961
2.2473864555358887,-1.1463212966918945,1.7341521978378296,3.9099999999999606
2.1670684814453125,-1.157693862915039,2.386131763458252,3.9199999999999604
2.340897560119629,-1.573655128479004,1.8822929859161377,3.92999999999996
2.282069683074951,-1.927502155303955,0.6984924674034119,3.93999999999996
1.985883355140686,-2.0325369834899902,-0.3846115469932556,3.9499999999999598
1.6803312301635742,-1.6256885528564453,-0.23973557353019714,3.9599999999999596
1.2337126731872559,-0.9684982299804688,0.8863883018493652,3.9699999999999593
0.7591890096664429,-0.1858539581298828,2.4635820388793945,3.979999999999959
0.6173423528671265,0.35363292694091797,3.888026237487793,3.989999999999959
0.6397191882133484,0.5615949630737305,4.3555588722229,3.9999999999999587
0.8128443956375122,0.7782306671142578,3.5095250606536865,4.009999999999959
0.8668196797370911,1.0011014938354492,2.499814033508301,4.019999999999959
0.9235368967056274,1.3970975875854492,1.5106638669967651,4.0299999999999585
1.0058305263519287,1.9652843475341797,1.2442495822906494,4.039999999999958
0.9940164089202881,2.7092390060424805,1.8135557174682617,4.049999999999958
1.014467477798462,3.1919374465942383,2.8279645442962646,4.059999999999958
1.0076228380203247,3.156308174133301,3.5985107421875,4.069999999999958
1.0342965126037598,2.6858034133911133,3.4112234115600586,4.079999999999957
1.2871119976043701,2.1346445083618164,2.614222288131714,4.089999999999957
1.7080180644989014,1.8429317474365234,0.7868653535842896,4.099999999999957
2.083606004714966,1.8354272842407227,-1.095942497253418,4.109999999999957
2.3634490966796875,2.3403234481811523,-2.3613739013671875,4.119999999999957
1.909622311592102,3.847400665283203,-4.251462459564209,4.129999999999956
1.1016778945922852,5.2144060134887695,-4.7476277351379395,4.139999999999956
0.1538299322128296,6.111852645874023,-2.460482597351074,4.149999999999956
-1.567916989326477,7.149652481079102,0.4489890933036804,4.159999999999956
-2.7071533203125,7.246728897094727,2.0553035736083984,4.1699999999999555
-2.7564687728881836,4.626466751098633,1.9858136177062988,4.179999999999955
-3.644986152648926,3.406466484069824,0.11605077981948853,4.189999999999955
-4.079627513885498,3.927074432373047,-2.7882304191589355,4.199999999999955
-2.6608147621154785,4.368426322937012,-5.461012363433838,4.209999999999955
-0.8942273855209351,4.380046844482422,-4.868371486663818,4.2199999999999545
0.315737247467041,3.6736984252929688,-4.048519134521484,4.229999999999954
0.6595085263252258,2.0585947036743164,-3.5091865062713623,4.239999999999954
-0.20673149824142456,-0.5185260772705078,-2.0012574195861816,4.249999999999954
-1.4469748735427856,-1.9616951942443848,0.2991759777069092,4.259999999999954
-2.292018413543701,-2.963522434234619,3.5274903774261475,4.269999999999953
-2.308338165283203,-3.3313732147216797,2.9934072494506836,4.279999999999953
-1.829796314239502,-2.9869494438171387,0.25769782066345215,4.289999999999953
-0.5978106260299683,-2.7549309730529785,-2.259915828704834,4.299999999999953
0.939518392086029,-2.7556538581848145,-3.459064483642578,4.3099999999999525
1.6118100881576538,-2.905582904815674,-3.1252856254577637,4.319999999999952
2.252702474594116,-3.9503536224365234,-2.423365592956543,4.329999999999952
1.5490756034851074,-4.155527114868164,-1.02815580368042,4.339999999999952
0.9412482380867004,-4.291944980621338,-1.098243236541748,4.349999999999952
0.32968372106552124,-4.224063873291016,-1.6021199226379395,4.3599999999999515
-0.02170097827911377,-4.169872283935547,-2.089524984359741,4.369999999999951
-0.25885868072509766,-4.294541835784912,-2.2330684661865234,4.379999999999951
-0.6027271747589111,-4.312983989715576,-2.2138562202453613,4.389999999999951
-0.8278697729110718,-4.374303817749023,-2.1172878742218018,4.399999999999951
-1.0456098318099976,-4.327554702758789,-1.511596441268921,4.40999999999995
-1.1250277757644653,-4.197901725769043,-0.7543678283691406,4.41999999999995
-1.0864312648773193,-4.227947235107422,0.22484588623046875,4.42999999999995
-0.8301546573638916,-4.404887676239014,0.7853188514709473,4.43999999999995
-0.48708128929138184,-4.436027526855469,1.0024690628051758,4.4499999999999496
0.1742870807647705,-4.007476329803467,0.8007535934448242,4.459999999999949
0.5572983026504517,-3.355510711669922,0.6943573951721191,4.469999999999949
0.7360396981239319,-2.4085464477539062,1.6126148700714111,4.479999999999949
0.5615675449371338,-0.7580900192260742,3.230090856552124,4.489999999999949
0.3769528865814209,0.6853485107421875,3.3275206089019775,4.4999999999999485
0.2448674440383911,2.3286571502685547,2.0337016582489014,4.509999999999948
-0.5022302865982056,4.111328125,1.2341694831848145,4.519999999999948
-2.607150077819824,6.487723350524902,2.1963047981262207,4.529999999999948
-5.070013999938965,9.179940223693848,4.094878673553467,4.539999999999948
-4.441895484924316,7.3313703536987305,5.135068893432617,4.549999999999947
-3.245361804962158,3.3316287994384766,5.074767112731934,4.559999999999947
-2.78131103515625,-1.2778749465942383,4.730599403381348,4.569999999999947
-1.5614241361618042,-3.8511099815368652,3.076313018798828,4.579999999999947
0.23990309238433838,-2.320993423461914,0.209686279296875,4.589999999999947
-1.0437595844268799,4.950281143188477,-1.9145349264144897,4.599999999999946
-2.119997501373291,11.644682884216309,-8.413028717041016,4.609999999999946
-3.650195837020874,15.449707984924316,-10.180455207824707,4.619999999999946
-1.9969570636749268,15.545209884643555,-8.271125793457031,4.629999999999946
1.7113069295883179,8.42688274383545,0.023640155792236328,4.6399999999999455
2.9761416912078857,-1.504591464996338,6.007878303527832,4.649999999999945
2.7183995246887207,-7.374420642852783,0.10155916213989258,4.659999999999945
2.6654510498046875,-10.358194351196289,-7.059618949890137,4.669999999999945
2.2157421112060547,-9.83979320526123,-8.532444953918457,4.679999999999945
1.9471807479858398,-6.1136298179626465,-5.574260711669922,4.689999999999944
3.065631866455078,-1.3193306922912598,-2.0261778831481934,4.699999999999944
3.7183923721313477,2.2741994857788086,-0.38216543197631836,4.709999999999944
3.490020751953125,4.826957702636719,0.36288881301879883,4.719999999999944
2.22811222076416,5.2082014083862305,-0.2842113971710205,4.729999999999944
0.798102617263794,3.4622936248779297,-1.5967353582382202,4.739999999999943
-0.5143000483512878,0.13130474090576172,-3.0112385749816895,4.749999999999943
-1.3062199354171753,-3.0171899795532227,-3.327768564224243,4.759999999999943
-1.4427121877670288,-5.219978332519531,-2.7362477779388428,4.769999999999943
-1.7039653062820435,-5.758504867553711,-2.2034049034118652,4.7799999999999425
-2.2522940635681152,-4.569214344024658,-1.9244648218154907,4.789999999999942
-2.1188268661499023,-3.031555652618408,-1.7719550132751465,4.799999999999942
-0.8958061933517456,-1.2211666107177734,-1.5173957347869873,4.809999999999942
0.2037409543991089,-0.027372360229492188,-1.9075170755386353,4.819999999999942
1.255946159362793,0.04389476776123047,-2.1994330883026123,4.8299999999999415
1.6045582294464111,-0.5362949371337891,-2.243417501449585,4.839999999999941
1.5323224067687988,-1.3387861251831055,-1.8078982830047607,4.849999999999941
1.3378539085388184,-1.6088142395019531,-0.9630964398384094,4.859999999999941
1.1585348844528198,-1.3584709167480469,0.3996445834636688,4.869999999999941
1.3260565996170044,-0.7629203796386719,2.007002353668213,4.87999999999994
1.7419230937957764,-0.3326244354248047,3.501948595046997,4.88999999999994
2.303257465362549,-0.3626279830932617,4.0954976081848145,4.89999999999994
2.673612594604492,-0.6616659164428711,3.456993341445923,4.90999999999994
2.59716534614563,-1.0598220825195312,1.972496747970581,4.9199999999999395
2.0155599117279053,-1.2576828002929688,0.0728616714477539,4.929999999999939
1.3208340406417847,-1.4608135223388672,-1.6746275424957275,4.939999999999939
0.6496201753616333,-1.271566390991211,-1.2670502662658691,4.949999999999939
0.033261269330978394,-0.6373348236083984,0.7117071151733398,4.959999999999939
-0.4102597236633301,0.340850830078125,2.9605729579925537,4.9699999999999385
-0.5480656027793884,0.9537124633789062,3.927335023880005,4.979999999999938
-0.2133609652519226,1.1986751556396484,4.000159740447998,4.989999999999938
0.49693596363067627,1.2050771713256836,3.238919496536255,4.999999999999938
1.270308494567871,1.4107427597045898,2.4144115447998047,5.009999999999938
1.8209123611450195,1.6734189987182617,1.7348564863204956,5.019999999999937
2.101837158203125,1.700277328491211,1.8160138130187988,5.029999999999937
2.2027034759521484,1.576859474182129,2.1665451526641846,5.039999999999937
2.2093801498413086,1.4062957763671875,2.5852694511413574,5.049999999999937
2.0515217781066895,1.4050216674804688,3.0993118286132812,5.0599999999999365
2.033144950866699,1.6327199935913086,2.964249849319458,5.069999999999936
1.960532307624817,2.1668100357055664,1.3548954725265503,5.079999999999936
1.838714361190796,2.954298973083496,-0.5712845325469971,5.089999999999936
1.4502699375152588,3.936769485473633,-1.124179482460022,5.099999999999936
1.4317760467529297,5.019115447998047,-1.8010300397872925,5.1099999999999355
1.193380355834961,4.959954261779785,-3.0129737854003906,5.119999999999935
0.878205418586731,3.733241081237793,-3.3869078159332275,5.129999999999935
-0.1380462646484375,3.4015674591064453,-2.470308780670166,5.139999999999935
-2.236250162124634,3.711289405822754,-1.0348613262176514,5.149999999999935
-3.617158889770508,3.7297677993774414,-0.7072386741638184,5.159999999999934
-4.324676990509033,4.180996894836426,-0.9568877816200256,5.169999999999934
-3.7820682525634766,5.200996398925781,-1.1845492124557495,5.179999999999934
-2.5238513946533203,5.287228584289551,-1.439629316329956,5.189999999999934
-2.6088733673095703,5.299460411071777,-1.6598126888275146,5.199999999999934
-1.2956798076629639,3.8549184799194336,-2.923865795135498,5.209999999999933
-1.1212722063064575,2.9923582077026367,-3.5393285751342773,5.219999999999933
-1.1169967651367188,1.5192089080810547,-3.590290069580078,5.229999999999933
-1.3808095455169678,0.07012653350830078,-3.4265708923339844,5.239999999999933
-1.1805236339569092,-1.5311651229858398,-2.329875946044922,5.2499999999999325
-0.884983479976654,-3.111663818359375,0.2145843505859375,5.259999999999932
-0.23995250463485718,-5.1331329345703125,1.9285712242126465,5.269999999999932
0.47549140453338623,-4.99504280090332,1.2999517917633057,5.279999999999932
1.4042240381240845,-4.361480712890625,-0.44281864166259766,5.289999999999932
1.6351683139801025,-3.4270386695861816,-1.6002837419509888,5.299999999999931
1.4088834524154663,-2.9839067459106445,-1.7833539247512817,5.309999999999931
1.519271969795227,-3.3941006660461426,-1.9625256061553955,5.319999999999931
0.7042528390884399,-3.5765457153320312,-1.3637690544128418,5.329999999999931
-0.10309576988220215,-3.4267849922180176,-1.2647991180419922,5.339999999999931
-0.7763974666595459,-3.297797679901123,-1.3480865955352783,5.34999999999993
-1.0362858772277832,-3.2858686447143555,-1.3144335746765137,5.35999999999993
-1.1795122623443604,-3.3946924209594727,-1.2863140106201172,5.36999999999993
-1.6217023134231567,-3.423900604248047,-1.4383056163787842,5.37999999999993
-2.0173933506011963,-3.2925686836242676,-1.3363635540008545,5.3899999999999295
-2.1137912273406982,-3.167914390563965,-0.9139518737792969,5.399999999999929
-2.018212080001831,-3.082359790802002,-0.506638765335083,5.409999999999929
-1.5971487760543823,-3.257761001586914,-0.10820198059082031,5.419999999999929
-1.1275604963302612,-3.684347629547119,0.3258175849914551,5.429999999999929
-0.8672268390655518,-4.008947849273682,0.6964764595031738,5.4399999999999284
-0.41057586669921875,-3.9292826652526855,1.3247861862182617,5.449999999999928
-0.045420289039611816,-3.6206746101379395,1.5755925178527832,5.459999999999928
0.21921896934509277,-2.927934169769287,1.6355435848236084,5.469999999999928
0.4498097896575928,-1.8329591751098633,1.581617832183838,5.479999999999928
0.21178960800170898,-0.5999317169189453,1.4581806659698486,5.489999999999927
-0.4709341526031494,0.6265029907226562,1.540036916732788,5.499999999999927
-1.0450785160064697,2.0275697708129883,1.9789607524871826,5.509999999999927
-1.286192774772644,3.4401235580444336,2.4974584579467773,5.519999999999927
-1.1134272813796997,5.3876953125,3.530283212661743,5.5299999999999265
-0.8035088777542114,6.424455642700195,4.8829345703125,5.539999999999926
-0.23606717586517334,4.399691581726074,5.371081829071045,5.549999999999926
-0.4964715242385864,2.24587345123291,4.988884449005127,5.559999999999926
-1.1989116668701172,0.34043312072753906,2.4909675121307373,5.569999999999926
-1.414809226989746,2.2863359451293945,0.6140952110290527,5.5799999999999255
-1.5546886920928955,7.166297912597656,-0.21673917770385742,5.589999999999925
-0.6470737457275391,13.64884090423584,-3.148240089416504,5.599999999999925
-3.886671543121338,18.801856994628906,-6.702719688415527,5.609999999999925
-7.933562278747559,15.643086433410645,-12.873198509216309,5.619999999999925
-2.3057055473327637,-1.2129082679748535,-5.971647262573242,5.629999999999924
1.1331260204315186,-9.54456901550293,2.3126893043518066,5.639999999999924
2.415663242340088,-12.518658638000488,0.42543888092041016,5.649999999999924
2.2676281929016113,-11.616055488586426,-3.3916263580322266,5.659999999999924
1.8098156452178955,-7.5861897468566895,-3.988612174987793,5.6699999999999235
2.2072365283966064,-1.9461398124694824,-2.474973678588867,5.679999999999923
3.5638389587402344,3.241082191467285,-1.2709290981292725,5.689999999999923
4.047801971435547,6.351701736450195,-1.8002654314041138,5.699999999999923
4.139359474182129,8.380773544311523,-2.8726534843444824,5.709999999999923
2.951606273651123,7.025504112243652,-4.021929740905762,5.7199999999999225
1.5683550834655762,1.9350528717041016,-3.8316779136657715,5.729999999999922
0.6187200546264648,-3.3815488815307617,-2.0744028091430664,5.739999999999922
0.11153551936149597,-7.209683895111084,-1.4990200996398926,5.749999999999922
-0.6651583909988403,-7.764935493469238,-1.3145532608032227,5.759999999999922
-1.9595060348510742,-6.581212997436523,-0.6590546369552612,5.769999999999921
-4.0811944007873535,-4.060641765594482,-0.11819219589233398,5.779999999999921
-3.620633125305176,-1.7786712646484375,0.004080414772033691,5.789999999999921
-1.2584991455078125,-0.48600196838378906,-0.21133136749267578,5.799999999999921
0.23456008732318878,0.15637683868408203,-0.6516070365905762,5.809999999999921
0.965435802936554,-0.22009754180908203,-1.0602833032608032,5.81999999999992
1.257920503616333,-0.8395910263061523,-1.49568510055542,5.82999999999992
1.1725242137908936,-1.443415641784668,-1.7849102020263672,5.83999999999992
1.1731382608413696,-1.5794038772583008,-1.6467894315719604,5.84999999999992
1.493820309638977,-1.5926265716552734,-0.8920794725418091,5.8599999999999195
1.7575770616531372,-1.4068479537963867,0.41226184368133545,5.869999999999919
1.884534239768982,-1.266982078552246,1.7092087268829346,5.879999999999919
1.8684114217758179,-1.3005599975585938,2.4721646308898926,5.889999999999919
1.6761435270309448,-1.014627456665039,2.1562774181365967,5.899999999999919
1.6993956565856934,-0.3876314163208008,1.5417027473449707,5.909999999999918
1.649337887763977,0.13737106323242188,1.7467554807662964,5.919999999999918
1.3403019905090332,0.119659423828125,2.4397292137145996,5.929999999999918
0.9632349610328674,-0.30673789978027344,2.716975688934326,5.939999999999918
0.5969191789627075,-0.6553459167480469,2.856358289718628,5.949999999999918
0.4633182883262634,-0.6386585235595703,2.618819236755371,5.959999999999917
0.28090500831604004,-0.12962818145751953,2.052382469177246,5.969999999999917
-0.00737270712852478,0.5198040008544922,1.53090500831604,5.979999999999917
-0.575473964214325,1.314229965209961,1.3425863981246948,5.989999999999917
-0.816531777381897,1.773773193359375,1.7041267156600952,5.9999999999999165
-0.7708945274353027,2.172151565551758,2.1077706813812256,6.009999999999916
-0.29557156562805176,2.2782812118530273,2.3711752891540527,6.019999999999916
0.17927780747413635,2.0241918563842773,2.615184783935547,6.029999999999916
0.6424262523651123,1.5000877380371094,2.6006226539611816,6.039999999999916
1.139404296875,0.9289979934692383,1.2088241577148438,6.0499999999999154
1.6643867492675781,0.8415412902832031,-0.6350374221801758,6.059999999999915
2.1068575382232666,1.2264900207519531,-1.787771463394165,6.069999999999915
2.014422655105591,2.850269317626953,-1.932159185409546,6.079999999999915
1.3722277879714966,5.352269172668457,-2.889864921569824,6.089999999999915
0.4144805669784546,7.3139543533325195,-3.3573901653289795,6.099999999999914
-0.23307758569717407,6.574227333068848,-1.322231411933899,6.109999999999914
-1.1570765972137451,5.395685195922852,-0.2548801898956299,6.119999999999914
-2.322587490081787,4.863580703735352,0.25782477855682373,6.129999999999914
-2.7815842628479004,4.292878150939941,0.5494838356971741,6.1399999999999135
-2.884943962097168,4.194217681884766,-0.5522112250328064,6.149999999999913
-2.976078987121582,4.727649688720703,-2.9495348930358887,6.159999999999913
-2.349064588546753,5.063841819763184,-4.85260534286499,6.169999999999913
-1.3348863124847412,4.954545974731445,-4.418845176696777,6.179999999999913
-0.7620535492897034,3.967799186706543,-3.3006820678710938,6.1899999999999125
-0.6364353895187378,2.4268198013305664,-2.7021188735961914,6.199999999999912
-0.9870904088020325,0.3941078186035156,-2.0539307594299316,6.209999999999912
-1.8358323574066162,-1.608184814453125,-0.6751556396484375,6.219999999999912
-2.3880434036254883,-3.193538188934326,1.403205156326294,6.229999999999912
-2.0130062103271484,-3.664858341217041,1.9878637790679932,6.239999999999911
-1.3860589265823364,-2.9368605613708496,0.641573429107666,6.249999999999911
0.0935826301574707,-2.792208671569824,-2.217593193054199,6.259999999999911
1.223868727684021,-3.0307207107543945,-3.6297576427459717,6.269999999999911
1.9168405532836914,-3.485102653503418,-3.5549936294555664,6.2799999999999105
2.2140164375305176,-4.107071876525879,-2.0134787559509277,6.28999999999991
1.405059814453125,-3.803760051727295,-0.9488201141357422,6.29999999999991
0.4393790364265442,-3.7190799713134766,0.11346268653869629,6.30999999999991
0.2862548828125,-3.835942268371582,-1.5261731147766113,6.31999999999991
-0.16499114036560059,-3.746971607208252,-2.6046080589294434,6.3299999999999095
-0.5402357578277588,-3.8981094360351562,-2.791261672973633,6.339999999999909
-0.8325707912445068,-3.7468314170837402,-2.1336591243743896,6.349999999999909
-0.8768504858016968,-3.463578224182129,-1.8221673965454102,6.359999999999909
-1.273147463798523,-3.2847414016723633,-1.7543206214904785,6.369999999999909
-1.5469543933868408,-3.1879730224609375,-1.5033860206604004,6.379999999999908
-1.7684212923049927,-3.070706844329834,-0.9804177284240723,6.389999999999908
-1.7393603324890137,-3.1628336906433105,-0.22762012481689453,6.399999999999908
-1.3297797441482544,-3.2864561080932617,0.5768899917602539,6.409999999999908
-1.0833766460418701,-3.328925132751465,1.0381250381469727,6.419999999999908
-0.8441239595413208,-3.2311882972717285,1.4472169876098633,6.429999999999907
-0.5966383218765259,-2.914778709411621,1.609346628189087,6.439999999999907
-0.43129968643188477,-2.2941198348999023,1.546342134475708,6.449999999999907
-0.201086163520813,-1.6274542808532715,1.5160470008850098,6.459999999999907
-0.028386235237121582,-0.6165800094604492,1.7839348316192627,6.4699999999999065
-0.01536548137664795,0.6109189987182617,1.7958319187164307,6.479999999999906
0.22641265392303467,2.371096611022949,1.7160744667053223,6.489999999999906
0.6565009951591492,4.500995635986328,2.206360101699829,6.499999999999906
0.899094820022583,6.073685646057129,3.2862331867218018,6.509999999999906
-0.24167895317077637,6.7243547439575195,4.193052768707275,6.519999999999905
-1.7648108005523682,5.188982963562012,4.220553398132324,6.529999999999905
-2.8664064407348633,3.1200742721557617,3.173861503601074,6.539999999999905
-3.910715103149414,1.348433494567871,0.707042932510376,6.549999999999905
-3.642869472503662,3.179532051086426,-0.8458001613616943,6.559999999999905
-3.358607292175293,7.694725036621094,-2.008915424346924,6.569999999999904
-3.2797322273254395,11.796689987182617,-4.849944114685059,6.579999999999904
-4.68740177154541,12.723143577575684,-7.982989311218262,6.589999999999904
-2.4868946075439453,8.013795852661133,-8.15086555480957,6.599999999999904
1.669844627380371,0.6894779205322266,-1.854012370109558,6.6099999999999035
4.09959077835083,-4.886185646057129,2.3639721870422363,6.619999999999903
4.720928192138672,-7.49467658996582,-0.32732677459716797,6.629999999999903
4.620175838470459,-7.835021018981934,-3.808084011077881,6.639999999999903
3.246713638305664,-5.465557098388672,-5.5691375732421875,6.649999999999903
3.0358033180236816,-2.5851149559020996,-4.7955546379089355,6.659999999999902
2.923793315887451,1.1183624267578125,-2.953702211380005,6.669999999999902
2.3362865447998047,4.284147262573242,-0.9879555702209473,6.679999999999902
1.5646638870239258,6.085771560668945,-0.4039273262023926,6.689999999999902
-0.04398953914642334,5.730745315551758,-0.8201346397399902,6.699999999999902
-1.8301186561584473,2.5046253204345703,-1.6297773122787476,6.709999999999901
-1.007805347442627,-1.1705245971679688,-1.543846845626831,6.719999999999901
-1.4271650314331055,-3.5902462005615234,-0.9017002582550049,6.729999999999901
-1.677618384361267,-4.823625564575195,-1.414650559425354,6.739999999999901
-1.8691726922988892,-4.967210292816162,-1.9088971614837646,6.7499999999999005
-1.7455130815505981,-4.139353275299072,-2.030092477798462,6.7599999999999
-0.7746568322181702,-1.4732255935668945,-1.8164795637130737,6.7699999999999
-0.09115993976593018,0.1961193084716797,-1.8900507688522339,6.7799999999999
0.7060776352882385,1.130645751953125,-2.16919207572937,6.7899999999999
1.7601807117462158,0.9905405044555664,-2.0202951431274414,6.7999999999998995
1.5263607501983643,0.32260704040527344,-2.1898016929626465,6.809999999999899
1.0922359228134155,-0.10532379150390625,-2.137277841567993,6.819999999999899
0.9024887084960938,-0.8128204345703125,-1.990837812423706,6.829999999999899
0.6239237785339355,-1.4671039581298828,-2.205778121948242,6.839999999999899
0.8687850832939148,-1.8600940704345703,-1.8610025644302368,6.849999999999898
0.28951647877693176,-1.707052230834961,-1.1830029487609863,6.859999999999898
0.2851807475090027,-1.1090621948242188,-0.8525729179382324,6.869999999999898
0.1529751420021057,-0.14110183715820312,0.9682120084762573,6.879999999999898
-0.6451346278190613,0.0668487548828125,3.235785484313965,6.8899999999998975
-0.8645337224006653,0.140228271484375,4.71367883682251,6.899999999999897
-0.7635787129402161,0.17413902282714844,4.580998420715332,6.909999999999897
-0.2342190146446228,0.0036859512329101562,2.9996986389160156,6.919999999999897
0.43252032995224,-0.29468822479248047,1.9165703058242798,6.929999999999897
1.0163606405258179,-0.8179311752319336,1.2185393571853638,6.9399999999998965
1.9524885416030884,-1.5728425979614258,0.34314393997192383,6.949999999999896
2.4650769233703613,-1.6952323913574219,-0.8340600728988647,6.959999999999896
2.0219013690948486,-1.1874170303344727,-2.235649824142456,6.969999999999896
1.2711790800094604,-1.031148910522461,-2.6957502365112305,6.979999999999896
0.06874746084213257,-1.3287181854248047,-1.9732553958892822,6.989999999999895
-0.7913109064102173,-1.6239776611328125,-0.5369781255722046,6.999999999999895
-0.14866024255752563,-1.959704875946045,1.5988476276397705,7.009999999999895
1.0625946521759033,-2.2691574096679688,2.415043354034424,7.019999999999895
1.4383270740509033,-2.093933582305908,2.2044498920440674,7.0299999999998946
1.0699260234832764,-1.230454444885254,0.5740559101104736,7.039999999999894
0.21853125095367432,0.0054473876953125,-2.0740959644317627,7.049999999999894
-0.36210179328918457,1.3761634826660156,-4.008579254150391,7.059999999999894
-1.476524829864502,3.4325428009033203,-4.951845645904541,7.069999999999894
-3.2628774642944336,5.08338737487793,-4.250969886779785,7.0799999999998935
-4.077986717224121,6.739052772521973,-1.6064980030059814,7.089999999999893
-2.598900318145752,7.571317672729492,1.2609094381332397,7.099999999999893
-0.20272505283355713,8.252378463745117,1.4550354480743408,7.109999999999893
1.1125742197036743,8.270231246948242,-0.37915515899658203,7.119999999999893
0.7279394865036011,6.663854598999023,-3.129063129425049,7.129999999999892
-0.13706719875335693,4.765921592712402,-4.543221473693848,7.139999999999892
-0.8835254907608032,2.354708671569824,-4.932877540588379,7.149999999999892
-2.1948418617248535,0.18802165985107422,-4.184904098510742,7.159999999999892
-3.7044200897216797,-0.42088794708251953,-2.2409350872039795,7.169999999999892
-4.926408290863037,-0.6009578704833984,0.19584131240844727,7.179999999999891
-5.1490702629089355,-0.4222984313964844,1.5033276081085205,7.189999999999891
-4.46176290512085,-0.010668754577636719,0.7651267051696777,7.199999999999891
-3.1318304538726807,0.6045932769775391,-0.8002891540527344,7.209999999999891
-1.7644562721252441,0.9804887771606445,-2.1390273571014404,7.2199999999998905
-0.16034454107284546,0.6723861694335938,-2.7315499782562256,7.22999999999989
0.8971917033195496,0.09252452850341797,-3.0954856872558594,7.23999999999989
1.4896585941314697,-0.543370246887207,-3.2950282096862793,7.24999999999989
1.4822335243225098,-0.8853788375854492,-3.2815871238708496,7.25999999999989
0.8071428537368774,-1.028813362121582,-3.0786569118499756,7.269999999999889
-0.007972776889801025,-0.9496335983276367,-2.6358911991119385,7.279999999999889
-0.8795775771141052,-0.8010740280151367,-2.1400136947631836,7.289999999999889
-1.3342058658599854,-0.7843599319458008,-1.9234968423843384,7.299999999999889
-1.2902371883392334,-0.7758913040161133,-1.9361084699630737,7.309999999999889
-1.2529683113098145,-0.7435150146484375,-2.6662988662719727,7.319999999999888
-1.224403738975525,-0.8690557479858398,-2.5963430404663086,7.329999999999888
-1.116986870765686,-1.0779962539672852,-1.5910148620605469,7.339999999999888
-0.7665684223175049,-1.3282737731933594,-0.20579957962036133,7.349999999999888
-0.22256624698638916,-1.557325839996338,0.6695578098297119,7.3599999999998875
0.5616220831871033,-1.7650365829467773,0.7962615489959717,7.369999999999887
0.7289315462112427,-1.5897879600524902,0.44786524772644043,7.379999999999887
0.45783066749572754,-1.1562166213989258,-0.22156524658203125,7.389999999999887
0.009051203727722168,-0.38938045501708984,-0.61649489402771,7.399999999999887
-0.11176443099975586,0.34427833557128906,-0.9352343082427979,7.4099999999998865
-0.19250166416168213,0.7922153472900391,-1.4007995128631592,7.419999999999886
-0.0964287519454956,0.5845022201538086,-2.2198197841644287,7.429999999999886
-0.2580820322036743,0.06680011749267578,-2.7119741439819336,7.439999999999886
-0.6325854063034058,-0.6849374771118164,-2.8386824131011963,7.449999999999886
-1.0392011404037476,-1.382582664489746,-1.8474653959274292,7.459999999999885
-1.2461084127426147,-2.1603283882141113,-0.2231966257095337,7.469999999999885
-0.909881591796875,-3.3540916442871094,1.8514690399169922,7.479999999999885
-0.21408510208129883,-4.138045310974121,2.832469940185547,7.489999999999885
0.32983899116516113,-4.159611225128174,1.7135705947875977,7.4999999999998845
0.6272806525230408,-3.0755414962768555,-0.7031105756759644,7.509999999999884
1.232482671737671,-1.2627754211425781,-1.8732969760894775,7.519999999999884
1.9253239631652832,1.1062984466552734,-1.9162654876708984,7.529999999999884
1.461681604385376,3.6807050704956055,-1.1814188957214355,7.539999999999884
1.4390522241592407,3.671142578125,-1.1430046558380127,7.5499999999998835
-1.515723466873169,7.434857368469238,0.5193699598312378,7.559999999999883
-2.5237252712249756,5.8434247970581055,0.0851668119430542,7.569999999999883
-2.3405680656433105,1.7769546508789062,-1.3189060688018799,7.579999999999883
-1.38376784324646,-1.1233673095703125,-2.9682624340057373,7.589999999999883
-0.11776316165924072,-2.3595361709594727,-3.868381977081299,7.599999999999882
0.09239345788955688,-2.1389713287353516,-3.0758771896362305,7.609999999999882
-0.32799196243286133,-1.5183792114257812,-1.4354606866836548,7.619999999999882
-0.23486775159835815,-1.1192350387573242,-0.30071866512298584,7.629999999999882
-0.1037399172782898,-0.7035951614379883,-0.5529714822769165,7.6399999999998816
0.24464213848114014,-0.09653472900390625,-1.4462450742721558,7.649999999999881
0.8555076122283936,0.45519447326660156,-1.8661565780639648,7.659999999999881
1.2195451259613037,0.813751220703125,-1.471215009689331,7.669999999999881
0.9151659607887268,0.6737136840820312,-1.0057594776153564,7.679999999999881
0.5560081005096436,0.2936725616455078,-0.9734766483306885,7.6899999999998805
-0.10422289371490479,0.5377101898193359,-1.3369125127792358,7.69999999999988
-0.02982795238494873,0.4031944274902344,-1.6594668626785278,7.70999999999988
0.2589910626411438,0.2307300567626953,-1.5377202033996582,7.71999999999988
0.1505526304244995,0.39423274993896484,-1.0064173936843872,7.72999999999988
0.10507440567016602,0.2642364501953125,-0.5273799896240234,7.739999999999879
-0.055468857288360596,0.24520301818847656,-0.1554000973701477,7.749999999999879
0.30791282653808594,-0.22813987731933594,-0.028111815452575684,7.759999999999879
0.1967671513557434,0.23278045654296875,-0.5541265606880188,7.769999999999879
0.3259925842285156,0.5027065277099609,-0.6914047598838806,7.779999999999879
0.32544898986816406,0.5008735656738281,-0.6749171614646912,7.789999999999878
0.5008812546730042,0.5086822509765625,-0.44281721115112305,7.799999999999878
-0.3602566123008728,0.7484378814697266,-1.2339210510253906,7.809999999999878
0.5329170823097229,-0.11107349395751953,-1.0233157873153687,7.819999999999878
0.6746825575828552,-0.56109619140625,-1.0200401544570923,7.8299999999998775
0.6346675157546997,-0.6899023056030273,-1.3965996503829956,7.839999999999877
0.6166703104972839,-0.7413244247436523,-1.5792927742004395,7.849999999999877
0.4897003471851349,-1.1408491134643555,-1.506324291229248,7.859999999999877
1.11353600025177,-1.1989316940307617,0.5755040645599365,7.869999999999877
-0.45853322744369507,0.7365961074829102,1.3759791851043701,7.879999999999876
0.025043964385986328,2.4324731826782227,0.9798856377601624,7.889999999999876
1.3204580545425415,2.2066335678100586,-0.2397436499595642,7.899999999999876
1.3704153299331665,1.2777814865112305,-0.6249399185180664,7.909999999999876
2.2138445377349854,-0.5060663223266602,-3.197038412094116,7.919999999999876
1.9668234586715698,-0.10388374328613281,-2.8690333366394043,7.929999999999875
0.5746473073959351,-1.1340036392211914,0.573535680770874,7.939999999999875
-0.23480534553527832,-0.23290348052978516,2.1313557624816895,7.949999999999875
-0.21325695514678955,-0.2277965545654297,2.103621482849121,7.959999999999875
-0.46196335554122925,0.6350078582763672,3.602475166320801,7.9699999999998745
0.059505462646484375,-0.46645545959472656,0.6857085227966309,7.979999999999874
-0.10715728998184204,0.28322792053222656,-1.0210919380187988,7.989999999999874
