AccX,AccY,AccZ,SampleRate
0.34409695863723755,1.8328227996826172,-1.5807404518127441,0
0.17592550814151764,7.100930213928223,-3.56638503074646,0.01
-0.5489635467529297,11.954790115356445,-5.132591724395752,0.02
-2.511401891708374,14.227889060974121,-5.048276901245117,0.03
-1.4756765365600586,9.052865028381348,-2.191704273223877,0.04
0.39706820249557495,1.175394058227539,2.7654786109924316,0.05
1.1100571155548096,-4.627508163452148,1.424790382385254,0.060000000000000005
0.7034721374511719,-8.7481107711792,-2.743748188018799,0.07
0.1788042187690735,-9.117383003234863,-4.818602561950684,0.08
1.042902946472168,-5.865635395050049,-4.34491491317749,0.09
2.9367518424987793,-2.2033510208129883,-1.8030717372894287,0.09999999999999999
4.671029567718506,1.2897720336914062,-0.3397510051727295,0.10999999999999999
5.33406400680542,3.4358692169189453,-0.834505558013916,0.11999999999999998
4.192409038543701,3.5910234451293945,-2.5772438049316406,0.12999999999999998
1.5424556732177734,1.9077119827270508,-3.8605446815490723,0.13999999999999999
-0.8903530836105347,-0.5912408828735352,-2.817474365234375,0.15
-2.0555663108825684,-2.181269645690918,-1.259690523147583,0.16
-2.3198468685150146,-3.1348013877868652,-0.09613204002380371,0.17
-1.9770712852478027,-3.099830150604248,0.05455327033996582,0.18000000000000002
-1.5764704942703247,-2.101956844329834,-0.16403770446777344,0.19000000000000003
-1.3070623874664307,-0.8905458450317383,-0.5081782341003418,0.20000000000000004
-0.8040209412574768,0.17610549926757812,-1.1170772314071655,0.21000000000000005
-0.31983351707458496,0.41651153564453125,-1.2477859258651733,0.22000000000000006
0.37397056818008423,0.12322044372558594,-1.1264015436172485,0.23000000000000007
1.325740933418274,-0.6608247756958008,-0.6181786060333252,0.24000000000000007
2.030529022216797,-1.210733413696289,-0.1511075496673584,0.25000000000000006
2.5715620517730713,-1.4171123504638672,-0.10149091482162476,0.26000000000000006
2.7436652183532715,-1.1128578186035156,-0.02137237787246704,0.2700000000000001
2.610261917114258,-0.8918943405151367,0.06134207546710968,0.2800000000000001
2.318085193634033,-0.7230072021484375,0.14291343092918396,0.2900000000000001
1.8417985439300537,-0.6443452835083008,0.3870282471179962,0.3000000000000001
1.5758824348449707,-0.617711067199707,0.6877314448356628,0.3100000000000001
1.320261836051941,-0.4731168746948242,0.9488680362701416,0.3200000000000001
1.0326366424560547,-0.4309530258178711,1.317533016204834,0.3300000000000001
0.8776136636734009,-0.637211799621582,1.5072743892669678,0.34000000000000014
0.7633569836616516,-1.024857521057129,1.47072434425354,0.35000000000000014
0.6494610905647278,-1.2395601272583008,1.2801570892333984,0.36000000000000015
0.5868666172027588,-1.307596206665039,1.2149176597595215,0.37000000000000016
0.513188362121582,-1.1115293502807617,1.1613783836364746,0.38000000000000017
0.33064067363739014,-0.5459136962890625,1.4982984066009521,0.3900000000000002
0.2615607976913452,-0.03930091857910156,2.016418695449829,0.4000000000000002
0.3197464942932129,0.5208349227905273,2.544464588165283,0.4100000000000002
0.43271613121032715,0.8926277160644531,2.777374267578125,0.4200000000000002
0.46459245681762695,0.9010496139526367,2.8686907291412354,0.4300000000000002
0.5420393943786621,0.923914909362793,1.9938743114471436,0.4400000000000002
0.6473895907402039,1.2861700057983398,2.161963701248169,0.45000000000000023
0.9135537147521973,1.6971607208251953,2.6822338104248047,0.46000000000000024
1.6227232217788696,2.0512771606445312,2.890684127807617,0.47000000000000025
2.569998264312744,2.3102636337280273,2.7175464630126953,0.48000000000000026
3.0846619606018066,2.588815689086914,2.6202335357666016,0.49000000000000027
3.2402217388153076,2.455873489379883,2.608431816101074,0.5000000000000002
2.8717405796051025,2.19179630279541,2.36783766746521,0.5100000000000002
2.2913570404052734,2.5575103759765625,1.6895010471343994,0.5200000000000002
1.8022313117980957,3.2695159912109375,1.0804890394210815,0.5300000000000002
1.367423415184021,4.224729537963867,0.660226047039032,0.5400000000000003
1.2355220317840576,4.598061561584473,0.14198362827301025,0.5500000000000003
1.1517597436904907,3.6225147247314453,-1.4921984672546387,0.5600000000000003
1.3703761100769043,1.837721824645996,-3.183228015899658,0.5700000000000003
1.0353246927261353,0.8387184143066406,-3.0150043964385986,0.5800000000000003
0.387131929397583,0.2323293685913086,-2.425718069076538,0.5900000000000003
-0.007426053285598755,0.008161544799804688,-1.6879754066467285,0.6000000000000003
0.05714724585413933,0.010916709899902344,-1.9918174743652344,0.6100000000000003
1.0497416257858276,0.6404085159301758,-1.955985188484192,0.6200000000000003
1.4342387914657593,1.8957624435424805,-2.004047155380249,0.6300000000000003
1.4665641784667969,3.1163864135742188,-1.5319757461547852,0.6400000000000003
1.0029226541519165,4.042184829711914,-0.8730430603027344,0.6500000000000004
0.07995754480361938,4.212263107299805,-0.9228019714355469,0.6600000000000004
-1.8041417598724365,3.9036312103271484,-1.3047664165496826,0.6700000000000004
-12.399587631225586,5.124232292175293,-2.4246063232421875,0.6800000000000004
-10.343647956848145,2.405238151550293,-1.7916494607925415,0.6900000000000004
-3.2652652263641357,-0.15982818603515625,-1.185217022895813,0.7000000000000004
0.017924189567565918,-2.602598190307617,-0.43793654441833496,0.7100000000000004
0.973260760307312,-3.880373001098633,0.9084372520446777,0.7200000000000004
1.9028059244155884,-4.125406265258789,0.7285082340240479,0.7300000000000004
2.2759342193603516,-3.66121768951416,-0.2837073802947998,0.7400000000000004
2.1199705600738525,-4.3295087814331055,-1.1578936576843262,0.7500000000000004
1.5460026264190674,-4.79875373840332,-1.6451984643936157,0.7600000000000005
0.5492967963218689,-4.43563985824585,-1.1971352100372314,0.7700000000000005
0.013708949089050293,-3.522390842437744,-0.8168051242828369,0.7800000000000005
-0.13710784912109375,-2.756608486175537,-0.9659609794616699,0.7900000000000005
-0.4747653007507324,-2.477369785308838,-1.2779028415679932,0.8000000000000005
-0.8633130788803101,-2.6944727897644043,-1.4236955642700195,0.8100000000000005
-1.1851294040679932,-3.006649971008301,-1.4362573623657227,0.8200000000000005
-1.5958720445632935,-2.8538918495178223,-1.36663818359375,0.8300000000000005
-1.6509957313537598,-2.992710590362549,-1.2738041877746582,0.8400000000000005
-1.56775963306427,-3.193521499633789,-1.010291576385498,0.8500000000000005
-1.1277518272399902,-3.372119903564453,-0.6141211986541748,0.8600000000000005
-0.8165006637573242,-3.3581008911132812,0.004128456115722656,0.8700000000000006
-0.7420530319213867,-3.427961826324463,0.6243090629577637,0.8800000000000006
-0.684242844581604,-3.750283718109131,1.2106411457061768,0.8900000000000006
-0.608128547668457,-3.8278889656066895,1.6692235469818115,0.9000000000000006
-0.3023490905761719,-3.5585761070251465,1.9929156303405762,0.9100000000000006
-0.050016164779663086,-2.995694160461426,2.032282829284668,0.9200000000000006
0.02534008026123047,-1.9797754287719727,1.8510477542877197,0.9300000000000006
-0.048070430755615234,-1.0260887145996094,1.9657249450683594,0.9400000000000006
-0.07371330261230469,0.3378124237060547,2.303626298904419,0.9500000000000006
-0.11939680576324463,1.8876962661743164,2.3040664196014404,0.9600000000000006
-0.5966129302978516,3.984116554260254,2.2259445190429688,0.9700000000000006
-1.6935169696807861,6.198396682739258,2.436568021774292,0.9800000000000006
-3.3842239379882812,7.4766435623168945,3.187145948410034,0.9900000000000007
-3.06469464302063,5.457440376281738,4.109886169433594,1.0000000000000007
-2.623976707458496,2.455495834350586,5.462726593017578,1.0100000000000007
-2.389735221862793,-0.1985025405883789,5.80804443359375,1.0200000000000007
-1.2583982944488525,-2.1910290718078613,4.464964866638184,1.0300000000000007
0.19999194145202637,-1.2888307571411133,1.6718711853027344,1.0400000000000007
-0.13627922534942627,2.9069595336914062,0.0017824172973632812,1.0500000000000007
-0.4943739175796509,6.728078842163086,-2.9043846130371094,1.0600000000000007
-0.8940048217773438,10.786541938781738,-5.836323261260986,1.0700000000000007
-2.241563320159912,12.690267562866211,-8.169819831848145,1.0800000000000007
-0.6204209327697754,9.045709609985352,-8.150489807128906,1.0900000000000007
0.6662477254867554,0.8683071136474609,-4.220441818237305,1.1000000000000008
-0.7483408451080322,-6.339236736297607,1.354891061782837,1.1100000000000008
-0.6057924032211304,-9.210227966308594,0.40289902687072754,1.1200000000000008
-0.4355194568634033,-9.522241592407227,-2.2161216735839844,1.1300000000000008
0.5871232748031616,-6.981074333190918,-3.517507791519165,1.1400000000000008
2.896158456802368,-2.441641330718994,-4.131357192993164,1.1500000000000008
4.980791091918945,1.6878976821899414,-3.5657620429992676,1.1600000000000008
6.470738410949707,5.399692535400391,-1.9564900398254395,1.1700000000000008
6.063797473907471,6.409977912902832,-1.1666396856307983,1.1800000000000008
3.5062015056610107,4.101483345031738,-1.637775182723999,1.1900000000000008
1.5073158740997314,-0.08845710754394531,-2.357769250869751,1.2000000000000008
-0.05187344551086426,-4.063748836517334,-2.899378538131714,1.2100000000000009
-1.8447481393814087,-5.9231414794921875,-2.3933279514312744,1.2200000000000009
-4.269115924835205,-5.458054065704346,-1.666812777519226,1.2300000000000009
-4.322404384613037,-4.192194938659668,-1.2781412601470947,1.2400000000000009
-2.5540740489959717,-2.765747547149658,-1.063252568244934,1.2500000000000009
-0.918093204498291,-1.1948261260986328,-0.954423189163208,1.260000000000001
-0.13147586584091187,0.1709308624267578,-1.256148099899292,1.270000000000001
0.5489814281463623,0.6923742294311523,-1.402380108833313,1.280000000000001
0.8891769051551819,0.5149106979370117,-1.4081451892852783,1.290000000000001
1.2041462659835815,-0.093475341796875,-1.0236388444900513,1.300000000000001
1.537015438079834,-0.8603286743164062,-0.06814727187156677,1.310000000000001
1.4944803714752197,-1.2232236862182617,1.2514526844024658,1.320000000000001
1.9056693315505981,-1.4890413284301758,2.3830437660217285,1.330000000000001
2.0966734886169434,-1.6436243057250977,2.7114181518554688,1.340000000000001
2.347560405731201,-1.7274770736694336,1.8860448598861694,1.350000000000001
2.398827075958252,-1.6300849914550781,0.9250925779342651,1.360000000000001
2.180173635482788,-1.4518651962280273,0.1774282455444336,1.370000000000001
1.551807165145874,-1.1283531188964844,0.13751161098480225,1.380000000000001
1.0373212099075317,-0.8465118408203125,0.8424314260482788,1.390000000000001
0.6318182945251465,-0.6015548706054688,1.981931209564209,1.400000000000001
0.1128355860710144,-0.2185068130493164,3.0935585498809814,1.410000000000001
-0.186287522315979,-0.0037317276000976562,3.3325538635253906,1.420000000000001
-0.36132872104644775,0.3161020278930664,2.7086262702941895,1.430000000000001
-0.19647979736328125,0.6404695510864258,1.7902610301971436,1.440000000000001
0.07754141092300415,0.9372787475585938,1.440735101699829,1.450000000000001
0.26641911268234253,1.3510332107543945,1.9759879112243652,1.460000000000001
0.41857123374938965,1.8825321197509766,2.92445969581604,1.470000000000001
0.8024311065673828,2.2077131271362305,3.3346424102783203,1.480000000000001
1.4331846237182617,2.3598146438598633,3.1316142082214355,1.490000000000001
1.7187931537628174,2.609004020690918,2.585324764251709,1.500000000000001
1.8779762983322144,2.597853660583496,2.3707902431488037,1.5100000000000011
2.040459632873535,2.1469249725341797,2.046513319015503,1.5200000000000011
1.890635371208191,2.143007278442383,0.437488317489624,1.5300000000000011
1.7238693237304688,2.703944206237793,-0.8492569923400879,1.5400000000000011
1.6954905986785889,3.6884613037109375,-0.9603801965713501,1.5500000000000012
1.790658712387085,4.797772407531738,-1.687406063079834,1.5600000000000012
1.4318859577178955,4.661345481872559,-3.2044448852539062,1.5700000000000012
0.46890556812286377,3.8820953369140625,-3.0769848823547363,1.5800000000000012
-1.497219443321228,3.196603775024414,-0.8499470353126526,1.5900000000000012
-1.4776418209075928,3.187228202819824,-1.146295189857483,1.6000000000000012
-4.004419326782227,3.642207145690918,0.4493064880371094,1.6100000000000012
-3.776885509490967,3.975447654724121,0.2760092318058014,1.6200000000000012
-3.0480666160583496,4.4372453689575195,-0.8133418560028076,1.6300000000000012
-2.2359347343444824,4.495306015014648,-2.8840463161468506,1.6400000000000012
-1.6833207607269287,4.694269180297852,-4.848496437072754,1.6500000000000012
-0.741227388381958,4.440876007080078,-4.6978654861450195,1.6600000000000013
-0.32203078269958496,3.582169532775879,-3.655933380126953,1.6700000000000013
-1.0645792484283447,2.1785078048706055,-2.7750844955444336,1.6800000000000013
-1.9184379577636719,0.16922855377197266,-1.6220240592956543,1.6900000000000013
-2.6634509563446045,-1.7579374313354492,0.6926636695861816,1.7000000000000013
-2.430140972137451,-3.1728391647338867,3.7948060035705566,1.7100000000000013
-1.9137370586395264,-3.4183712005615234,2.5809671878814697,1.7200000000000013
-0.7786974906921387,-3.1032767295837402,-0.2733123302459717,1.7300000000000013
0.7928259968757629,-2.8983798027038574,-2.3339765071868896,1.7400000000000013
1.6839690208435059,-2.6531548500061035,-2.6523218154907227,1.7500000000000013
2.0199317932128906,-2.9079489707946777,-1.8297321796417236,1.7600000000000013
2.273902416229248,-4.203620910644531,-1.4579386711120605,1.7700000000000014
2.045562982559204,-4.610454082489014,-1.1584892272949219,1.7800000000000014
1.2484790086746216,-4.456347465515137,-1.1990203857421875,1.7900000000000014
0.7867206335067749,-4.827084541320801,-1.6573028564453125,1.8000000000000014
-7.673501968383789E-4,-4.801172256469727,-1.5991430282592773,1.8100000000000014
-0.8644763231277466,-4.533804416656494,-1.4172167778015137,1.8200000000000014
-1.6301476955413818,-3.989102363586426,-1.3818244934082031,1.8300000000000014
-1.7309608459472656,-3.618410110473633,-1.1578459739685059,1.8400000000000014
-1.6832191944122314,-3.2953391075134277,-1.170762062072754,1.8500000000000014
-1.4121994972229004,-3.1666617393493652,-1.1314454078674316,1.8600000000000014
-0.9792464971542358,-3.4084014892578125,-0.7869391441345215,1.8700000000000014
-0.7883554697036743,-3.729520320892334,-0.24837398529052734,1.8800000000000014
-0.7218456268310547,-4.026499271392822,0.5661287307739258,1.8900000000000015
-0.584786057472229,-4.234123229980469,1.2795088291168213,1.9000000000000015
-0.49719417095184326,-4.168918609619141,1.8079242706298828,1.9100000000000015
-0.4155769348144531,-3.7583022117614746,1.8484516143798828,1.9200000000000015
-0.2866886854171753,-2.7643966674804688,1.8958032131195068,1.9300000000000015
-0.0674588680267334,-1.3737053871154785,2.3452229499816895,1.9400000000000015
0.6533017158508301,1.0432300567626953,3.0073516368865967,1.9500000000000015
0.9902395606040955,3.0897903442382812,3.1312458515167236,1.9600000000000015
0.7336702346801758,5.175542831420898,3.1907336711883545,1.9700000000000015
-0.8099743127822876,7.37795352935791,2.983200788497925,1.9800000000000015
-4.018712043762207,8.831600189208984,3.2276570796966553,1.9900000000000015
-5.842106819152832,6.473357200622559,4.19059944152832,2.0000000000000013
-5.827978134155273,2.2229862213134766,4.254481315612793,2.010000000000001
-5.519682884216309,-0.7490262985229492,3.059877395629883,2.020000000000001
-3.2707653045654297,-1.1859869956970215,1.6361405849456787,2.0300000000000007
-1.7381418943405151,3.879786491394043,-0.3354475498199463,2.0400000000000005
-2.284811019897461,9.877366065979004,-3.369900703430176,2.0500000000000003
-2.6369881629943848,13.190092086791992,-8.256908416748047,2.06
-0.49749529361724854,10.734758377075195,-8.12239933013916,2.07
2.552546501159668,6.010930061340332,-2.923074960708618,2.0799999999999996
4.843791961669922,-0.8787660598754883,2.9286744594573975,2.0899999999999994
4.776549339294434,-0.9010066986083984,2.9554684162139893,2.099999999999999
2.957834482192993,-7.5142011642456055,-4.2528486251831055,2.109999999999999
2.387704372406006,-7.462088584899902,-7.532912731170654,2.1199999999999988
1.659280776977539,-4.835337162017822,-6.340858459472656,2.1299999999999986
2.2016217708587646,-1.6995134353637695,-3.8063416481018066,2.1399999999999983
3.072740077972412,1.2798528671264648,-1.7093361616134644,2.149999999999998
3.0072929859161377,3.326871871948242,-0.7922255992889404,2.159999999999998
2.207557201385498,3.804933547973633,-0.770148754119873,2.1699999999999977
0.8600538969039917,2.2863473892211914,-1.2558073997497559,2.1799999999999975
-0.497752845287323,0.05920219421386719,-1.7772579193115234,2.1899999999999973
-0.9847352504730225,-2.06160831451416,-2.068674087524414,2.199999999999997
-1.2307416200637817,-4.074420928955078,-2.390390396118164,2.209999999999997
-1.1536356210708618,-5.227282524108887,-2.0658326148986816,2.2199999999999966
-1.3154983520507812,-5.202176570892334,-1.7657747268676758,2.2299999999999964
-1.7723718881607056,-3.668612003326416,-1.7434500455856323,2.239999999999996
-0.9170974493026733,-1.6058263778686523,-1.854923963546753,2.249999999999996
0.06525444984436035,-0.3009071350097656,-1.8082547187805176,2.259999999999996
1.0279384851455688,0.200347900390625,-1.6475517749786377,2.2699999999999956
1.6314029693603516,-0.0016803741455078125,-1.5214154720306396,2.2799999999999954
1.5237332582473755,-0.64862060546875,-0.9820331335067749,2.289999999999995
1.0870531797409058,-1.1179790496826172,-0.21527108550071716,2.299999999999995
0.9369165897369385,-1.184788703918457,0.7089433073997498,2.3099999999999947
1.2783188819885254,-1.144144058227539,1.4319840669631958,2.3199999999999945
1.652431845664978,-1.1688318252563477,2.0179481506347656,2.3299999999999943
2.0536553859710693,-1.3093738555908203,2.1931416988372803,2.339999999999994
2.1636765003204346,-1.4844846725463867,1.8075284957885742,2.349999999999994
2.0428380966186523,-1.421102523803711,1.5303727388381958,2.3599999999999937
1.8105065822601318,-1.0496721267700195,1.1583127975463867,2.3699999999999934
1.4687632322311401,-0.6286411285400391,1.4315004348754883,2.3799999999999932
0.9704878330230713,-0.34238338470458984,2.1809394359588623,2.389999999999993
0.43605393171310425,-0.3538331985473633,2.9002058506011963,2.399999999999993
-0.05701592564582825,-0.5933589935302734,2.9509525299072266,2.4099999999999926
-0.3782312273979187,-0.7324647903442383,2.2519469261169434,2.4199999999999924
-0.264707088470459,-0.4932899475097656,1.3992186784744263,2.429999999999992
0.17699876427650452,0.1070566177368164,1.4624998569488525,2.439999999999992
0.8347106575965881,1.0678730010986328,2.500401020050049,2.4499999999999917
1.2691302299499512,1.9564628601074219,3.47821044921875,2.4599999999999915
1.3712009191513062,2.510493278503418,3.29874324798584,2.4699999999999913
1.4353928565979004,2.853884696960449,2.581040382385254,2.479999999999991
1.673076868057251,2.8636789321899414,2.4209959506988525,2.489999999999991
2.0368988513946533,2.504837989807129,2.744107246398926,2.4999999999999907
2.4570775032043457,1.9108476638793945,2.6885409355163574,2.5099999999999905
2.6910111904144287,1.5281896591186523,1.18415105342865,2.5199999999999902
2.866631507873535,1.4326972961425781,-0.3779059648513794,2.52999999999999
2.535207748413086,2.1198644638061523,-0.8610841035842896,2.53999999999999
2.5681591033935547,2.1074581146240234,-0.9761425256729126,2.5499999999999896
0.5720862150192261,5.0933837890625,-3.5145368576049805,2.5599999999999894
-0.3170192241668701,5.495075225830078,-3.6059021949768066,2.569999999999989
-1.6109212636947632,5.361576080322266,-1.4110448360443115,2.579999999999989
-2.7842631340026855,5.584427833557129,0.3266017436981201,2.5899999999999888
-3.359121799468994,6.211586952209473,0.9854555726051331,2.5999999999999885
-2.359395980834961,6.250221252441406,-0.03535940498113632,2.6099999999999883
-1.78519606590271,6.396092414855957,-1.204362392425537,2.619999999999988
-1.8646204471588135,6.5204057693481445,-2.6328272819519043,2.629999999999988
-2.0200679302215576,5.792259216308594,-4.655092239379883,2.6399999999999877
-1.5783965587615967,4.27042293548584,-6.059179306030273,2.6499999999999875
-1.2138357162475586,2.605971336364746,-5.630560398101807,2.6599999999999873
-1.3662786483764648,0.903712272644043,-4.388154029846191,2.669999999999987
-1.826094388961792,-0.4970874786376953,-4.085803985595703,2.679999999999987
-2.600388288497925,-2.07476806640625,-2.90787935256958,2.6899999999999866
-2.292635202407837,-3.772960662841797,0.8622009754180908,2.6999999999999864
-1.8927706480026245,-4.7514328956604,4.890673637390137,2.709999999999986
-0.632503867149353,-4.904734134674072,3.3324263095855713,2.719999999999986
-0.5646423101425171,-4.839928150177002,3.129167079925537,2.7299999999999858
1.5957642793655396,-2.7253360748291016,-2.742501735687256,2.7399999999999856
2.130035400390625,-2.350877285003662,-3.257039785385132,2.7499999999999853
2.0544910430908203,-3.1453824043273926,-2.4765238761901855,2.759999999999985
2.2926859855651855,-4.6324052810668945,-1.7279213666915894,2.769999999999985
1.7271950244903564,-5.067465305328369,-1.2588508129119873,2.7799999999999847
0.7638659477233887,-4.945964813232422,-1.6623706817626953,2.7899999999999845
-0.10326051712036133,-4.811375617980957,-2.0192666053771973,2.7999999999999843
-0.9891238212585449,-4.68114709854126,-1.9242124557495117,2.809999999999984
-1.6325535774230957,-4.299154281616211,-1.570366382598877,2.819999999999984
-2.216050863265991,-3.6127266883850098,-1.306147813796997,2.8299999999999836
-2.748641014099121,-2.83699893951416,-1.2532291412353516,2.8399999999999834
-2.7384276390075684,-2.3646278381347656,-1.1909129619598389,2.849999999999983
-2.3981821537017822,-2.3321352005004883,-0.9652724266052246,2.859999999999983
-1.767578125,-2.693511486053467,-0.5485038757324219,2.869999999999983
-1.233616590499878,-3.164618492126465,0.10564827919006348,2.8799999999999826
-0.7947225570678711,-3.5499000549316406,0.9471921920776367,2.8899999999999824
-0.33704543113708496,-3.5945096015930176,1.794701099395752,2.899999999999982
0.0664452314376831,-3.1564488410949707,2.399240493774414,2.909999999999982
0.14231646060943604,-2.428309440612793,2.5561575889587402,2.9199999999999817
9.720325469970703E-4,-1.2766828536987305,2.453904390335083,2.9299999999999815
-0.2387148141860962,-0.30036258697509766,2.372370958328247,2.9399999999999813
-0.46773719787597656,0.9978427886962891,2.1997005939483643,2.949999999999981
-0.6491326093673706,2.642697334289551,2.288217544555664,2.959999999999981
-0.9860917329788208,5.105857849121094,2.3319926261901855,2.9699999999999807
-1.454438328742981,6.903233528137207,2.896561861038208,2.9799999999999804
-2.0035948753356934,6.910909652709961,4.290005683898926,2.9899999999999802
-2.261739730834961,4.814216613769531,5.466975688934326,2.99999999999998
-3.052053451538086,3.2161436080932617,5.182557106018066,3.00999999999998
-3.4115548133850098,3.663360595703125,2.2441277503967285,3.0199999999999796
-2.625716209411621,7.413722038269043,-0.6032109260559082,3.0299999999999794
-2.3837969303131104,11.454924583435059,-1.121443510055542,3.039999999999979
-3.378340721130371,14.421562194824219,-3.4733810424804688,3.049999999999979
-4.312129020690918,10.489548683166504,-6.833701133728027,3.0599999999999787
-1.5067063570022583,0.9330768585205078,-5.025201797485352,3.0699999999999785
1.3780431747436523,-6.672023773193359,-2.346560001373291,3.0799999999999783
3.5866827964782715,-10.631752014160156,-3.7445249557495117,3.089999999999978
4.230196952819824,-11.241729736328125,-5.71870231628418,3.099999999999978
3.5252790451049805,-8.404595375061035,-5.478809833526611,3.1099999999999777
2.737285852432251,-3.1407227516174316,-3.2581636905670166,3.1199999999999775
3.148941993713379,1.8959770202636719,-1.7091878652572632,3.1299999999999772
3.3264358043670654,5.290227890014648,-2.049569606781006,3.139999999999977
2.533456325531006,6.407578468322754,-2.8616721630096436,3.149999999999977
1.2651572227478027,4.658993721008301,-3.1619930267333984,3.1599999999999766
0.33319002389907837,1.1149587631225586,-2.23599910736084,3.1699999999999764
0.7555397748947144,-2.365891456604004,-0.5758020877838135,3.179999999999976
0.5257694125175476,-4.669710636138916,0.16320586204528809,3.189999999999976
0.6957042217254639,-5.873933792114258,-0.21221435070037842,3.1999999999999758
0.3583120107650757,-5.638148307800293,-0.44935786724090576,3.2099999999999755
-0.3908490240573883,-4.289032459259033,-0.53365159034729,3.2199999999999753
-1.2315583229064941,-2.1306638717651367,-0.8452933430671692,3.229999999999975
-1.2213423252105713,-0.6477441787719727,-1.2062253952026367,3.239999999999975
0.0011224746704101562,-0.037459373474121094,-1.326022982597351,3.2499999999999747
0.795129656791687,0.058815956115722656,-1.4841578006744385,3.2599999999999745
0.8372738361358643,-0.2704286575317383,-1.489896297454834,3.2699999999999743
0.40237560868263245,-0.6900768280029297,-0.8457083702087402,3.279999999999974
-0.0058942437171936035,-1.0354480743408203,-0.01976841688156128,3.289999999999974
0.43437618017196655,-1.0748329162597656,1.108428716659546,3.2999999999999736
1.2579827308654785,-1.0483665466308594,2.2311649322509766,3.3099999999999734
1.2496402263641357,-1.0521411895751953,2.3261852264404297,3.319999999999973
2.2216107845306396,-1.0765962600708008,3.197390079498291,3.329999999999973
2.1816246509552,-1.2341651916503906,2.4004712104797363,3.3399999999999728
1.8166054487228394,-1.2731266021728516,0.9637736082077026,3.3499999999999726
1.2819807529449463,-1.5208415985107422,-0.3347105383872986,3.3599999999999723
0.7425476312637329,-1.454899787902832,-0.6782540082931519,3.369999999999972
0.2922205328941345,-1.0270376205444336,0.709583044052124,3.379999999999972
-0.13282901048660278,-0.2708282470703125,3.1827754974365234,3.3899999999999717
-0.35738489031791687,0.0235595703125,4.226363182067871,3.3999999999999715
-0.7477485537528992,-0.16017627716064453,3.4427764415740967,3.4099999999999713
-1.091465711593628,-0.4748420715332031,1.7214775085449219,3.419999999999971
-0.9733430743217468,-0.4190349578857422,0.6971584558486938,3.429999999999971
-0.11034709215164185,0.40276336669921875,0.9986040592193604,3.4399999999999706
0.9628794193267822,1.7326021194458008,2.167707681655884,3.4499999999999704
1.9242732524871826,2.063347816467285,2.773244857788086,3.45999999999997
3.203972816467285,2.0342893600463867,2.735781192779541,3.46999999999997
3.860106945037842,2.0909271240234375,2.5190279483795166,3.47999999999997
4.04047155380249,2.239900588989258,2.752626657485962,3.4899999999999696
3.9783921241760254,2.332381248474121,2.8014914989471436,3.4999999999999694
3.775792121887207,2.744784355163574,1.6575860977172852,3.509999999999969
3.3266823291778564,3.350017547607422,0.044469475746154785,3.519999999999969
2.3334245681762695,4.834473609924316,-1.1054359674453735,3.5299999999999687
1.4558887481689453,6.31691837310791,-1.5279268026351929,3.5399999999999685
0.7298129200935364,6.486556053161621,-2.456052780151367,3.5499999999999683
0.5287926197052002,4.956174850463867,-3.145376682281494,3.559999999999968
-1.0759975910186768,4.167586326599121,-3.4418530464172363,3.569999999999968
-3.205031394958496,4.095669746398926,-2.8837945461273193,3.5799999999999677
-5.546022891998291,4.029908180236816,-1.0279771089553833,3.5899999999999674
-6.413034439086914,4.074904441833496,-0.570216953754425,3.5999999999999672
-4.669925212860107,3.821836471557617,-1.99428129196167,3.609999999999967
-2.9330079555511475,3.548617362976074,-1.9552439451217651,3.619999999999967
-1.9025790691375732,3.181157112121582,-1.9573731422424316,3.6299999999999666
-1.664428949356079,2.521879196166992,-2.6288552284240723,3.6399999999999664
-1.528024673461914,2.1292858123779297,-3.3227601051330566,3.649999999999966
-1.285526990890503,1.623849868774414,-3.2700254917144775,3.659999999999966
-1.727361798286438,0.9435281753540039,-2.7135891914367676,3.6699999999999657
-1.9770569801330566,-0.010766983032226562,-1.9675824642181396,3.6799999999999655
-1.7862827777862549,-1.0207624435424805,-0.39704906940460205,3.6899999999999653
-1.117617130279541,-2.259495258331299,1.4079272747039795,3.699999999999965
-0.18323349952697754,-3.444347381591797,1.4977362155914307,3.709999999999965
0.9526559114456177,-3.922171115875244,0.18224740028381348,3.7199999999999647
1.8070542812347412,-4.107756614685059,-1.3915724754333496,3.7299999999999645
1.6059761047363281,-3.9004597663879395,-2.184802770614624,3.7399999999999642
1.8936195373535156,-4.573331832885742,-2.528209924697876,3.749999999999964
1.9037179946899414,-4.984339237213135,-2.338003635406494,3.759999999999964
1.1194932460784912,-5.038620948791504,-1.8324545621871948,3.7699999999999636
0.48066985607147217,-4.998000621795654,-1.613382339477539,3.7799999999999634
-0.1528531312942505,-4.701510906219482,-1.6321659088134766,3.789999999999963
-0.8027764558792114,-4.2484846115112305,-1.4496057033538818,3.799999999999963
-1.548086166381836,-3.731882095336914,-1.1312189102172852,3.8099999999999627
-1.966810941696167,-3.3400845527648926,-0.9537394046783447,3.8199999999999625
-2.3458495140075684,-3.1532950401306152,-0.8402011394500732,3.8299999999999623
-2.294321298599243,-3.3146233558654785,-0.7061941623687744,3.839999999999962
-1.7945024967193604,-3.298027992248535,-0.052271366119384766,3.849999999999962
-1.2775002717971802,-3.3830175399780273,1.048478603363037,3.8599999999999617
-0.5491411685943604,-3.6190290451049805,1.7771577835083008,3.8699999999999615
0.019594430923461914,-3.5921568870544434,2.405665159225464,3.8799999999999613
0.5969361066818237,-3.370950698852539,3.1638705730438232,3.889999999999961
0.9247643947601318,-2.693190574645996,2.9609594345092773,3.899999999999961
1.1268322467803955,-1.6251530647277832,2.130126476287842,3.9099999999999606
1.162874460220337,-0.4404182434082031,1.8213305473327637,3.9199999999999604
0.625495195388794,0.9323959350585938,2.0446250438690186,3.92999999999996
-0.24265646934509277,1.7628154754638672,2.5385894775390625,3.93999999999996
-2.1433398723602295,2.9324159622192383,2.9596428871154785,3.9499999999999598
-4.387979030609131,4.8758440017700195,2.259429693222046,3.9599999999999596
-6.283928871154785,6.097023010253906,2.0730838775634766,3.9699999999999593
-4.832627296447754,4.048897743225098,3.4242427349090576,3.979999999999959
-2.473479747772217,0.6929922103881836,4.859094619750977,3.989999999999959
-1.0282654762268066,-1.6345124244689941,4.740221977233887,3.9999999999999587
-0.2673870325088501,-3.3154454231262207,2.8966751098632812,4.009999999999959
0.3000715970993042,-2.326626777648926,0.44942688941955566,4.019999999999959
0.6801258325576782,1.8880729675292969,-0.23237037658691406,4.0299999999999585
0.1422969102859497,6.662123680114746,-4.353500843048096,4.039999999999958
-0.8213855028152466,13.481278419494629,-7.5022053718566895,4.049999999999958
-2.2519586086273193,18.110153198242188,-7.0216064453125,4.059999999999958
-0.3538074493408203,17.311058044433594,-5.759860992431641,4.069999999999958
1.3119479417800903,6.625277519226074,-1.9275094270706177,4.079999999999957
1.2723870277404785,-3.6139001846313477,1.3182270526885986,4.089999999999957
1.0905859470367432,-9.457810401916504,-2.6807069778442383,4.099999999999957
0.38561302423477173,-10.235395431518555,-6.1852006912231445,4.109999999999957
-0.05662178993225098,-7.340529918670654,-5.066481590270996,4.119999999999957
1.392772912979126,-2.754945755004883,-1.7124603986740112,4.129999999999956
2.7173471450805664,0.3368339538574219,-0.46129631996154785,4.139999999999956
3.4371604919433594,2.896388053894043,-1.0458437204360962,4.149999999999956
3.129945755004883,3.8290367126464844,-2.3144454956054688,4.159999999999956
1.9164338111877441,2.4494199752807617,-3.798644542694092,4.1699999999999555
0.8816973567008972,-0.1350116729736328,-4.21792459487915,4.179999999999955
0.23874372243881226,-3.2162346839904785,-3.9209699630737305,4.189999999999955
-0.46252870559692383,-5.013934135437012,-2.5883495807647705,4.199999999999955
-1.6477868556976318,-5.266182899475098,-1.5827107429504395,4.209999999999955
-2.68152117729187,-4.20056676864624,-0.6829289197921753,4.2199999999999545
-2.4432997703552246,-2.608311653137207,0.028161168098449707,4.229999999999954
-1.4692084789276123,-1.6163129806518555,0.4057333469390869,4.239999999999954
-0.19084054231643677,-0.8399505615234375,0.14648890495300293,4.249999999999954
1.0131644010543823,-0.3198719024658203,-0.7037606239318848,4.259999999999954
1.784982681274414,-0.38349056243896484,-1.3160645961761475,4.269999999999953
2.1776747703552246,-0.7312002182006836,-1.2662047147750854,4.279999999999953
2.1475768089294434,-1.1832551956176758,-0.49178260564804077,4.289999999999953
2.004478693008423,-1.2253427505493164,0.47448062896728516,4.299999999999953
1.9237877130508423,-1.1596965789794922,1.5836410522460938,4.3099999999999525
2.0183370113372803,-1.1687240600585938,2.168315887451172,4.319999999999952
2.203648567199707,-1.3101911544799805,2.05911922454834,4.329999999999952
2.2114486694335938,-1.521956443786621,1.7143149375915527,4.339999999999952
1.6918530464172363,-1.7777290344238281,2.19942307472229,4.349999999999952
1.2078514099121094,-1.5412588119506836,2.5960075855255127,4.3599999999999515
0.99982750415802,-0.6424684524536133,2.433851718902588,4.369999999999951
0.96918785572052,0.3347806930541992,2.1935439109802246,4.379999999999951
0.6963785886764526,0.7655096054077148,2.5300896167755127,4.389999999999951
0.30722683668136597,0.3355255126953125,2.79622220993042,4.399999999999951
0.2468533217906952,-0.6416826248168945,2.226811170578003,4.40999999999995
0.3205524682998657,-0.9997625350952148,1.064031958580017,4.41999999999995
0.25294339656829834,-0.3536710739135742,0.106667160987854,4.42999999999995
0.17269107699394226,1.2764654159545898,0.4603394865989685,4.43999999999995
-0.050275206565856934,2.8645505905151367,2.0257136821746826,4.4499999999999496
0.041628360748291016,3.3463306427001953,3.6408982276916504,4.459999999999949
1.037290334701538,2.5800790786743164,4.273390769958496,4.469999999999949
1.8638471364974976,2.133957862854004,3.859945058822632,4.479999999999949
2.564124345779419,2.383456230163574,2.9635863304138184,4.489999999999949
3.153743028640747,2.9287662506103516,1.0791652202606201,4.4999999999999485
3.353590488433838,3.930436134338379,-0.6443763971328735,4.509999999999948
3.106865406036377,5.115338325500488,-1.1075401306152344,4.519999999999948
2.8979709148406982,5.950056076049805,-2.2587943077087402,4.529999999999948
2.566671848297119,5.787348747253418,-4.297647476196289,4.539999999999948
1.9780250787734985,5.013323783874512,-5.125832557678223,4.549999999999947
0.23532938957214355,4.691374778747559,-3.8150691986083984,4.559999999999947
-2.4617059230804443,4.427900314331055,-1.0694913864135742,4.569999999999947
-4.7418951988220215,4.260904312133789,-0.008766219019889832,4.579999999999947
-5.789545059204102,3.1610164642333984,-1.0261881351470947,4.589999999999947
-5.789143085479736,3.1687002182006836,-1.2462530136108398,4.599999999999946
-3.6041083335876465,3.4845476150512695,0.31092774868011475,4.609999999999946
-2.6115665435791016,3.65297794342041,-0.6425259113311768,4.619999999999946
-2.2254467010498047,3.565408706665039,-2.143991470336914,4.629999999999946
-1.5517841577529907,3.193777084350586,-3.668088912963867,4.6399999999999455
-1.3505910634994507,1.8753643035888672,-3.85957407951355,4.649999999999945
-1.182506799697876,0.7198104858398438,-3.3802738189697266,4.659999999999945
-0.6366350650787354,-0.730168342590332,-1.7304344177246094,4.669999999999945
-0.31859707832336426,-3.3035478591918945,1.0293691158294678,4.679999999999945
-0.05454707145690918,-4.765011787414551,2.149261951446533,4.689999999999944
0.6487208604812622,-5.377466678619385,0.6313924789428711,4.699999999999944
1.320593237876892,-4.819841384887695,-1.5553641319274902,4.709999999999944
1.0747661590576172,-4.088193893432617,-2.30041241645813,4.719999999999944
1.6900101900100708,-4.669053554534912,-2.3860890865325928,4.729999999999944
1.6653536558151245,-4.490488529205322,-1.082655429840088,4.739999999999943
1.1136456727981567,-4.5323357582092285,-0.46473264694213867,4.749999999999943
0.5589840412139893,-4.376467227935791,-0.6661734580993652,4.759999999999943
0.04324078559875488,-4.0670013427734375,-1.3112473487854004,4.769999999999943
-0.5376877784729004,-3.7332420349121094,-1.6237297058105469,4.7799999999999425
-1.098455548286438,-3.4390063285827637,-1.9553227424621582,4.789999999999942
-1.4737279415130615,-3.269434928894043,-2.1135833263397217,4.799999999999942
-1.8758125305175781,-3.1766128540039062,-1.8296384811401367,4.809999999999942
-2.1374192237854004,-3.1769652366638184,-0.9877865314483643,4.819999999999942
-1.9942891597747803,-3.4481067657470703,-0.22304058074951172,4.8299999999999415
-1.608307957649231,-3.7509593963623047,0.22517824172973633,4.839999999999941
-1.2123464345932007,-4.0462236404418945,0.6433305740356445,4.849999999999941
-0.8221116065979004,-4.176441192626953,1.0838100910186768,4.859999999999941
-0.5544341802597046,-3.9671363830566406,1.8499703407287598,4.869999999999941
-0.3596475124359131,-3.521420955657959,2.396761417388916,4.87999999999994
-0.3201875686645508,-2.5976457595825195,2.2351322174072266,4.88999999999994
-0.15335190296173096,-1.4097490310668945,2.1090996265411377,4.89999999999994
0.34125304222106934,0.1720600128173828,2.2365989685058594,4.90999999999994
1.0760034322738647,2.1568593978881836,2.2452454566955566,4.9199999999999395
1.466124176979065,4.373904228210449,2.4880940914154053,4.929999999999939
0.3876798152923584,7.026512145996094,3.2799065113067627,4.939999999999939
-2.4967007637023926,8.901354789733887,3.902717113494873,4.949999999999939
-3.3477783203125,6.494412422180176,4.344383716583252,4.959999999999939
-3.2227399349212646,2.317997932434082,4.393354892730713,4.9699999999999385
-3.7337803840637207,-1.63177490234375,3.43046498298645,4.979999999999938
-3.5027689933776855,-2.127481460571289,2.1088321208953857,4.989999999999938
-2.140268325805664,2.49337100982666,-0.2919604778289795,4.999999999999938
-2.7298383712768555,9.693046569824219,-4.084167957305908,5.009999999999938
-4.477016448974609,13.62584400177002,-7.5310821533203125,5.019999999999937
-5.051815032958984,12.725052833557129,-10.059576034545898,5.029999999999937
-0.1941087245941162,6.216172218322754,-4.06458044052124,5.039999999999937
3.8279643058776855,-0.726283073425293,4.6362385749816895,5.049999999999937
3.2843098640441895,-4.903120040893555,2.6731066703796387,5.0599999999999365
2.4997730255126953,-6.766053199768066,-5.114739894866943,5.069999999999936
2.5731008052825928,-6.228078365325928,-7.74117374420166,5.079999999999936
2.211453437805176,-3.5895237922668457,-6.0745697021484375,5.089999999999936
2.636920213699341,0.056522369384765625,-3.4490463733673096,5.099999999999936
3.5081257820129395,2.742828369140625,-2.114245653152466,5.1099999999999355
3.7085349559783936,4.219387054443359,-1.4807580709457397,5.119999999999935
2.387547731399536,3.6514949798583984,-1.766898512840271,5.129999999999935
1.3186297416687012,2.004401206970215,-1.7965929508209229,5.139999999999935
0.4032338261604309,-0.7293825149536133,-1.6614265441894531,5.149999999999935
-0.28410792350769043,-3.4042415618896484,-0.814955472946167,5.159999999999934
-0.4903638958930969,-5.343470573425293,-1.0118554830551147,5.169999999999934
-1.1730432510375977,-5.73713493347168,-1.5125538110733032,5.179999999999934
-2.780618190765381,-4.804181098937988,-1.7324292659759521,5.189999999999934
-3.2694990634918213,-3.413356304168701,-1.4559575319290161,5.199999999999934
-2.610383987426758,-1.9924578666687012,-1.1569585800170898,5.209999999999933
-1.2129814624786377,-1.028578758239746,-0.9143024682998657,5.219999999999933
-0.09490036964416504,-0.22600078582763672,-1.0611876249313354,5.229999999999933
0.7356980443000793,-0.47136592864990234,-1.207317590713501,5.239999999999933
1.1843361854553223,-1.171346664428711,-1.2083520889282227,5.2499999999999325
1.5498734712600708,-1.6983022689819336,-0.8686579465866089,5.259999999999932
1.9342166185379028,-1.9159393310546875,-0.23096337914466858,5.269999999999932
2.0846962928771973,-1.714376449584961,0.4770745635032654,5.279999999999932
2.233085870742798,-1.2660770416259766,1.3063520193099976,5.289999999999932
2.437560558319092,-1.0908784866333008,1.7985100746154785,5.299999999999931
2.6013519763946533,-1.1123113632202148,1.8618559837341309,5.309999999999931
2.3544416427612305,-0.9399318695068359,1.9710521697998047,5.319999999999931
2.0886788368225098,-0.5400228500366211,2.1414670944213867,5.329999999999931
1.7265431880950928,-0.022887229919433594,2.232443332672119,5.339999999999931
1.3256957530975342,0.2880859375,2.071499824523926,5.34999999999993
0.7832082509994507,0.18657493591308594,2.0591626167297363,5.35999999999993
-0.04168957471847534,-0.1078500747680664,2.0744876861572266,5.36999999999993
-0.46900510787963867,0.01974010467529297,2.0399835109710693,5.37999999999993
-0.5539114475250244,0.47355079650878906,2.1174819469451904,5.3899999999999295
-0.5278301239013672,0.4896202087402344,2.2197721004486084,5.399999999999929
0.1409810185432434,1.6691951751708984,2.6502809524536133,5.409999999999929
0.642931342124939,2.2561721801757812,2.9585771560668945,5.419999999999929
1.7637852430343628,2.65609073638916,3.031982421875,5.429999999999929
2.7237954139709473,2.662247657775879,2.8991546630859375,5.4399999999999284
3.2603113651275635,2.7563247680664062,2.961963415145874,5.449999999999928
3.2986531257629395,2.674335479736328,3.324892282485962,5.459999999999928
3.2245750427246094,2.067096710205078,3.294499397277832,5.469999999999928
2.9415085315704346,1.4783401489257812,2.0477380752563477,5.479999999999928
2.1882548332214355,1.9755439758300781,-0.2430720329284668,5.489999999999927
1.1810568571090698,3.0170249938964844,-1.3565255403518677,5.499999999999927
0.540755033493042,4.043196678161621,-1.8528053760528564,5.509999999999927
0.03413546085357666,3.6981706619262695,-2.7373290061950684,5.519999999999927
-0.5829004049301147,3.09635066986084,-3.178199529647827,5.5299999999999265
-1.4916422367095947,2.857227325439453,-1.8269761800765991,5.539999999999926
-2.6079983711242676,3.8095483779907227,-0.6307904720306396,5.549999999999926
-2.9184651374816895,4.8939619064331055,-1.0487170219421387,5.559999999999926
-2.5493202209472656,5.741021156311035,-1.8086715936660767,5.569999999999926
-1.6349210739135742,6.412389755249023,-1.8173472881317139,5.5799999999999255
-1.0098283290863037,6.157651901245117,-2.118727445602417,5.589999999999925
-1.9354517459869385,5.607352256774902,-3.0024924278259277,5.599999999999925
-2.728139638900757,4.688168525695801,-3.9134631156921387,5.609999999999925
-2.6114282608032227,3.4202394485473633,-3.724754810333252,5.619999999999925
-2.711808204650879,1.7989730834960938,-3.0795722007751465,5.629999999999924
-2.1979923248291016,0.12639617919921875,-2.6822338104248047,5.639999999999924
-1.3526439666748047,-1.3682851791381836,-0.8978937864303589,5.649999999999924
-0.9811103343963623,-3.0274171829223633,2.244356870651245,5.659999999999924
-0.8761595487594604,-3.780512809753418,2.802156686782837,5.6699999999999235
-0.14537853002548218,-3.1545982360839844,0.44234275817871094,5.679999999999923
0.8635375499725342,-2.884890556335449,-2.1214962005615234,5.689999999999923
1.0615595579147339,-2.4267044067382812,-2.9605185985565186,5.699999999999923
1.3075881004333496,-3.436098575592041,-2.805337429046631,5.709999999999923
2.0682270526885986,-4.850785255432129,-1.8967649936676025,5.7199999999999225
1.8220479488372803,-5.505620002746582,-1.1593356132507324,5.729999999999922
1.4749774932861328,-5.990723609924316,-1.2120299339294434,5.739999999999922
0.5563398599624634,-5.712929725646973,-1.696512222290039,5.749999999999922
-0.3034731149673462,-5.318803787231445,-2.0487897396087646,5.759999999999922
-1.0677520036697388,-4.67542028427124,-1.839751958847046,5.769999999999921
-1.6137104034423828,-3.992582321166992,-1.63326096534729,5.779999999999921
-1.52043616771698,-3.9653005599975586,-1.6570770740509033,5.789999999999921
-1.848936915397644,-3.336052417755127,-1.1645421981811523,5.799999999999921
-1.6669963598251343,-3.3852896690368652,-0.9262275695800781,5.809999999999921
-1.237131118774414,-3.637573719024658,-0.533257246017456,5.81999999999992
-0.7373781204223633,-4.0676984786987305,0.13921785354614258,5.82999999999992
-0.33740735054016113,-4.306978225708008,1.1252455711364746,5.83999999999992
0.06511843204498291,-3.8330583572387695,2.187297821044922,5.84999999999992
0.2002100944519043,-3.105548858642578,2.490659236907959,5.8599999999999195
0.11821019649505615,-2.0106310844421387,2.488532066345215,5.869999999999919
-0.03199660778045654,-0.7265291213989258,2.252096176147461,5.879999999999919
-0.10102629661560059,0.49756336212158203,2.0705063343048096,5.889999999999919
-0.12785756587982178,1.7522897720336914,1.7535202503204346,5.899999999999919
-0.595911979675293,3.7128915786743164,1.8370146751403809,5.909999999999918
-1.3011246919631958,5.761961936950684,2.7294704914093018,5.919999999999918
-2.2671241760253906,7.969720840454102,4.050266265869141,5.929999999999918
-2.0043506622314453,6.101822853088379,5.1798834800720215,5.939999999999918
-1.8916031122207642,3.108583450317383,4.734218120574951,5.949999999999918
-2.3286375999450684,0.0816049575805664,2.9466817378997803,5.959999999999917
-2.15090274810791,-0.7861833572387695,1.7578976154327393,5.969999999999917
-1.6831965446472168,2.098848342895508,0.5428926944732666,5.979999999999917
-2.402266502380371,7.407573699951172,-2.0794005393981934,5.989999999999917
-3.7874410152435303,12.341017723083496,-7.12523078918457,5.9999999999999165
-5.553783893585205,14.369791984558105,-10.238655090332031,6.009999999999916
-1.7202141284942627,9.759714126586914,-6.100741386413574,6.019999999999916
2.646552801132202,0.6502799987792969,4.571592330932617,6.029999999999916
3.373749256134033,-4.937786102294922,4.585775375366211,6.039999999999916
3.553476333618164,-8.297465324401855,-2.659524440765381,6.0499999999999154
3.745908498764038,-9.345253944396973,-7.251130104064941,6.059999999999915
3.068948745727539,-7.4773149490356445,-7.569703578948975,6.069999999999915
3.172283172607422,-3.312251091003418,-5.124137878417969,6.079999999999915
3.5902931690216064,0.9930734634399414,-2.350616455078125,6.089999999999915
3.6083998680114746,3.3616981506347656,-0.8067461252212524,6.099999999999914
3.597923994064331,3.3181772232055664,-0.6603740453720093,6.109999999999914
1.1456940174102783,3.211960792541504,-1.037208914756775,6.119999999999914
-0.15573495626449585,0.7889118194580078,-1.7744067907333374,6.129999999999914
-1.126699686050415,-1.9487576484680176,-1.8927083015441895,6.1399999999999135
-1.9407548904418945,-4.052706718444824,-1.492818832397461,6.149999999999913
-2.570028066635132,-4.638387203216553,-1.2325021028518677,6.159999999999913
-2.727001190185547,-4.379874229431152,-1.130758285522461,6.169999999999913
-2.109907627105713,-3.4759750366210938,-1.2150901556015015,6.179999999999913
-0.8779432773590088,-2.539706230163574,-1.4417985677719116,6.1899999999999125
-0.04513627290725708,-1.2570104598999023,-1.7430336475372314,6.199999999999912
0.8702026605606079,-0.4299507141113281,-2.2694907188415527,6.209999999999912
1.2272496223449707,-0.37021923065185547,-1.924116611480713,6.219999999999912
1.2433019876480103,-0.5347528457641602,-1.2384357452392578,6.229999999999912
1.127837061882019,-0.8569965362548828,-0.21804207563400269,6.239999999999911
1.3908320665359497,-1.0790414810180664,0.9455739855766296,6.249999999999911
1.8496531248092651,-1.316004753112793,1.7338755130767822,6.259999999999911
2.286865711212158,-1.3308563232421875,2.0616726875305176,6.269999999999911
2.5471625328063965,-1.2480335235595703,1.9341919422149658,6.2799999999999105
2.6172335147857666,-1.1250925064086914,1.6055574417114258,6.28999999999991
2.290236234664917,-0.8975467681884766,1.1648855209350586,6.29999999999991
1.7804723978042603,-0.6228580474853516,1.2650946378707886,6.30999999999991
1.3405712842941284,-0.5333881378173828,1.777230978012085,6.31999999999991
0.716741681098938,-0.21973800659179688,2.7350127696990967,6.3299999999999095
0.14289668202400208,0.03320789337158203,3.195422649383545,6.339999999999909
-0.41908082365989685,0.32122039794921875,3.2346739768981934,6.349999999999909
-0.4628416895866394,0.4696054458618164,2.7736148834228516,6.359999999999909
-0.13060426712036133,0.5330810546875,2.2820968627929688,6.369999999999909
0.2700323164463043,0.7166070938110352,2.003450632095337,6.379999999999908
0.36244791746139526,1.463841438293457,2.0402181148529053,6.389999999999908
0.4186205565929413,2.0335779190063477,2.4133782386779785,6.399999999999908
0.8859634399414062,2.427412986755371,2.663311004638672,6.409999999999908
1.5265545845031738,2.2502670288085938,2.5227866172790527,6.419999999999908
1.9697742462158203,1.7581281661987305,2.0647692680358887,6.429999999999907
2.1381988525390625,1.3007535934448242,1.0250051021575928,6.439999999999907
1.9335973262786865,1.4823493957519531,-0.42677152156829834,6.449999999999907
1.653899073600769,1.9517765045166016,-1.05795156955719,6.459999999999907
1.528232455253601,2.939455986022949,-1.408972978591919,6.4699999999999065
1.2091988325119019,3.983980178833008,-3.298163414001465,6.479999999999906
0.21688181161880493,4.765692710876465,-4.716214179992676,6.489999999999906
-0.6126111149787903,4.7565717697143555,-2.9658796787261963,6.499999999999906
-1.9169434309005737,4.757534027099609,-0.19276025891304016,6.509999999999906
-2.2432610988616943,5.337696075439453,0.5452399849891663,6.519999999999905
-2.654494047164917,6.055097579956055,0.6567966341972351,6.529999999999905
-2.5387818813323975,4.96619987487793,-0.24389159679412842,6.539999999999905
-3.1075706481933594,4.306187629699707,-2.5384902954101562,6.549999999999905
-3.180941104888916,4.3234710693359375,-2.7527079582214355,6.559999999999905
-2.4691545963287354,4.349722862243652,-4.960072994232178,6.569999999999904
-1.9905046224594116,3.903134346008301,-4.331552982330322,6.579999999999904
-1.5791940689086914,2.7187538146972656,-3.5469985008239746,6.589999999999904
-1.3719887733459473,0.9135503768920898,-2.6764073371887207,6.599999999999904
-1.3889386653900146,-0.7571353912353516,-1.7420954704284668,6.6099999999999035
-1.6221470832824707,-1.9212141036987305,0.12704849243164062,6.619999999999903
-1.1191600561141968,-2.652884006500244,3.1999318599700928,6.629999999999903
-0.4807829260826111,-2.521083354949951,2.764436960220337,6.639999999999903
0.6950928568840027,-1.9223928451538086,-0.13979506492614746,6.649999999999903
1.6543163061141968,-1.581045150756836,-2.235750198364258,6.659999999999902
2.145796060562134,-2.075465679168701,-2.9029831886291504,6.669999999999902
2.261476516723633,-2.959827423095703,-2.067089319229126,6.679999999999902
1.7058179378509521,-3.5398168563842773,-1.2351515293121338,6.689999999999902
1.8749613761901855,-4.7966437339782715,-2.1046180725097656,6.699999999999902
1.4307621717453003,-5.315452575683594,-2.0564799308776855,6.709999999999901
0.656657338142395,-5.075864791870117,-1.7400145530700684,6.719999999999901
-0.17776870727539062,-5.102835655212402,-1.8045942783355713,6.729999999999901
-0.8650065660476685,-4.807692050933838,-1.7678296566009521,6.739999999999901
-1.5628812313079834,-4.206963539123535,-1.7676854133605957,6.7499999999999005
-1.6665185689926147,-3.7484359741210938,-1.5218908786773682,6.7599999999999
-1.7474695444107056,-3.113631248474121,-1.32541823387146,6.7699999999999
-1.8561089038848877,-2.885316848754883,-1.298462152481079,6.7799999999999
-1.6619460582733154,-3.0604405403137207,-0.9111819267272949,6.7899999999999
-1.409961462020874,-3.4402008056640625,-0.27932143211364746,6.7999999999998995
-1.0606414079666138,-3.749234199523926,0.47005319595336914,6.809999999999899
-0.811332106590271,-3.7832846641540527,1.2644705772399902,6.819999999999899
-0.5293483734130859,-3.48696231842041,2.0670700073242188,6.829999999999899
-0.5464355945587158,-2.908174991607666,2.1699094772338867,6.839999999999899
-0.8332087993621826,-1.8778605461120605,1.8707091808319092,6.849999999999898
-1.0181585550308228,-0.7021512985229492,1.4899251461029053,6.859999999999898
-0.6213492155075073,1.0033197402954102,0.7438979148864746,6.869999999999898
-0.12732291221618652,3.0750503540039062,1.1031553745269775,6.879999999999898
0.49336886405944824,5.210536003112793,2.038449287414551,6.8899999999998975
0.549251914024353,7.237453460693359,3.2538199424743652,6.899999999999897
0.42890822887420654,6.673467636108398,4.831678867340088,6.909999999999897
-0.05109846591949463,4.016748428344727,6.126263618469238,6.919999999999897
-1.9900424480438232,-0.1426839828491211,5.366854190826416,6.929999999999897
-3.2072219848632812,-2.5078749656677246,2.8075058460235596,6.9399999999998965
-3.0018179416656494,-3.459624767303467,-0.05730485916137695,6.949999999999896
-2.137481212615967,-0.7129125595092773,-1.0438134670257568,6.959999999999896
-2.168189525604248,3.7875280380249023,-2.189389228820801,6.969999999999896
-2.7505674362182617,8.968360900878906,-6.331072807312012,6.979999999999896
-5.194693565368652,14.432538986206055,-9.231348991394043,6.989999999999895
-4.567049980163574,16.32107925415039,-9.74227237701416,6.999999999999895
-0.25585126876831055,12.840851783752441,-5.007190227508545,7.009999999999895
1.7181603908538818,3.933237075805664,4.735124111175537,7.019999999999895
1.4211363792419434,-3.825324535369873,5.457776069641113,7.0299999999998946
2.147475004196167,-8.499436378479004,-1.8121099472045898,7.039999999999894
2.6683921813964844,-9.9929780960083,-7.974497318267822,7.049999999999894
2.401033401489258,-7.731036186218262,-8.209692001342773,7.059999999999894
3.031264305114746,-2.837042808532715,-4.636157035827637,7.069999999999894
3.959514617919922,1.617863655090332,-1.4321684837341309,7.0799999999998935
4.331002712249756,4.96682071685791,0.42941999435424805,7.089999999999893
3.8657097816467285,5.72281551361084,-0.2682929039001465,7.099999999999893
2.1419577598571777,3.173891067504883,-2.6082186698913574,7.109999999999893
0.6022672057151794,0.29883575439453125,-3.660769462585449,7.119999999999893
-1.203786849975586,-2.3934144973754883,-2.9028687477111816,7.129999999999892
-2.8655099868774414,-3.890801429748535,-1.607560396194458,7.139999999999892
-3.5245397090911865,-4.155301094055176,-0.6128373146057129,7.149999999999892
-3.2442355155944824,-3.462395668029785,-0.20432734489440918,7.159999999999892
-2.3527603149414062,-2.3435521125793457,-0.3541855812072754,7.169999999999892
-1.280221939086914,-1.7283058166503906,-0.7280749082565308,7.179999999999891
-0.37367087602615356,-0.8337211608886719,-1.095752239227295,7.189999999999891
0.3003089129924774,-0.2741966247558594,-1.3349835872650146,7.199999999999891
1.8738195896148682,-0.004444122314453125,-1.3914140462875366,7.209999999999891
1.571480393409729,-0.15433597564697266,-1.0216597318649292,7.2199999999998905
1.4977991580963135,-0.5919532775878906,-0.15505480766296387,7.22999999999989
1.1804049015045166,-1.072249412536621,0.40658366680145264,7.23999999999989
1.013584017753601,-1.5645570755004883,0.6552364826202393,7.24999999999989
1.3007514476776123,-1.7170238494873047,0.7462977170944214,7.25999999999989
1.4474353790283203,-2.307802677154541,0.5491713881492615,7.269999999999889
2.039125919342041,-1.1149330139160156,0.7621281147003174,7.279999999999889
1.168923258781433,-1.0858831405639648,0.7407867312431335,7.289999999999889
1.7030932903289795,-0.6311273574829102,1.1980184316635132,7.299999999999889
0.8659229278564453,-0.1705036163330078,1.1394433975219727,7.309999999999889
0.49709606170654297,-0.6045846939086914,1.4021011590957642,7.319999999999888
0.2648148536682129,-0.8968448638916016,1.8444440364837646,7.329999999999888
0.09190359711647034,-0.8844814300537109,2.107623815536499,7.339999999999888
-0.007915794849395752,-0.7447366714477539,2.289564609527588,7.349999999999888
0.207830548286438,-0.8727216720581055,2.0801875591278076,7.3599999999998875
0.7493453025817871,-1.2469024658203125,0.994838297367096,7.369999999999887
0.8322485685348511,-1.2397937774658203,-0.6619688272476196,7.379999999999887
0.5650386810302734,-0.5926170349121094,-1.6109315156936646,7.389999999999887
0.5848873257637024,0.08898067474365234,-1.2446223497390747,7.399999999999887
0.9352849721908569,0.08665943145751953,0.09469321370124817,7.4099999999998865
1.225954294204712,0.09958839416503906,1.4000177383422852,7.419999999999886
1.7707237005233765,0.02246570587158203,2.8271396160125732,7.429999999999886
1.8210389614105225,0.027448654174804688,2.781027317047119,7.439999999999886
1.599611759185791,0.23872947692871094,0.8164430856704712,7.449999999999886
0.9943246841430664,0.3831920623779297,-1.7317664623260498,7.459999999999885
0.23255014419555664,1.4860258102416992,-3.6728408336639404,7.469999999999885
-0.3767508864402771,3.849980354309082,-2.914327383041382,7.479999999999885
-0.8626412153244019,7.102936744689941,0.4649544358253479,7.489999999999885
-0.44821107387542725,9.574474334716797,2.1431798934936523,7.4999999999998845
0.12127745151519775,8.318888664245605,-0.6067662835121155,7.509999999999884
0.04912269115447998,5.8651885986328125,-3.5334486961364746,7.519999999999884
-2.490549087524414,4.908611297607422,-5.025299549102783,7.529999999999884
-3.956643581390381,5.048557281494141,-5.162021636962891,7.539999999999884
-4.429433822631836,4.399920463562012,-4.0236358642578125,7.5499999999998835
-3.0966811180114746,3.4186410903930664,-2.6094658374786377,7.559999999999883
-2.0957212448120117,2.9121904373168945,-2.123464584350586,7.569999999999883
-1.3468284606933594,2.603414535522461,-2.3337156772613525,7.579999999999883
-1.4118244647979736,2.0642614364624023,-2.506891965866089,7.589999999999883
-1.8212913274765015,1.0979413986206055,-2.526573896408081,7.599999999999882
-1.5965137481689453,-0.26769447326660156,-2.2751266956329346,7.609999999999882
-1.8146291971206665,-1.572763442993164,-1.9846923351287842,7.619999999999882
-1.9295088052749634,-2.8705363273620605,-1.9631361961364746,7.629999999999882
-2.356213331222534,-3.272644519805908,-2.0713651180267334,7.6399999999998816
-2.0327367782592773,-2.9033546447753906,-2.243889331817627,7.649999999999881
-1.4695134162902832,-2.3550848960876465,-2.251415729522705,7.659999999999881
-1.4027044773101807,-1.411818027496338,-2.4153826236724854,7.669999999999881
-0.9360338449478149,-0.6526393890380859,-2.701693296432495,7.679999999999881
-0.3904743194580078,-0.30625438690185547,-2.67075252532959,7.6899999999998805
-0.4817776679992676,-0.3695840835571289,-1.8105496168136597,7.69999999999988
2.6293587684631348,-3.060593605041504,-1.7393723726272583,7.70999999999988
-0.09886562824249268,-2.2476606369018555,-0.6585986614227295,7.71999999999988
-0.09761273860931396,-1.5428495407104492,-0.10601043701171875,7.72999999999988
-0.38957440853118896,-0.7068519592285156,-0.9794087409973145,7.739999999999879
-0.8042628765106201,-0.04725933074951172,-0.8961174488067627,7.749999999999879
-0.4309513568878174,-0.5788650512695312,-0.7968122959136963,7.759999999999879
-0.2218334674835205,-0.7748241424560547,-0.33074951171875,7.769999999999879
-0.17703545093536377,-0.9029531478881836,-0.03650712966918945,7.779999999999879
0.7449793815612793,-2.1178393363952637,-0.6425204277038574,7.789999999999878
0.260847806930542,-0.7961673736572266,-0.5426616668701172,7.799999999999878
-0.7928184270858765,2.3258228302001953,-0.6844770908355713,7.809999999999878
-0.9900109767913818,1.6393280029296875,-0.33463001251220703,7.819999999999878
0.34679150581359863,-0.49495792388916016,-0.38063788414001465,7.8299999999998775
1.0445659160614014,-1.7379684448242188,-0.36534929275512695,7.839999999999877
1.0510964393615723,-2.127676486968994,-0.1437549591064453,7.849999999999877
0.4644656181335449,-1.818899154663086,0.04263734817504883,7.859999999999877
0.24558568000793457,-1.4322361946105957,-0.08487653732299805,7.869999999999877
0.25344038009643555,-1.2410564422607422,-0.7624430656433105,7.879999999999876
0.5421804785728455,-0.8111610412597656,-1.7784850597381592,7.889999999999876
-0.03750455379486084,-0.26664161682128906,-2.3941450119018555,7.899999999999876
-1.316956639289856,0.0056438446044921875,-3.05507755279541,7.909999999999876
-1.2846873998641968,-0.8842887878417969,-3.20078182220459,7.919999999999876
-0.9164819717407227,-0.802067756652832,-2.43768310546875,7.929999999999875
-1.6641632318496704,1.4942188262939453,-0.019756317138671875,7.939999999999875
-3.7939631938934326,0.09518718719482422,2.9004523754119873,7.949999999999875
-2.0064010620117188,-0.11264514923095703,1.5731792449951172,7.959999999999875
-2.04226016998291,1.479654312133789,-0.07642638683319092,7.9699999999998745
-1.7173991203308105,1.4865226745605469,-2.104384183883667,7.979999999999874
1.0430700778961182,1.4875850677490234,-4.904732704162598,7.989999999999874
