AccX,AccY,AccZ,SampleRate
0.1384565234184265,-1.037144660949707,0.5913137793540955,0
0.11288285255432129,-0.3521089553833008,0.2751988172531128,0.01
0.06501758098602295,0.5305967330932617,0.28912782669067383,0.02
-0.12078487873077393,1.206151008605957,0.7654716968536377,0.03
-0.49392589926719666,1.307602882385254,0.953129768371582,0.04
-0.737999439239502,1.1192941665649414,0.6381722688674927,0.05
-0.2888568341732025,0.9687337875366211,0.9646633863449097,0.060000000000000005
0.4332626461982727,1.0419607162475586,1.5185930728912354,0.07
1.3022527694702148,1.2524757385253906,1.9991490840911865,0.08
2.1147074699401855,1.4782934188842773,2.060115098953247,0.09
3.222041606903076,1.7437381744384766,2.3530685901641846,0.09999999999999999
4.199027061462402,2.1593589782714844,2.923274040222168,0.10999999999999999
5.226789951324463,2.418959617614746,3.120584011077881,0.11999999999999998
5.216996669769287,2.685460090637207,2.7087225914001465,0.12999999999999998
4.507297992706299,2.767136573791504,2.4599101543426514,0.13999999999999999
3.5464510917663574,2.6443920135498047,2.04435133934021,0.15
2.642502784729004,2.879237174987793,1.559016466140747,0.16
1.4952218532562256,4.085997581481934,0.8874940872192383,0.17
0.7761883735656738,5.235019683837891,0.5981155037879944,0.18000000000000002
0.622664213180542,4.941679954528809,-0.04834049940109253,0.19000000000000003
0.6887263059616089,3.523740768432617,-1.3249034881591797,0.20000000000000004
0.6899818778038025,1.9345626831054688,-3.2918541431427,0.21000000000000005
0.7115850448608398,0.5458889007568359,-4.520621299743652,0.22000000000000006
0.17403370141983032,-0.19748497009277344,-4.13799524307251,0.23000000000000007
-0.37899094820022583,-0.7333335876464844,-2.2122623920440674,0.24000000000000007
-0.13587802648544312,-0.7891817092895508,-0.6041826605796814,0.25000000000000006
0.508343517780304,-0.2870931625366211,-1.5029078722000122,0.26000000000000006
1.069586157798767,0.9138374328613281,-2.2688770294189453,0.2700000000000001
1.163282871246338,2.490377426147461,-1.9258861541748047,0.2800000000000001
0.5777743458747864,3.197299003601074,-1.179343342781067,0.2900000000000001
-0.40411269664764404,2.6374168395996094,-1.020038366317749,0.3000000000000001
-1.4015591144561768,2.403993606567383,-1.5160397291183472,0.3100000000000001
-9.44478702545166,3.7969541549682617,-2.0875120162963867,0.3200000000000001
-17.212940216064453,5.040696144104004,-2.347853660583496,0.3300000000000001
-7.162197589874268,2.4501476287841797,-2.539077043533325,0.34000000000000014
-0.7970168590545654,-0.5298948287963867,-1.9078603982925415,0.35000000000000014
1.221581220626831,-3.266364097595215,2.3043510913848877,0.36000000000000015
2.1747710704803467,-3.6706533432006836,2.9728925228118896,0.37000000000000016
2.8302574157714844,-4.234961032867432,1.0448288917541504,0.38000000000000017
2.6049628257751465,-4.354831695556641,-1.0862908363342285,0.3900000000000002
2.1399192810058594,-4.585788726806641,-2.8387746810913086,0.4000000000000002
1.2988431453704834,-4.755215644836426,-2.7509543895721436,0.4100000000000002
0.11491763591766357,-4.733727931976318,-1.8196218013763428,0.4200000000000002
-0.2335059642791748,-4.703189849853516,-1.4852640628814697,0.4300000000000002
-0.4355313777923584,-4.2177252769470215,-1.4093472957611084,0.4400000000000002
-0.6356768608093262,-3.910665512084961,-1.3245625495910645,0.45000000000000023
-1.0052460432052612,-3.680203914642334,-1.283529281616211,0.46000000000000024
-1.2789329290390015,-3.505558490753174,-1.3028361797332764,0.47000000000000025
-1.340023159980774,-3.455475330352783,-1.289872646331787,0.48000000000000026
-1.1924943923950195,-3.364964008331299,-1.017864465713501,0.49000000000000027
-0.9591162204742432,-3.417766571044922,-0.6229469776153564,0.5000000000000002
-0.4862818717956543,-3.6775951385498047,-0.07321548461914062,0.5100000000000002
-0.035485267639160156,-3.943110942840576,0.6173567771911621,0.5200000000000002
0.31556010246276855,-3.776961326599121,1.2572250366210938,0.5300000000000002
0.5173245668411255,-2.9389114379882812,1.7301840782165527,0.5400000000000003
0.49553513526916504,-1.8642816543579102,2.2551209926605225,0.5500000000000003
0.1128237247467041,-0.24436283111572266,3.348701000213623,0.5600000000000003
-0.5326570272445679,1.1006507873535156,2.911642551422119,0.5700000000000003
-1.2228561639785767,2.2748804092407227,1.2006299495697021,0.5800000000000003
-2.4351725578308105,4.005767822265625,0.19479131698608398,0.5900000000000003
-4.632989883422852,6.517271995544434,0.7947912216186523,0.6000000000000003
-5.558387756347656,7.878810882568359,2.35740327835083,0.6100000000000003
-3.826679229736328,5.4322614669799805,5.177060127258301,0.6200000000000003
-2.3696093559265137,1.1155529022216797,6.989800453186035,0.6300000000000003
-1.3390185832977295,-2.7960753440856934,4.9933977127075195,0.6400000000000003
-0.0047217607498168945,-6.149450302124023,1.4220659732818604,0.6500000000000004
1.358843207359314,-5.198485374450684,-1.1683456897735596,0.6600000000000004
1.3566347360610962,-5.175926208496094,-1.2207369804382324,0.6700000000000004
-0.3398681879043579,6.2179765701293945,-5.602932453155518,0.6800000000000004
-1.0041308403015137,13.679325103759766,-8.718297004699707,0.6900000000000004
-3.8396451473236084,20.23436737060547,-8.87865161895752,0.7000000000000004
-3.366518974304199,21.34854507446289,-8.296821594238281,0.7100000000000004
-0.6060984134674072,7.751949310302734,1.9266974925994873,0.7200000000000004
0.335141658782959,-2.4810309410095215,6.729034900665283,0.7300000000000004
1.051729679107666,-9.33067798614502,-0.833080530166626,0.7400000000000004
1.2357984781265259,-12.464006423950195,-6.928350448608398,0.7500000000000004
1.637653112411499,-11.67940616607666,-8.223565101623535,0.7600000000000005
2.679841995239258,-6.552463531494141,-4.484201431274414,0.7700000000000005
4.396856307983398,-0.5594577789306641,-1.5061755180358887,0.7800000000000005
5.67045259475708,3.5260133743286133,-0.5618319511413574,0.7900000000000005
6.167083740234375,7.120515823364258,-0.4098052978515625,0.8000000000000005
4.3445820808410645,7.104238510131836,-2.2316083908081055,0.8100000000000005
2.1510255336761475,3.017500877380371,-3.787898302078247,0.8200000000000005
0.2134697437286377,-1.5627727508544922,-4.1126580238342285,0.8300000000000005
-1.1638764142990112,-5.157079696655273,-3.5010321140289307,0.8400000000000005
-2.7482967376708984,-6.23266077041626,-2.5907483100891113,0.8500000000000005
-5.289881229400635,-5.331575870513916,-1.7463690042495728,0.8600000000000005
-4.730953216552734,-3.594438076019287,-1.0036699771881104,0.8700000000000006
-2.571258544921875,-2.210811138153076,-0.5237807035446167,0.8800000000000006
-1.0645538568496704,-0.7578048706054688,-0.5398873090744019,0.8900000000000006
0.39277517795562744,0.2620506286621094,-1.0231703519821167,0.9000000000000006
1.4655373096466064,0.16141700744628906,-1.4524203538894653,0.9100000000000006
1.9788024425506592,-0.31732845306396484,-2.003378391265869,0.9200000000000006
2.35556697845459,-1.0606584548950195,-1.9914937019348145,0.9300000000000006
2.357400894165039,-1.5298786163330078,-1.3692563772201538,0.9400000000000006
2.2866501808166504,-1.4882488250732422,-0.18713891506195068,0.9500000000000006
2.2827999591827393,-1.1708993911743164,1.0633816719055176,0.9600000000000006
2.004194974899292,-0.9208755493164062,1.6645393371582031,0.9700000000000006
1.901713490486145,-1.2535591125488281,1.7776474952697754,0.9800000000000006
1.772821307182312,-1.7287101745605469,1.176401138305664,0.9900000000000007
1.6352007389068604,-1.8218932151794434,0.35889819264411926,1.0000000000000007
1.5493483543395996,-1.460906982421875,-0.10155920684337616,1.0100000000000007
1.359107494354248,-0.8562288284301758,0.2525213360786438,1.0200000000000007
1.123932123184204,-0.5370035171508789,0.8423059582710266,1.0300000000000007
0.6281042098999023,-0.43406105041503906,1.4867689609527588,1.0400000000000007
0.12816709280014038,-0.30556678771972656,1.9826050996780396,1.0500000000000007
-0.23944246768951416,0.04245281219482422,2.4374876022338867,1.0600000000000007
-0.38655662536621094,0.34186363220214844,2.716787576675415,1.0700000000000007
-0.43118029832839966,0.9205160140991211,2.7764499187469482,1.0800000000000007
-0.20031070709228516,1.4499320983886719,2.667140007019043,1.0900000000000007
0.10306712985038757,1.9221925735473633,2.2778172492980957,1.1000000000000008
0.5929685831069946,2.0851287841796875,2.062619209289551,1.1100000000000008
1.627078890800476,2.0936403274536133,1.5386745929718018,1.1200000000000008
2.65934419631958,1.9976825714111328,1.1767162084579468,1.1300000000000008
3.3406424522399902,1.8874597549438477,1.4439055919647217,1.1400000000000008
3.4828529357910156,2.037764549255371,1.0216670036315918,1.1500000000000008
3.510111093521118,2.4156341552734375,-0.6289292573928833,1.1600000000000008
2.6652579307556152,3.3566694259643555,-1.326224684715271,1.1700000000000008
1.5595369338989258,4.656949043273926,-0.9580327868461609,1.1800000000000008
0.49837324023246765,5.918829917907715,-1.902251958847046,1.1900000000000008
-0.030711352825164795,5.6372222900390625,-3.3611929416656494,1.2000000000000008
-0.46234625577926636,4.767403602600098,-3.3204638957977295,1.2100000000000009
-1.6816589832305908,4.066946029663086,-1.5753785371780396,1.2200000000000009
-2.9049019813537598,4.045479774475098,0.070691779255867,1.2300000000000009
-3.0509514808654785,4.319291114807129,0.7468370795249939,1.2400000000000009
-2.642289161682129,4.184083938598633,0.36675259470939636,1.2500000000000009
-2.6766104698181152,3.8511829376220703,-1.5574724674224854,1.260000000000001
-2.4632821083068848,3.8140201568603516,-3.829573154449463,1.270000000000001
-2.0445642471313477,3.494527816772461,-5.6191253662109375,1.280000000000001
-1.5689506530761719,2.8386449813842773,-5.258739948272705,1.290000000000001
-1.663243293762207,2.2728958129882812,-4.255105018615723,1.300000000000001
-2.0025687217712402,1.513859748840332,-3.6619386672973633,1.310000000000001
-2.565901279449463,-0.3317127227783203,-3.339827537536621,1.320000000000001
-2.7314727306365967,-1.499593734741211,-2.4348320960998535,1.330000000000001
-2.4521286487579346,-2.544569492340088,0.5985808372497559,1.340000000000001
-1.0511260032653809,-3.390981674194336,3.093167781829834,1.350000000000001
0.05149143934249878,-3.1897854804992676,2.2951858043670654,1.360000000000001
1.0825763940811157,-2.544248580932617,0.04670143127441406,1.370000000000001
1.9013681411743164,-2.508523941040039,-1.9847567081451416,1.380000000000001
1.7288265228271484,-2.637864589691162,-2.3705801963806152,1.390000000000001
2.056583881378174,-4.045569896697998,-2.4898691177368164,1.400000000000001
1.9772436618804932,-5.304879665374756,-2.254034996032715,1.410000000000001
1.3967808485031128,-5.255490303039551,-1.8536934852600098,1.420000000000001
0.7529951930046082,-4.874123573303223,-1.9105899333953857,1.430000000000001
-0.08928334712982178,-4.5898003578186035,-2.1724677085876465,1.440000000000001
0.030279994010925293,-4.537608623504639,-2.23228120803833,1.450000000000001
-0.636066198348999,-4.132016181945801,-1.8863461017608643,1.460000000000001
-1.1858327388763428,-3.4925642013549805,-1.503237009048462,1.470000000000001
-1.5469797849655151,-2.9472880363464355,-1.3163785934448242,1.480000000000001
-1.338104248046875,-2.5984997749328613,-0.711904764175415,1.490000000000001
-0.9445655345916748,-2.778153896331787,0.38349246978759766,1.500000000000001
-0.5358061790466309,-3.1607589721679688,1.1681675910949707,1.5100000000000011
-0.17989063262939453,-3.527841567993164,1.776109218597412,1.5200000000000011
0.3399689197540283,-3.371300220489502,1.8986940383911133,1.5300000000000011
0.6010196208953857,-2.7107720375061035,1.4761123657226562,1.5400000000000011
0.4703712463378906,-1.7086806297302246,1.502225399017334,1.5500000000000012
0.2243131399154663,-0.36673545837402344,2.567558526992798,1.5600000000000012
-0.24718999862670898,0.47379302978515625,3.267427682876587,1.5700000000000012
-0.8730592727661133,1.3482027053833008,2.909785032272339,1.5800000000000012
-1.5652024745941162,2.3168249130249023,2.183100461959839,1.5900000000000012
-2.4859118461608887,3.753239631652832,1.6254262924194336,1.6000000000000012
-3.4661178588867188,5.299713134765625,1.7234828472137451,1.6100000000000012
-3.07932710647583,4.625836372375488,3.10262131690979,1.6200000000000012
-2.7050740718841553,3.1464643478393555,3.4625813961029053,1.6300000000000012
-3.1508235931396484,1.8923149108886719,2.301241636276245,1.6400000000000012
-3.633903980255127,2.575554847717285,-0.09192991256713867,1.6500000000000012
-3.505807399749756,6.8397722244262695,-1.898355484008789,1.6600000000000013
-3.7399635314941406,12.027186393737793,-4.338491916656494,1.6700000000000013
-4.149847984313965,14.053420066833496,-7.182886123657227,1.6800000000000013
-1.70784330368042,10.495813369750977,-5.826298713684082,1.6900000000000013
2.33237886428833,3.98590087890625,-0.843818187713623,1.7000000000000013
4.677183151245117,-2.8236618041992188,1.2193059921264648,1.7100000000000013
4.552920341491699,-6.696102619171143,-1.7373528480529785,1.7200000000000013
4.18424129486084,-7.793368339538574,-6.440661430358887,1.7300000000000013
3.546523094177246,-5.591374397277832,-6.878827095031738,1.7400000000000013
2.6736083030700684,-2.1346545219421387,-4.495120525360107,1.7500000000000013
2.6889846324920654,1.344991683959961,-2.4257421493530273,1.7600000000000013
2.622455358505249,1.2884817123413086,-2.310908794403076,1.7700000000000014
2.7360591888427734,4.029664993286133,-2.1991360187530518,1.7800000000000014
1.4012702703475952,3.618218421936035,-2.293436288833618,1.7900000000000014
-0.2309938669204712,1.681687355041504,-1.927744746208191,1.8000000000000014
-0.8949100971221924,-0.28951549530029297,-1.4823211431503296,1.8100000000000014
-1.0556113719940186,-2.442959785461426,-0.9751101732254028,1.8200000000000014
-0.9191785454750061,-4.279466152191162,-1.569779634475708,1.8300000000000014
-0.7989860773086548,-5.063484191894531,-2.5090866088867188,1.8400000000000014
-0.991599440574646,-4.642801761627197,-2.4461631774902344,1.8500000000000014
-1.4914398193359375,-3.061701774597168,-2.1902177333831787,1.8600000000000014
-1.3774559497833252,-1.5570611953735352,-2.051379680633545,1.8700000000000014
-0.6641480922698975,-0.18925762176513672,-1.8357455730438232,1.8800000000000014
0.23282533884048462,0.6472139358520508,-1.5248149633407593,1.8900000000000015
1.2720062732696533,0.3905210494995117,-0.9161621332168579,1.9000000000000015
1.605029582977295,-0.38846874237060547,-0.3778684735298157,1.9100000000000015
1.8480477333068848,-1.280177116394043,-0.015128254890441895,1.9200000000000015
2.0281026363372803,-1.8154654502868652,0.21801912784576416,1.9300000000000015
2.157726526260376,-1.9585728645324707,0.39586907625198364,1.9400000000000015
2.1994028091430664,-1.8479547500610352,0.4471234679222107,1.9500000000000015
2.0645346641540527,-1.5267791748046875,0.14067459106445312,1.9600000000000015
1.7990096807479858,-1.3040170669555664,-0.35189658403396606,1.9700000000000015
1.609915018081665,-1.2730112075805664,-0.6232931613922119,1.9800000000000015
1.6723110675811768,-1.4624824523925781,-0.24488967657089233,1.9900000000000015
1.5688576698303223,-1.3288326263427734,0.5149359703063965,2.0000000000000013
1.451040267944336,-0.8745098114013672,1.4266654253005981,2.010000000000001
1.222864031791687,-0.48756885528564453,2.1132869720458984,2.020000000000001
0.7839041352272034,-0.32858943939208984,2.3932857513427734,2.0300000000000007
0.2600453495979309,-0.15582656860351562,2.0386853218078613,2.0400000000000005
-0.02304178476333618,-0.021950721740722656,1.757582664489746,2.0500000000000003
-0.07584762573242188,0.20470619201660156,1.6709985733032227,2.06
0.10097217559814453,0.46668338775634766,1.9837760925292969,2.07
0.28550732135772705,0.45717811584472656,2.4502663612365723,2.0799999999999996
0.3868430256843567,0.6831464767456055,2.543729782104492,2.0899999999999994
0.7173190712928772,1.2731285095214844,2.144023895263672,2.099999999999999
1.329398274421692,1.9390649795532227,1.8982841968536377,2.109999999999999
2.2840163707733154,2.3352746963500977,1.543715238571167,2.1199999999999988
3.33304500579834,2.2911643981933594,1.2991623878479004,2.1299999999999986
4.023602485656738,2.0243024826049805,1.6910405158996582,2.1399999999999983
4.07149076461792,1.9179058074951172,2.5755457878112793,2.149999999999998
3.649268627166748,2.130307197570801,2.2165184020996094,2.159999999999998
3.172571897506714,2.601572036743164,0.9569731950759888,2.1699999999999977
2.147017240524292,3.8093414306640625,0.177831768989563,2.1799999999999975
1.198663353919983,4.924496650695801,-0.17134487628936768,2.1899999999999973
0.4695592522621155,4.920611381530762,-2.1131162643432617,2.199999999999997
-0.4215402603149414,3.8895950317382812,-3.4326744079589844,2.209999999999997
-1.6644209623336792,2.6107406616210938,-2.8963351249694824,2.2199999999999966
-2.3927671909332275,2.639516830444336,-1.1601972579956055,2.2299999999999964
-2.456498622894287,4.265018463134766,-0.9518126249313354,2.239999999999996
-1.6502007246017456,5.531381607055664,-0.8712538480758667,2.249999999999996
-0.8460701704025269,5.984684944152832,-1.4543542861938477,2.259999999999996
-1.0501952171325684,5.77290153503418,-3.3212802410125732,2.2699999999999956
-2.128213882446289,5.255335807800293,-5.200872421264648,2.2799999999999954
-2.2216403484344482,5.265317916870117,-5.402948379516602,2.289999999999995
-2.6236443519592285,3.675957679748535,-4.297583103179932,2.299999999999995
-2.766902208328247,2.8142995834350586,-3.422883987426758,2.3099999999999947
-2.939875602722168,1.519749641418457,-3.0252952575683594,2.3199999999999945
-2.8919012546539307,-0.37387657165527344,-2.8851537704467773,2.3299999999999943
-2.5651285648345947,-1.8819551467895508,-1.8834227323532104,2.339999999999994
-1.8904857635498047,-2.689206123352051,0.09357666969299316,2.349999999999994
-0.5522133708000183,-3.7192864418029785,1.550243854522705,2.3599999999999937
0.29237329959869385,-3.7943153381347656,0.9717552661895752,2.3699999999999934
1.3444184064865112,-3.2544493675231934,-0.9893510341644287,2.3799999999999932
2.0826945304870605,-3.3313422203063965,-2.489461898803711,2.389999999999993
1.878051996231079,-3.0757975578308105,-2.8509604930877686,2.399999999999993
1.7859309911727905,-3.6321825981140137,-2.4959356784820557,2.4099999999999926
2.0523109436035156,-4.499937534332275,-2.5463449954986572,2.4199999999999924
1.6057496070861816,-4.822246074676514,-1.973933219909668,2.429999999999992
0.7391529083251953,-4.59955358505249,-2.037001609802246,2.439999999999992
-0.43061327934265137,-4.364615440368652,-2.1395890712738037,2.4499999999999917
-1.385401725769043,-4.275944709777832,-2.125349521636963,2.4599999999999915
-1.7618906497955322,-4.04435396194458,-1.7726960182189941,2.4699999999999913
-1.9256131649017334,-3.408942222595215,-1.6043624877929688,2.479999999999991
-1.8905420303344727,-2.7417335510253906,-1.49312424659729,2.489999999999991
-1.6502339839935303,-2.2694039344787598,-1.2866442203521729,2.4999999999999907
-1.2570233345031738,-2.3531851768493652,-0.7145376205444336,2.5099999999999905
-0.734616756439209,-2.7166342735290527,0.18620729446411133,2.5199999999999902
-0.48291730880737305,-3.022818088531494,0.9107766151428223,2.52999999999999
-0.27958059310913086,-3.1737537384033203,1.3353662490844727,2.53999999999999
0.1258162260055542,-2.887836456298828,1.3890142440795898,2.5499999999999896
0.492348313331604,-2.4864211082458496,1.3567543029785156,2.5599999999999894
0.5748870372772217,-1.766951560974121,1.5019073486328125,2.569999999999989
0.4792431592941284,-0.6630516052246094,1.9852325916290283,2.579999999999989
0.2694905996322632,0.4260435104370117,2.4990227222442627,2.5899999999999888
0.0032186508178710938,1.7992944717407227,3.024623155593872,2.5999999999999885
-0.05663192272186279,1.760824203491211,3.0868754386901855,2.6099999999999883
-1.2681361436843872,4.521115303039551,3.8621301651000977,2.619999999999988
-2.808547258377075,5.524292945861816,3.634449005126953,2.629999999999988
-3.475426435470581,4.266358375549316,3.3870582580566406,2.6399999999999877
-2.9788193702697754,2.190924644470215,2.9607760906219482,2.6499999999999875
-2.733567714691162,-0.3346595764160156,2.1714658737182617,2.6599999999999873
-1.9769535064697266,-1.6728134155273438,0.699512243270874,2.669999999999987
-1.243473768234253,1.6956729888916016,-0.6818370819091797,2.679999999999987
-1.9620848894119263,7.170821189880371,-1.6385560035705566,2.6899999999999866
-3.1458396911621094,13.433825492858887,-4.6926774978637695,2.6999999999999864
-4.353339195251465,15.735368728637695,-6.109241008758545,2.709999999999986
-2.7624011039733887,13.468557357788086,-6.5438737869262695,2.719999999999986
1.027268409729004,6.113369941711426,-1.720665693283081,2.7299999999999858
2.908994674682617,-2.02178955078125,1.2543816566467285,2.7399999999999856
2.617173433303833,-6.619147300720215,-3.9635744094848633,2.7499999999999853
2.965146541595459,-8.904562950134277,-8.185333251953125,2.759999999999985
3.027919292449951,-7.952969551086426,-7.323371410369873,2.769999999999985
3.1632964611053467,-4.27421236038208,-4.420825958251953,2.7799999999999847
3.7616984844207764,-0.1099853515625,-2.51847243309021,2.7899999999999845
4.218247890472412,2.666688919067383,-2.1924822330474854,2.7999999999999843
3.865478038787842,3.8139266967773438,-2.081829786300659,2.809999999999984
1.8302185535430908,2.5444068908691406,-2.3395328521728516,2.819999999999984
0.09528708457946777,0.470672607421875,-2.150805950164795,2.8299999999999836
-0.8975500464439392,-2.551115036010742,-2.286774158477783,2.8399999999999834
-1.6688799858093262,-3.920177459716797,-2.2777597904205322,2.849999999999983
-2.091503143310547,-4.159328937530518,-2.114346981048584,2.859999999999983
-2.167222499847412,-3.5366601943969727,-1.916378378868103,2.869999999999983
-1.995629072189331,-2.4936141967773438,-1.9825363159179688,2.8799999999999826
-1.2895019054412842,-1.8680291175842285,-1.596683144569397,2.8899999999999824
-0.2611149549484253,-1.2769708633422852,-0.9425728917121887,2.899999999999982
0.3117069602012634,-0.7106151580810547,-0.423420786857605,2.909999999999982
0.9560014605522156,-0.16749191284179688,-0.3929191827774048,2.9199999999999817
1.6517536640167236,-0.1823902130126953,-0.8185491561889648,2.9299999999999815
2.0369772911071777,-0.7194700241088867,-1.0758678913116455,2.9399999999999813
1.9905802011489868,-1.1366500854492188,-1.0240705013275146,2.949999999999981
2.144838809967041,-1.400099754333496,-0.5029481649398804,2.959999999999981
2.4629569053649902,-1.4720144271850586,0.41503530740737915,2.9699999999999807
2.579390048980713,-1.4174041748046875,1.663987636566162,2.9799999999999804
2.5471246242523193,-1.2127504348754883,2.640056610107422,2.9899999999999802
2.540079355239868,-1.217599868774414,2.748392343521118,2.99999999999998
2.159928560256958,-1.0106534957885742,2.067518472671509,3.00999999999998
1.8106269836425781,-0.9266242980957031,0.9496222138404846,3.0199999999999796
0.9828852415084839,-0.8525886535644531,0.4002225995063782,3.0299999999999794
0.19179484248161316,-0.9343576431274414,0.46117544174194336,3.039999999999979
-0.4962679445743561,-1.0212841033935547,0.7282201051712036,3.049999999999979
-0.9007419347763062,-0.7734012603759766,1.1196367740631104,3.0599999999999787
-0.9511250257492065,-0.2625608444213867,1.3813610076904297,3.0699999999999785
-0.7918602824211121,0.5539016723632812,1.6607059240341187,3.0799999999999783
-0.41362464427948,1.4047975540161133,1.9408667087554932,3.089999999999978
0.02855736017227173,2.025959014892578,1.9979360103607178,3.099999999999978
0.72175133228302,2.237034797668457,2.1910996437072754,3.1099999999999777
2.1209335327148438,1.9174718856811523,2.469447135925293,3.1199999999999775
3.373729705810547,1.7110834121704102,2.4587602615356445,3.1299999999999772
4.1666154861450195,1.7615594863891602,2.1836509704589844,3.139999999999977
4.4054741859436035,1.8605642318725586,2.3293299674987793,3.149999999999977
4.224742412567139,1.9360523223876953,2.7766942977905273,3.1599999999999766
3.76735520362854,2.0936803817749023,2.26546573638916,3.1699999999999764
2.9115865230560303,2.810450553894043,-0.17939776182174683,3.179999999999976
1.8653056621551514,3.4926509857177734,-1.4730243682861328,3.189999999999976
1.1062240600585938,3.955348014831543,-1.2911409139633179,3.1999999999999758
1.1368227005004883,3.949331283569336,-1.4060906171798706,3.2099999999999755
-0.896101713180542,3.920722007751465,-3.716644763946533,3.2199999999999753
-1.9310332536697388,3.106637954711914,-3.615053653717041,3.229999999999975
-3.205493450164795,2.510470390319824,-2.0710771083831787,3.239999999999975
-3.8936407566070557,2.9743595123291016,-1.2325787544250488,3.2499999999999747
-3.35842227935791,4.140922546386719,-1.0163935422897339,3.2599999999999745
-2.1845312118530273,5.061033248901367,-1.021469235420227,3.2699999999999743
-1.081960916519165,5.479764938354492,-1.3171547651290894,3.279999999999974
-0.8787329196929932,5.423234939575195,-2.4346179962158203,3.289999999999974
-1.5975029468536377,4.821347236633301,-3.643702983856201,3.2999999999999736
-2.0984549522399902,4.402620315551758,-3.791220188140869,3.3099999999999734
-2.420382499694824,3.874370574951172,-3.4509048461914062,3.319999999999973
-2.694328546524048,2.446133613586426,-2.9543912410736084,3.329999999999973
-3.0130066871643066,0.3793811798095703,-2.8545851707458496,3.3399999999999728
-2.9029364585876465,-1.7467994689941406,-2.5677318572998047,3.3499999999999726
-1.8228707313537598,-3.1668219566345215,-0.42201995849609375,3.3599999999999723
-0.8431025147438049,-3.878025531768799,0.7517905235290527,3.369999999999972
0.5674216747283936,-3.853515625,0.16315507888793945,3.379999999999972
1.8249571323394775,-3.4206771850585938,-1.2956149578094482,3.3899999999999717
2.700634002685547,-3.3604421615600586,-2.1996665000915527,3.3999999999999715
2.680952310562134,-3.3109946250915527,-1.981265902519226,3.4099999999999713
2.758881092071533,-3.227202892303467,-2.1565513610839844,3.419999999999971
2.1972646713256836,-5.033568382263184,-2.136359691619873,3.429999999999971
1.2049061059951782,-4.812440872192383,-1.6867763996124268,3.4399999999999706
-0.06618356704711914,-4.614147186279297,-1.905339241027832,3.4499999999999704
-0.8370954990386963,-4.569512844085693,-2.1348297595977783,3.45999999999997
-1.4201833009719849,-4.460634231567383,-1.8721950054168701,3.46999999999997
-1.9440802335739136,-3.9707083702087402,-1.4416723251342773,3.47999999999997
-2.1973202228546143,-3.4958014488220215,-1.3698930740356445,3.4899999999999696
-2.028428554534912,-2.9245052337646484,-1.5059120655059814,3.4999999999999694
-1.6232413053512573,-2.580160140991211,-1.4500510692596436,3.509999999999969
-1.0155346393585205,-2.5216054916381836,-0.9653174877166748,3.519999999999969
-0.462782621383667,-2.6759867668151855,0.014261245727539062,3.5299999999999687
-0.03078484535217285,-2.9554805755615234,1.3264312744140625,3.5399999999999685
0.18550455570220947,-2.936866283416748,2.0639901161193848,3.5499999999999683
0.2918374538421631,-2.5079145431518555,2.616550922393799,3.559999999999968
0.20838713645935059,-1.9392004013061523,2.6349241733551025,3.569999999999968
-0.10257518291473389,-1.3610525131225586,2.1949665546417236,3.5799999999999677
-0.14297640323638916,-1.4220867156982422,2.3170604705810547,3.5899999999999674
-0.7347850799560547,0.7130794525146484,1.7628264427185059,3.5999999999999672
-0.5415761470794678,2.2122678756713867,1.1914710998535156,3.609999999999967
-0.4663506746292114,4.384091377258301,1.3992741107940674,3.619999999999967
-0.9764382839202881,6.889326095581055,3.12730073928833,3.6299999999999666
-1.4751847982406616,7.653142929077148,4.864745140075684,3.6399999999999664
-1.910858154296875,5.194509506225586,5.640138626098633,3.649999999999966
-2.5940213203430176,1.5019521713256836,4.412674903869629,3.659999999999966
-2.243795394897461,-1.9092121124267578,2.128796100616455,3.6699999999999657
-0.7837927341461182,-5.280054092407227,0.701646089553833,3.6799999999999655
0.32164525985717773,-3.60579252243042,0.21372747421264648,3.6899999999999653
-0.7798724174499512,1.9718561172485352,-0.9036986827850342,3.699999999999965
-1.9817001819610596,8.136190414428711,-5.829124450683594,3.709999999999965
-4.233391761779785,14.122535705566406,-8.886527061462402,3.7199999999999647
-4.861026287078857,16.673215866088867,-9.358845710754395,3.7299999999999645
-0.6456688642501831,11.989273071289062,-5.054610252380371,3.7399999999999642
1.461445927619934,2.101959228515625,3.440152645111084,3.749999999999964
1.3881316184997559,-4.976211071014404,2.2928853034973145,3.759999999999964
1.627563714981079,-8.515037536621094,-4.416816234588623,3.7699999999999636
1.4694370031356812,-8.191264152526855,-6.704286575317383,3.7799999999999634
1.8048653602600098,-5.207837104797363,-4.627480983734131,3.789999999999963
3.486074447631836,-1.1306018829345703,-1.862534523010254,3.799999999999963
5.007824420928955,2.0266971588134766,-1.7545485496520996,3.8099999999999627
5.870022296905518,4.264081954956055,-1.7482585906982422,3.8199999999999625
5.683854103088379,4.344996452331543,-2.1819677352905273,3.8299999999999623
3.23037052154541,1.507730484008789,-3.483982801437378,3.839999999999962
1.6650307178497314,-2.19404935836792,-4.1541290283203125,3.849999999999962
-0.3557075262069702,-4.450826168060303,-3.1145453453063965,3.8599999999999617
-3.4999773502349854,-4.771247386932373,-2.3539347648620605,3.8699999999999615
-6.124912261962891,-3.8601927757263184,-1.3189691305160522,3.8799999999999613
-4.846768379211426,-3.032708168029785,-0.5454857349395752,3.889999999999961
-2.3054096698760986,-2.5628366470336914,-0.20419096946716309,3.899999999999961
-1.1388700008392334,-2.0420804023742676,-0.13653266429901123,3.9099999999999606
-0.4157939553260803,-1.3028068542480469,-0.5780854225158691,3.9199999999999604
0.48538994789123535,-0.9821376800537109,-1.3388781547546387,3.92999999999996
1.269958734512329,-0.8051118850708008,-1.8820431232452393,3.93999999999996
1.6678471565246582,-0.7785520553588867,-1.9583051204681396,3.9499999999999598
1.9535179138183594,-0.8853569030761719,-1.6731737852096558,3.9599999999999596
2.103459119796753,-1.1358222961425781,-0.901154637336731,3.9699999999999593
2.0714287757873535,-1.2809247970581055,0.3319185972213745,3.979999999999959
2.092311143875122,-1.5697145462036133,1.21634840965271,3.989999999999959
2.231140613555908,-1.806136131286621,1.2916624546051025,3.9999999999999587
2.3525824546813965,-1.774703025817871,1.0608055591583252,4.009999999999959
2.186044692993164,-1.4873199462890625,1.0849571228027344,4.019999999999959
2.0068154335021973,-1.020669937133789,1.5945106744766235,4.0299999999999585
1.673482060432434,-0.4922933578491211,2.4865899085998535,4.039999999999958
1.1350706815719604,-0.029272079467773438,2.986624240875244,4.049999999999958
0.4854864478111267,0.23441123962402344,2.6917967796325684,4.059999999999958
-0.216016948223114,0.3516349792480469,1.944044828414917,4.069999999999958
-0.9791440367698669,0.3249187469482422,0.9372537136077881,4.079999999999957
-1.315525770187378,0.4770383834838867,1.1797508001327515,4.089999999999957
-0.9221828579902649,0.761570930480957,1.6720860004425049,4.099999999999957
-0.20760375261306763,1.402853012084961,1.984779715538025,4.109999999999957
0.8129423260688782,2.3228864669799805,2.443155527114868,4.119999999999957
2.65193247795105,2.603382110595703,2.607013463973999,4.129999999999956
4.303429126739502,2.6724910736083984,2.5339975357055664,4.139999999999956
4.9470014572143555,2.764601707458496,2.7181272506713867,4.149999999999956
5.035081386566162,2.8149490356445312,3.351567268371582,4.159999999999956
5.053256988525391,2.8125715255737305,3.319554328918457,4.1699999999999555
4.243250846862793,2.272343635559082,1.5782992839813232,4.179999999999955
3.0063364505767822,2.90371036529541,-0.9191594123840332,4.189999999999955
1.7485865354537964,4.289153099060059,-2.056452751159668,4.199999999999955
1.1962560415267944,4.911116600036621,-2.775423526763916,4.209999999999955
0.7834814190864563,4.231630325317383,-3.934955358505249,4.2199999999999545
-0.12847530841827393,3.603287696838379,-3.9384913444519043,4.229999999999954
-1.9763416051864624,3.5741043090820312,-2.602848529815674,4.239999999999954
-4.251261234283447,3.938863754272461,-0.7530808448791504,4.249999999999954
-5.263556957244873,4.258081436157227,-0.5282576084136963,4.259999999999954
-4.9007039070129395,3.9853763580322266,-1.5569517612457275,4.269999999999953
-3.967315912246704,4.344718933105469,-1.9747991561889648,4.279999999999953
-2.6494526863098145,4.561541557312012,-1.7105937004089355,4.289999999999953
-2.2551441192626953,4.561429023742676,-2.224046230316162,4.299999999999953
-2.1181535720825195,4.390480995178223,-2.9400758743286133,4.3099999999999525
-2.033724308013916,4.141936302185059,-3.4293718338012695,4.319999999999952
-1.8974003791809082,3.165440559387207,-3.3622894287109375,4.329999999999952
-1.9597179889678955,1.348536491394043,-3.127786159515381,4.339999999999952
-2.1136622428894043,-0.3391532897949219,-2.6807079315185547,4.349999999999952
-1.4954071044921875,-1.9973640441894531,-0.2686276435852051,4.3599999999999515
-0.8688660860061646,-3.593502998352051,2.15000057220459,4.369999999999951
-0.8140507340431213,-3.5096588134765625,1.9100754261016846,4.379999999999951
1.3619192838668823,-3.901233673095703,-0.23860383033752441,4.389999999999951
2.1538543701171875,-3.5545530319213867,-2.1107327938079834,4.399999999999951
2.4743869304656982,-4.141743183135986,-2.823735237121582,4.40999999999995
2.7218239307403564,-4.712271690368652,-2.451012134552002,4.41999999999995
2.8335490226745605,-5.515114784240723,-2.060335874557495,4.42999999999995
2.1249794960021973,-5.783594131469727,-1.964573860168457,4.43999999999995
1.0523651838302612,-5.739608287811279,-1.9907667636871338,4.4499999999999496
1.166141152381897,-5.6726555824279785,-2.086557626724243,4.459999999999949
-0.7593817710876465,-4.545995235443115,-1.8034000396728516,4.469999999999949
-1.471301794052124,-3.974121570587158,-1.7542502880096436,4.479999999999949
-2.0251564979553223,-3.6462111473083496,-1.761230707168579,4.489999999999949
-2.398557186126709,-3.435288429260254,-1.6551368236541748,4.4999999999999485
-2.347775459289551,-3.3597326278686523,-1.3517093658447266,4.509999999999948
-2.006108283996582,-3.442868709564209,-0.898859977722168,4.519999999999948
-1.3414859771728516,-3.8300280570983887,-0.224517822265625,4.529999999999948
-0.7612807750701904,-4.094773292541504,0.42731475830078125,4.539999999999948
-0.35159802436828613,-3.915156841278076,1.3176898956298828,4.549999999999947
-0.017559051513671875,-3.11610746383667,2.1413283348083496,4.559999999999947
0.09882998466491699,-2.3021020889282227,2.387747287750244,4.569999999999947
0.07478010654449463,-0.7919588088989258,2.4748175144195557,4.579999999999947
-0.3010728359222412,1.0897369384765625,2.4968812465667725,4.589999999999947
-0.7182137966156006,3.3771791458129883,1.5458238124847412,4.599999999999946
-1.468152403831482,6.0131120681762695,1.423661231994629,4.609999999999946
-2.938535451889038,9.200904846191406,3.13356614112854,4.619999999999946
-3.770310640335083,10.428071975708008,4.971916198730469,4.629999999999946
-4.188298225402832,8.138198852539062,7.103249549865723,4.6399999999999455
-4.1748151779174805,4.394133567810059,6.791720390319824,4.649999999999945
-3.6507363319396973,0.958099365234375,2.892934560775757,4.659999999999945
-1.5115554332733154,0.6359062194824219,-0.016102075576782227,4.669999999999945
-0.9461030960083008,5.628421783447266,-2.5227816104888916,4.679999999999945
-2.4701902866363525,10.550210952758789,-5.689728736877441,4.689999999999944
-2.9647703170776367,12.421809196472168,-9.683204650878906,4.699999999999944
-0.3163834810256958,7.59642219543457,-8.360708236694336,4.709999999999944
2.873044490814209,0.58160400390625,-1.674076795578003,4.719999999999944
3.541311264038086,-4.654677867889404,-0.29200196266174316,4.729999999999944
2.610776424407959,-7.344696044921875,-4.774084568023682,4.739999999999943
1.9535763263702393,-7.695135116577148,-6.060585975646973,4.749999999999943
0.8647596836090088,-5.869292259216309,-4.8426361083984375,4.759999999999943
1.385086178779602,-2.323608875274658,-2.9050726890563965,4.769999999999943
3.1650631427764893,1.4419336318969727,-2.428091049194336,4.7799999999999425
4.633254528045654,4.554668426513672,-2.6681463718414307,4.789999999999942
4.9069671630859375,6.712428092956543,-2.263477087020874,4.799999999999942
3.5091233253479004,5.701430320739746,-1.3075203895568848,4.809999999999942
0.7593006491661072,1.8762426376342773,-0.43235230445861816,4.819999999999942
-0.7533848881721497,-2.51613712310791,-0.2798771858215332,4.8299999999999415
-0.8297860622406006,-5.838891983032227,-1.6588987112045288,4.839999999999941
-0.7508420348167419,-7.526185989379883,-2.695263385772705,4.849999999999941
-1.3638911247253418,-7.07247257232666,-2.7586050033569336,4.859999999999941
-2.512700319290161,-5.342979907989502,-2.3656904697418213,4.869999999999941
-3.038160800933838,-2.6196537017822266,-1.9678504467010498,4.87999999999994
-1.872124195098877,-0.3526620864868164,-1.5514558553695679,4.88999999999994
-1.8659448623657227,-0.3799619674682617,-1.3723740577697754,4.89999999999994
0.3567766547203064,1.707794189453125,-1.8262977600097656,4.90999999999994
0.7448586225509644,0.8701457977294922,-2.4492831230163574,4.9199999999999395
0.8472453355789185,-0.32842063903808594,-2.245331287384033,4.929999999999939
0.8520437479019165,-1.5641250610351562,-1.4577977657318115,4.939999999999939
1.2043659687042236,-2.183349132537842,0.3015470504760742,4.949999999999939
1.1727945804595947,-2.1916651725769043,0.42961111664772034,4.959999999999939
2.206434488296509,-2.329528331756592,3.6258704662323,4.9699999999999385
2.7799503803253174,-2.0154223442077637,2.425312042236328,4.979999999999938
2.6439096927642822,-1.469381332397461,0.996857762336731,4.989999999999938
2.202636957168579,-0.98309326171875,0.013015545904636383,4.999999999999938
1.4623785018920898,-0.829768180847168,-0.15869952738285065,5.009999999999938
0.9257849454879761,-0.8469333648681641,0.27130553126335144,5.019999999999937
0.7230728268623352,-0.7520523071289062,1.3182082176208496,5.029999999999937
0.4411606788635254,-0.3800325393676758,2.62331485748291,5.039999999999937
0.2202751636505127,-0.0924844741821289,2.8850581645965576,5.049999999999937
-0.02405962347984314,0.12033557891845703,2.2316787242889404,5.0599999999999365
-0.007136821746826172,0.12420368194580078,1.6260428428649902,5.069999999999936
0.5444958806037903,0.3515615463256836,1.7659566402435303,5.079999999999936
1.1936495304107666,1.1794452667236328,2.4644012451171875,5.089999999999936
1.6579172611236572,2.0802001953125,2.9336814880371094,5.099999999999936
2.1455934047698975,2.3258752822875977,2.5902633666992188,5.1099999999999355
2.584501266479492,2.1178359985351562,1.8554364442825317,5.119999999999935
2.812432050704956,1.9249677658081055,1.4889582395553589,5.129999999999935
2.84726619720459,2.366273880004883,1.5654796361923218,5.139999999999935
2.813617706298828,3.139402389526367,1.296633005142212,5.149999999999935
2.6055312156677246,4.016837120056152,0.10646641254425049,5.159999999999934
2.7948527336120605,4.694477081298828,-0.6537667512893677,5.169999999999934
3.3174214363098145,5.545385360717773,-1.9254937171936035,5.179999999999934
3.596238136291504,5.983702659606934,-3.33029842376709,5.189999999999934
3.220832347869873,5.461739540100098,-4.607726097106934,5.199999999999934
1.4537569284439087,4.671553611755371,-4.256477355957031,5.209999999999933
-2.3611621856689453,4.255636215209961,-2.7054648399353027,5.219999999999933
-5.413510322570801,3.6101856231689453,-1.4781944751739502,5.229999999999933
-8.304767608642578,3.2858686447143555,-0.49252355098724365,5.239999999999933
-8.158127784729004,3.2915449142456055,-1.8351173400878906,5.2499999999999325
-5.663091659545898,3.9365453720092773,-2.8575403690338135,5.259999999999932
-2.982490062713623,4.233860015869141,-1.8438489437103271,5.269999999999932
-1.2177914381027222,3.725055694580078,-1.0705890655517578,5.279999999999932
-0.19835275411605835,3.200197219848633,-1.6551934480667114,5.289999999999932
0.45708298683166504,2.59283447265625,-2.8718950748443604,5.299999999999931
-0.2790452241897583,1.6802091598510742,-3.647757053375244,5.309999999999931
-1.1198272705078125,0.5910196304321289,-4.044354438781738,5.319999999999931
-1.3471972942352295,-0.5528602600097656,-3.9142158031463623,5.329999999999931
-0.7929984331130981,-2.5403218269348145,-1.9803423881530762,5.339999999999931
-0.3467274308204651,-4.1499714851379395,0.977034330368042,5.34999999999993
0.40088164806365967,-4.6758341789245605,3.042894124984741,5.35999999999993
1.239504098892212,-4.403652667999268,1.540165901184082,5.36999999999993
1.3303531408309937,-3.4215779304504395,-0.5224566459655762,5.37999999999993
1.0831950902938843,-3.213581085205078,-1.6598583459854126,5.3899999999999295
1.579950213432312,-3.8514437675476074,-2.0877180099487305,5.399999999999929
1.3399097919464111,-4.493192195892334,-1.5255868434906006,5.409999999999929
0.7843535542488098,-4.497013092041016,-1.509460687637329,5.419999999999929
0.4512094259262085,-4.199817657470703,-2.078653573989868,5.429999999999929
-0.0058209896087646484,-3.77708101272583,-2.1877551078796387,5.4399999999999284
-0.45988476276397705,-3.813253879547119,-1.9962279796600342,5.449999999999928
-0.9233517646789551,-3.7619452476501465,-1.819934606552124,5.459999999999928
-1.2470242977142334,-3.7943897247314453,-1.7821097373962402,5.469999999999928
-1.4289213418960571,-3.939565658569336,-1.6355068683624268,5.479999999999928
-1.3762493133544922,-3.9403867721557617,-1.6103870868682861,5.489999999999927
-1.5907220840454102,-4.0835652351379395,-0.18637704849243164,5.499999999999927
-1.1525064706802368,-4.225150108337402,0.8165626525878906,5.509999999999927
-0.6989068984985352,-4.300370216369629,1.8667445182800293,5.519999999999927
-0.4874422550201416,-4.129955768585205,2.5294265747070312,5.5299999999999265
-0.09596788883209229,-3.5487451553344727,2.6111743450164795,5.539999999999926
0.3121894598007202,-2.6559810638427734,2.084400177001953,5.549999999999926
0.7662570476531982,-1.3106756210327148,1.5343141555786133,5.559999999999926
1.0895302295684814,0.23569774627685547,1.484391212463379,5.569999999999926
1.2282016277313232,2.3480539321899414,1.7578644752502441,5.5799999999999255
0.5199904441833496,4.156457901000977,1.9897420406341553,5.589999999999925
-1.578544020652771,6.671765327453613,2.738123893737793,5.599999999999925
-4.261858940124512,8.869648933410645,3.641195058822632,5.609999999999925
-5.4766082763671875,7.204151153564453,4.132992744445801,5.619999999999925
-4.548272132873535,3.109408378601074,4.2220869064331055,5.629999999999924
-4.290795803070068,0.2455301284790039,3.033313274383545,5.639999999999924
-3.334268093109131,0.5482854843139648,1.0683176517486572,5.649999999999924
-1.7325433492660522,4.760432243347168,-2.186760425567627,5.659999999999924
-2.7213821411132812,10.43696117401123,-4.033753871917725,5.6699999999999235
-3.4311776161193848,14.377206802368164,-6.040843486785889,5.679999999999923
-2.1966233253479004,13.151161193847656,-8.548273086547852,5.689999999999923
1.6496318578720093,5.421140670776367,-4.043153285980225,5.699999999999923
3.4722166061401367,-2.8137431144714355,2.2489137649536133,5.709999999999923
3.04826021194458,-7.674602508544922,0.12823271751403809,5.7199999999999225
2.799039840698242,-9.559661865234375,-4.946414947509766,5.729999999999922
2.598153829574585,-8.260818481445312,-6.329511642456055,5.739999999999922
2.431865930557251,-4.356947422027588,-4.7071123123168945,5.749999999999922
3.903852939605713,0.8028297424316406,-3.561845302581787,5.759999999999922
4.820169925689697,3.642300605773926,-3.5123651027679443,5.769999999999921
4.745343208312988,3.5815610885620117,-3.3571436405181885,5.779999999999921
3.1440446376800537,4.344765663146973,-2.6945877075195312,5.789999999999921
1.0447211265563965,1.4347953796386719,-2.2610535621643066,5.799999999999921
-0.49551182985305786,-1.8036346435546875,-1.3636373281478882,5.809999999999921
-1.0602145195007324,-4.553657531738281,-1.007359504699707,5.81999999999992
-1.3760429620742798,-5.500795364379883,-0.9994271993637085,5.82999999999992
-2.035835027694702,-5.194530487060547,-1.038017749786377,5.83999999999992
-2.9708261489868164,-3.740213394165039,-1.0831612348556519,5.84999999999992
-2.947484016418457,-2.1758480072021484,-1.2658720016479492,5.8599999999999195
-1.412815809249878,-1.2327899932861328,-1.499961495399475,5.869999999999919
0.12104374170303345,-0.202667236328125,-1.4056062698364258,5.879999999999919
0.10614311695098877,-0.22449016571044922,-1.2426888942718506,5.889999999999919
1.4204459190368652,-0.3359251022338867,-1.1213781833648682,5.899999999999919
1.4461643695831299,-0.7027873992919922,-0.6704239845275879,5.909999999999918
1.4745972156524658,-1.143336296081543,-0.16893309354782104,5.919999999999918
1.7047544717788696,-1.4211997985839844,0.47770339250564575,5.929999999999918
2.0871951580047607,-1.5031852722167969,1.2603180408477783,5.939999999999918
2.394970417022705,-1.2960271835327148,1.789994239807129,5.949999999999918
2.7939484119415283,-1.0417842864990234,2.061288356781006,5.959999999999917
2.8976197242736816,-0.7645683288574219,2.005622148513794,5.969999999999917
2.6672489643096924,-0.7589130401611328,1.6816586256027222,5.979999999999917
2.2827019691467285,-0.9456291198730469,1.181958794593811,5.989999999999917
1.4914648532867432,-1.1570005416870117,0.6501184701919556,5.9999999999999165
0.750829815864563,-0.9163990020751953,0.8214146494865417,6.009999999999916
0.07335692644119263,-0.3842000961303711,1.5446285009384155,6.019999999999916
-0.30483824014663696,0.1258535385131836,2.6135919094085693,6.029999999999916
-0.40668439865112305,0.3048410415649414,3.224346876144409,6.039999999999916
-0.1897173523902893,0.14066028594970703,2.297600030899048,6.0499999999999154
0.3416488766670227,0.38932132720947266,0.830581545829773,6.059999999999915
0.6070437431335449,1.1884536743164062,0.6333541870117188,6.069999999999915
1.0296441316604614,1.715500831604004,1.8831872940063477,6.079999999999915
1.6983850002288818,1.672867774963379,3.071402072906494,6.089999999999915
2.342100143432617,1.6951427459716797,3.1243109703063965,6.099999999999914
2.8533196449279785,1.7417678833007812,2.3864517211914062,6.109999999999914
3.3057432174682617,1.9010581970214844,1.8217815160751343,6.119999999999914
3.523796796798706,1.8565311431884766,1.2924227714538574,6.129999999999914
3.3304219245910645,1.970046043395996,-0.26827675104141235,6.1399999999999135
2.3897058963775635,2.484105110168457,-1.4080677032470703,6.149999999999913
1.5618014335632324,3.30096435546875,-1.8734915256500244,6.159999999999913
0.7258111238479614,3.7937183380126953,-3.3204402923583984,6.169999999999913
-0.3625525236129761,3.8742265701293945,-3.901672601699829,6.179999999999913
-1.1748838424682617,3.713679313659668,-2.85597562789917,6.1899999999999125
-2.29591703414917,3.869413375854492,-0.7587831020355225,6.199999999999912
-3.3671059608459473,4.481882095336914,0.10007211565971375,6.209999999999912
-3.383859157562256,5.277288436889648,-0.21839755773544312,6.219999999999912
-2.6424643993377686,6.85227108001709,-0.9440917372703552,6.229999999999912
-1.0830031633377075,6.909555435180664,-2.4064626693725586,6.239999999999911
-1.3103501796722412,6.491576194763184,-3.9118361473083496,6.249999999999911
-1.6764620542526245,5.581748008728027,-4.765818119049072,6.259999999999911
-1.5744189023971558,3.9546918869018555,-4.445642948150635,6.269999999999911
-1.8353428840637207,2.2053756713867188,-3.790562391281128,6.2799999999999105
-2.324877977371216,0.4320354461669922,-3.3470845222473145,6.28999999999991
-2.652141809463501,-1.4976539611816406,-2.88970685005188,6.29999999999991
-2.490018129348755,-2.79044771194458,-1.1492375135421753,6.30999999999991
-1.4800503253936768,-3.6767234802246094,1.615173578262329,6.31999999999991
-0.5478038787841797,-3.6920342445373535,1.3800621032714844,6.3299999999999095
0.6951826810836792,-2.931786060333252,-1.073582410812378,6.339999999999909
1.627523422241211,-2.0120162963867188,-3.022918462753296,6.349999999999909
2.560877799987793,-2.36514949798584,-3.597987413406372,6.359999999999909
2.4897007942199707,-2.6526379585266113,-2.7709462642669678,6.369999999999909
2.027346611022949,-3.841996192932129,-1.7305223941802979,6.379999999999908
2.0137126445770264,-4.903664588928223,-2.094207525253296,6.389999999999908
1.006316900253296,-4.805063247680664,-1.9232938289642334,6.399999999999908
-0.21396541595458984,-4.264093399047852,-2.012098550796509,6.409999999999908
-1.4245003461837769,-4.021963119506836,-2.131054639816284,6.419999999999908
-1.778947353363037,-3.8243651390075684,-1.9573698043823242,6.429999999999907
-2.0879781246185303,-3.5145726203918457,-1.5222084522247314,6.439999999999907
-2.2191271781921387,-2.995490074157715,-1.1888744831085205,6.449999999999907
-2.1219265460968018,-2.5422725677490234,-0.965916633605957,6.459999999999907
-1.699462652206421,-2.5362792015075684,-0.776526927947998,6.4699999999999065
-1.3735853433609009,-2.995596408843994,-0.4508235454559326,6.479999999999906
-0.998832106590271,-3.4181175231933594,-0.03528261184692383,6.489999999999906
-0.46979808807373047,-3.598654270172119,0.6529340744018555,6.499999999999906
0.1881927251815796,-3.4564647674560547,1.4258637428283691,6.509999999999906
0.88730388879776,-3.0003747940063477,1.3996162414550781,6.519999999999905
1.4386858940124512,-2.0702953338623047,0.8920228481292725,6.529999999999905
1.8296284675598145,-0.8010501861572266,0.5093059539794922,6.539999999999905
1.6573522090911865,0.3094606399536133,0.5709536075592041,6.549999999999905
0.542028546333313,2.197488784790039,0.9002330303192139,6.559999999999905
-1.3278374671936035,4.525141716003418,1.4483606815338135,6.569999999999904
-3.136244297027588,6.545942306518555,2.2711434364318848,6.579999999999904
-3.428542137145996,6.30618953704834,3.3636884689331055,6.589999999999904
-2.789273500442505,3.4267406463623047,4.776120185852051,6.599999999999904
-3.189650297164917,1.148838996887207,5.229053497314453,6.6099999999999035
-2.8157267570495605,-1.5391936302185059,3.697578191757202,6.619999999999903
-1.6476372480392456,-3.604983329772949,0.9606568813323975,6.629999999999903
-0.07280552387237549,-3.851748466491699,-1.100132942199707,6.639999999999903
0.21054470539093018,-0.6525154113769531,-0.7578432559967041,6.649999999999903
-0.8165102005004883,5.2162065505981445,-4.382895469665527,6.659999999999902
-0.9106807708740234,10.394205093383789,-8.067336082458496,6.669999999999902
-2.030331611633301,15.857512474060059,-7.844524383544922,6.679999999999902
0.015550732612609863,17.83277130126953,-5.713735580444336,6.689999999999902
1.2290399074554443,10.269587516784668,0.14221525192260742,6.699999999999902
0.39509284496307373,0.9763584136962891,4.1311354637146,6.709999999999901
0.9983381628990173,-6.967282295227051,-2.7560698986053467,6.719999999999901
1.7366658449172974,-9.759559631347656,-6.894711494445801,6.729999999999901
2.1959800720214844,-8.352968215942383,-7.000297546386719,6.739999999999901
2.14321231842041,-3.6547908782958984,-4.136137962341309,6.7499999999999005
2.6369519233703613,0.3877754211425781,-1.0991358757019043,6.7599999999999
3.078824043273926,3.3962202072143555,0.02749466896057129,6.7699999999999
2.901379108428955,5.860664367675781,-0.8819050788879395,6.7799999999999
2.8585305213928223,5.811643600463867,-0.7710072994232178,6.7899999999999
1.3734543323516846,3.575881004333496,-3.3367438316345215,6.7999999999998995
0.6498379707336426,0.185333251953125,-3.1124649047851562,6.809999999999899
-0.12117081880569458,-2.3075413703918457,-1.9524785280227661,6.819999999999899
-0.5793806910514832,-3.8818511962890625,-1.7039000988006592,6.829999999999899
-0.8857805132865906,-4.302962303161621,-1.6834651231765747,6.839999999999899
-1.2779244184494019,-3.641429901123047,-1.9528462886810303,6.849999999999898
-1.5739573240280151,-2.1361751556396484,-2.027132272720337,6.859999999999898
-1.236255407333374,-0.6613931655883789,-1.8097410202026367,6.869999999999898
-0.4678272008895874,0.35967350006103516,-1.550356388092041,6.879999999999898
0.21231329441070557,0.7239675521850586,-1.3210594654083252,6.8899999999998975
0.862641453742981,0.20270252227783203,-1.3380645513534546,6.899999999999897
1.3902883529663086,-0.5243797302246094,-1.2401902675628662,6.909999999999897
1.9821646213531494,-1.142629623413086,-0.9804871678352356,6.919999999999897
1.680756688117981,-1.4572324752807617,-0.46630859375,6.929999999999897
1.4680900573730469,-1.3721427917480469,0.03326773643493652,6.9399999999998965
1.3027980327606201,-1.0806827545166016,0.30014121532440186,6.949999999999896
1.228096604347229,-0.6335029602050781,0.6509486436843872,6.959999999999896
0.38991206884384155,-0.5482778549194336,0.9091629981994629,6.969999999999896
0.06522870063781738,-1.0595979690551758,1.511656403541565,6.979999999999896
0.9557318687438965,-0.5919094085693359,2.3592705726623535,6.989999999999895
-0.027332544326782227,-0.6921939849853516,2.0479273796081543,6.999999999999895
0.30570003390312195,-0.815277099609375,1.6284465789794922,7.009999999999895
0.2518463134765625,-1.5332441329956055,0.9342708587646484,7.019999999999895
0.4282017946243286,-1.642242431640625,0.6802761554718018,7.0299999999998946
0.4809068441390991,-1.2309989929199219,0.1441352367401123,7.039999999999894
0.5712217092514038,-0.6753454208374023,-0.24354225397109985,7.049999999999894
0.9217066168785095,-0.008701324462890625,0.18998289108276367,7.059999999999894
1.4266449213027954,0.5682821273803711,1.1047492027282715,7.069999999999894
1.9435348510742188,0.9863071441650391,1.503639578819275,7.0799999999998935
2.0975759029388428,0.8234634399414062,0.8355157375335693,7.089999999999893
1.7844319343566895,0.09388256072998047,-0.7829513549804688,7.099999999999893
0.8867217898368835,-0.7137060165405273,-2.2177510261535645,7.109999999999893
0.5524599552154541,-1.5148487091064453,-2.59914493560791,7.119999999999893
0.311969518661499,-1.5767126083374023,-1.8640714883804321,7.129999999999892
0.566354513168335,-0.7757987976074219,-0.6901304721832275,7.139999999999892
0.3808847665786743,0.9821968078613281,-0.6351579427719116,7.149999999999892
-0.91309654712677,4.148979187011719,-0.9828038215637207,7.159999999999892
-2.617551326751709,7.463117599487305,-1.4161063432693481,7.169999999999892
-3.414644241333008,7.967768669128418,-1.8734949827194214,7.179999999999891
-2.31243896484375,6.25468635559082,-2.3563036918640137,7.189999999999891
-1.6672559976577759,4.926390647888184,-2.2216928005218506,7.199999999999891
-1.3280702829360962,4.1885480880737305,-1.383305549621582,7.209999999999891
-0.4832749366760254,3.376481056213379,-0.06851983070373535,7.2199999999998905
-0.20521938800811768,2.408761978149414,-0.07426571846008301,7.22999999999989
-0.7304567098617554,1.8802013397216797,-1.6079022884368896,7.23999999999989
-1.0417132377624512,1.7763376235961914,-3.2844767570495605,7.24999999999989
-0.813596248626709,1.7247562408447266,-4.204212665557861,7.25999999999989
-0.8895766735076904,1.7194538116455078,-4.00499963760376,7.269999999999889
-0.874944806098938,1.4095458984375,-3.5852103233337402,7.279999999999889
-0.8603466749191284,1.4277095794677734,-3.6426267623901367,7.289999999999889
-0.3262594938278198,-0.6810626983642578,-2.65236234664917,7.299999999999889
-0.8914555311203003,-1.703218936920166,-2.2591729164123535,7.309999999999889
-1.7027095556259155,-2.1786322593688965,-1.7565276622772217,7.319999999999888
-2.542159080505371,-1.932321548461914,-1.5202873945236206,7.329999999999888
-1.5780541896820068,-2.0222811698913574,-1.6218628883361816,7.339999999999888
-1.513703465461731,-1.4611024856567383,-1.4951744079589844,7.349999999999888
-1.1071535348892212,-0.7397546768188477,-1.3226263523101807,7.3599999999998875
-1.3233990669250488,0.09033203125,-1.1705665588378906,7.369999999999887
-0.9274998903274536,0.3005504608154297,-1.117250919342041,7.379999999999887
-0.6161556243896484,0.2411813735961914,-1.2001848220825195,7.389999999999887
-0.11678540706634521,-0.02405071258544922,-1.5365122556686401,7.399999999999887
0.11351966857910156,-0.31542491912841797,-1.587221622467041,7.4099999999998865
0.23227107524871826,-0.682708740234375,-1.1579043865203857,7.419999999999886
0.34199488162994385,-0.9073591232299805,-0.5714948177337646,7.429999999999886
0.37353038787841797,-0.9069395065307617,-0.556912899017334,7.439999999999886
0.4979623556137085,-1.0387868881225586,1.0548908710479736,7.449999999999886
0.3455277681350708,-1.2343659400939941,0.3692450523376465,7.459999999999885
0.4734309911727905,-1.700587272644043,0.20581316947937012,7.469999999999885
0.8229935169219971,-1.9197206497192383,0.3484992980957031,7.479999999999885
-0.41759538650512695,-1.245126724243164,0.4258434772491455,7.489999999999885
-0.5839484930038452,-1.2344412803649902,0.358950138092041,7.4999999999998845
-0.16881608963012695,-1.2333874702453613,-0.0375821590423584,7.509999999999884
-0.2274996042251587,-0.6351947784423828,-0.8138401508331299,7.519999999999884
0.39927399158477783,-0.4828605651855469,-1.7642751932144165,7.529999999999884
0.6622360944747925,-0.6514511108398438,-1.9481388330459595,7.539999999999884
0.4207390546798706,-0.474151611328125,-1.3624728918075562,7.5499999999998835
-0.09872031211853027,-0.2625408172607422,-0.683674693107605,7.559999999999883
0.7344961762428284,-0.8186235427856445,-1.160882830619812,7.569999999999883
-0.9023241996765137,-0.9473695755004883,-0.54945969581604,7.579999999999883
-0.36821770668029785,-1.6120429039001465,-0.4145491123199463,7.589999999999883
-0.6752325296401978,-1.3991169929504395,-0.317432165145874,7.599999999999882
-0.8034223318099976,-0.37842845916748047,0.005765438079833984,7.609999999999882
-0.6534602642059326,1.0611162185668945,0.44616150856018066,7.619999999999882
-0.5710674524307251,2.2391319274902344,0.40056633949279785,7.629999999999882
-0.4729994535446167,3.203169822692871,-0.18011093139648438,7.6399999999998816
-0.9293965101242065,3.790228843688965,-0.8705894947052002,7.649999999999881
-1.096296787261963,2.6475515365600586,-1.6132965087890625,7.659999999999881
-0.8052719831466675,0.6552696228027344,-3.0240044593811035,7.669999999999881
-0.610474705696106,-0.5405664443969727,-1.895622730255127,7.679999999999881
-0.1274489164352417,-0.43072509765625,-2.0518882274627686,7.6899999999998805
0.16407477855682373,-0.42285919189453125,-2.0825486183166504,7.69999999999988
0.1175694465637207,-0.2257976531982422,-1.9910374879837036,7.70999999999988
0.3702315092086792,-0.6620311737060547,-1.7207762002944946,7.71999999999988
0.3502116799354553,-0.698451042175293,-1.8719459772109985,7.72999999999988
-0.028033137321472168,-0.3391904830932617,-2.2102251052856445,7.739999999999879
0.16514253616333008,0.00316619873046875,-2.040250778198242,7.749999999999879
0.21090388298034668,1.0995197296142578,-1.4161806106567383,7.759999999999879
1.2835874557495117,-0.10761547088623047,-0.9117742776870728,7.769999999999879
1.652372121810913,0.4470033645629883,-0.588432788848877,7.779999999999879
-0.48485875129699707,2.4276342391967773,-0.1044917106628418,7.789999999999878
1.516331672668457,-0.9430828094482422,-0.8568910360336304,7.799999999999878
1.8280483484268188,-0.666050910949707,-0.04319322109222412,7.809999999999878
0.7383268475532532,1.250472068786621,-0.3458840847015381,7.819999999999878
1.1908903121948242,1.0806303024291992,-1.258460283279419,7.8299999999998775
0.3823704123497009,1.5397768020629883,-1.8513118028640747,7.839999999999877
-0.1322321891784668,1.6607084274291992,-2.000709056854248,7.849999999999877
-0.4275829792022705,0.3042945861816406,-2.166404962539673,7.859999999999877
-0.06910526752471924,-1.0353288650512695,-2.08605694770813,7.869999999999877
0.2512168884277344,-2.0128793716430664,-0.9225630760192871,7.879999999999876
-0.06290268898010254,-1.0425939559936523,-0.23850595951080322,7.889999999999876
0.28531938791275024,0.38497161865234375,-0.14710688591003418,7.899999999999876
0.8148454427719116,1.284834861755371,-1.2109878063201904,7.909999999999876
-0.13764488697052002,1.3217763900756836,-0.5933151245117188,7.919999999999876
-2.664618968963623,1.361414909362793,1.922805905342102,7.929999999999875
1.965883731842041,-2.9427762031555176,-0.8313556909561157,7.939999999999875
-0.442518949508667,-0.4981260299682617,1.6082823276519775,7.949999999999875
-0.8467657566070557,-1.4004631042480469,-2.2784621715545654,7.959999999999875
0.17950057983398438,-1.3143835067749023,-5.0980682373046875,7.9699999999998745
-1.5432864427566528,-0.22205829620361328,-4.967634677886963,7.979999999999874
-1.8531736135482788,0.6047992706298828,-3.36260986328125,7.989999999999874
-1.845410943031311,0.603642463684082,-3.340384006500244,7.999999999999874
