AccX,AccY,AccZ,SampleRate
-1.3990153074264526,4.841455459594727,-1.3264553546905518,0
-1.9026196002960205,8.492547035217285,-4.240126132965088,0.01
-1.8541980981826782,11.617371559143066,-6.1517839431762695,0.02
-1.7463407516479492,13.291934967041016,-7.022552490234375,0.03
-3.001239776611328,12.725608825683594,-7.285242080688477,0.04
-5.3416547775268555,10.454413414001465,-7.624351501464844,0.05
-7.555764198303223,6.786744117736816,-7.276436805725098,0.060000000000000005
-7.5840020179748535,2.6039915084838867,-5.424199104309082,0.07
-6.612085819244385,0.1762542724609375,-2.001499891281128,0.08
-5.764397144317627,-0.21516704559326172,-0.23279309272766113,0.09
-4.486008167266846,0.013041496276855469,0.2613210678100586,0.09999999999999999
-3.1177639961242676,-0.0021886825561523438,0.055309295654296875,0.10999999999999999
-1.6324269771575928,-0.15979766845703125,-0.4277932643890381,0.11999999999999998
-0.9445990324020386,-0.32540225982666016,-0.7160415649414062,0.12999999999999998
-1.0764219760894775,-0.49681758880615234,-1.4837498664855957,0.13999999999999999
-1.4822903871536255,-0.6207342147827148,-2.660862922668457,0.15
-1.655724287033081,-0.6080093383789062,-3.567915678024292,0.16
-1.6153416633605957,-0.2561988830566406,-4.035009384155273,0.17
-1.250614881515503,0.46734046936035156,-4.301225185394287,0.18000000000000002
-0.41355425119400024,1.1476259231567383,-4.360104560852051,0.19000000000000003
0.5278346538543701,1.7137775421142578,-4.277482986450195,0.20000000000000004
1.472367763519287,1.9818029403686523,-4.141315937042236,0.21000000000000005
2.2944130897521973,2.157364845275879,-4.0747528076171875,0.22000000000000006
2.5053982734680176,2.106560707092285,-4.1319260597229,0.23000000000000007
2.191544532775879,1.8345842361450195,-4.1976637840271,0.24000000000000007
1.8404966592788696,1.2917661666870117,-4.258111476898193,0.25000000000000006
1.4190233945846558,0.6725854873657227,-4.230915069580078,0.26000000000000006
1.0810710191726685,0.11902713775634766,-4.17860746383667,0.2700000000000001
0.582429051399231,-0.19570541381835938,-4.193309783935547,0.2800000000000001
0.3096175789833069,-0.2425060272216797,-4.038511753082275,0.2900000000000001
-0.010371148586273193,-0.15053462982177734,-3.6511783599853516,0.3000000000000001
-0.47248828411102295,-0.010934829711914062,-3.0361061096191406,0.3100000000000001
-0.7479339838027954,-0.1757497787475586,-2.311708450317383,0.3200000000000001
-1.0269207954406738,-0.4802227020263672,-1.7775429487228394,0.3300000000000001
-1.13273024559021,-0.7526321411132812,-1.3287827968597412,0.34000000000000014
-1.1060115098953247,-1.0652923583984375,-1.0905065536499023,0.35000000000000014
-0.9248616099357605,-1.4447946548461914,-0.9180910587310791,0.36000000000000015
-0.718866765499115,-1.7810816764831543,-0.9116653203964233,0.37000000000000016
-0.5581921935081482,-2.057249069213867,-0.9446446895599365,0.38000000000000017
-0.5968891382217407,-2.3113298416137695,-0.8979644775390625,0.3900000000000002
-0.29693639278411865,-2.385425567626953,-0.7169849872589111,0.4000000000000002
-0.06054258346557617,-2.38234806060791,-0.8043324947357178,0.4100000000000002
0.021458148956298828,-2.3043437004089355,-1.0864194631576538,0.4200000000000002
-0.011772990226745605,-2.1992101669311523,-1.5709807872772217,0.4300000000000002
-0.07295846939086914,-2.062230110168457,-1.9808716773986816,0.4400000000000002
-0.1684321165084839,-1.9247608184814453,-2.2440907955169678,0.45000000000000023
-0.34802550077438354,-1.7560858726501465,-2.1851375102996826,0.46000000000000024
-0.33476924896240234,-1.7239341735839844,-1.953627586364746,0.47000000000000025
-0.2995169758796692,-1.82820463180542,-1.6231632232666016,0.48000000000000026
-0.19275575876235962,-1.86769437789917,-1.2396453619003296,0.49000000000000027
-0.06473267078399658,-1.9928960800170898,-0.7969419956207275,0.5000000000000002
-0.04908478260040283,-1.9859294891357422,-0.3606780767440796,0.5100000000000002
-0.009119749069213867,-1.7871389389038086,-0.07714486122131348,0.5200000000000002
0.06486630439758301,-1.5427570343017578,0.05425620079040527,0.5300000000000002
0.2110002040863037,-1.3271102905273438,0.09653639793395996,0.5400000000000003
0.5701073408126831,-1.0996179580688477,0.01688969135284424,0.5500000000000003
0.925940752029419,-0.9536151885986328,-0.009124755859375,0.5600000000000003
1.3373966217041016,-0.7574672698974609,-0.03603863716125488,0.5700000000000003
1.7154960632324219,-0.599583625793457,-0.1070939302444458,0.5800000000000003
2.1083974838256836,-0.44403076171875,-0.138724684715271,0.5900000000000003
2.416473865509033,-0.3124065399169922,-0.04015326499938965,0.6000000000000003
2.590242385864258,-0.22626209259033203,0.08084869384765625,0.6100000000000003
2.6446948051452637,-0.24288654327392578,0.12328648567199707,0.6200000000000003
2.6450953483581543,-0.25449275970458984,0.20122432708740234,0.6300000000000003
2.6038572788238525,-0.34475135803222656,0.3594980239868164,0.6400000000000003
2.4496984481811523,-0.4442634582519531,0.5547307729721069,0.6500000000000004
2.261706829071045,-0.6367082595825195,0.7149828672409058,0.6600000000000004
1.9636108875274658,-0.8526945114135742,0.8212289810180664,0.6700000000000004
1.7472025156021118,-1.1400651931762695,0.8398979902267456,0.6800000000000004
1.4403749704360962,-1.2046728134155273,0.8046272993087769,0.6900000000000004
1.1745227575302124,-1.2118196487426758,0.665650486946106,0.7000000000000004
1.057291865348816,-1.395970344543457,0.6266855001449585,0.7100000000000004
0.7344018220901489,-1.192586898803711,0.8072458505630493,0.7200000000000004
0.5050488710403442,-1.1640691757202148,1.0587718486785889,0.7300000000000004
0.27096128463745117,-1.1021318435668945,1.1538232564926147,0.7400000000000004
0.1584024429321289,-1.0760669708251953,1.0827265977859497,0.7500000000000004
0.025523900985717773,-0.9231891632080078,1.0636452436447144,0.7600000000000005
-0.025221943855285645,-0.8469228744506836,1.0135087966918945,0.7700000000000005
-0.0969318151473999,-0.7754669189453125,0.9305483102798462,0.7800000000000005
-0.21639668941497803,-0.7661428451538086,0.8436886072158813,0.7900000000000005
-0.1922447681427002,-0.8451719284057617,0.824718177318573,0.8000000000000005
-0.12998652458190918,-0.9478340148925781,0.7154319882392883,0.8100000000000005
0.025233983993530273,-0.9975471496582031,0.5659204125404358,0.8200000000000005
0.17272865772247314,-1.0612907409667969,0.37364548444747925,0.8300000000000005
0.2120119333267212,-1.0314521789550781,0.24874919652938843,0.8400000000000005
0.3011350631713867,-1.0492305755615234,0.19352775812149048,0.8500000000000005
0.3566911220550537,-1.035675048828125,0.08313697576522827,0.8600000000000005
0.46291542053222656,-0.9550104141235352,0.0035910606384277344,0.8700000000000006
0.43826115131378174,-0.9412479400634766,-0.09788668155670166,0.8800000000000006
0.39081501960754395,-0.7910785675048828,-0.31966322660446167,0.8900000000000006
0.354345440864563,-0.6577253341674805,-0.6093435287475586,0.9000000000000006
0.31203722953796387,-0.4311666488647461,-0.8139207363128662,0.9100000000000006
0.30905139446258545,-0.19759178161621094,-0.8088676929473877,0.9200000000000006
0.24446940422058105,0.050197601318359375,-0.7088253498077393,0.9300000000000006
0.13489395380020142,0.4102334976196289,-0.5163273215293884,0.9400000000000006
0.15253591537475586,0.9038944244384766,-0.27947932481765747,0.9500000000000006
0.110501229763031,1.4019126892089844,-0.02242317795753479,0.9600000000000006
0.18085956573486328,1.8827686309814453,0.3502601385116577,0.9700000000000006
0.28188151121139526,2.193467140197754,0.812096357345581,0.9800000000000006
0.40118831396102905,2.3414154052734375,1.30045747756958,0.9900000000000007
0.6148025393486023,2.3985729217529297,1.623868465423584,1.0000000000000007
0.8506690263748169,2.3889541625976562,1.754096269607544,1.0100000000000007
1.1469035148620605,2.348494529724121,1.660955786705017,1.0200000000000007
1.4940465688705444,2.2772064208984375,1.5270220041275024,1.0300000000000007
1.7462971210479736,2.184673309326172,1.448042631149292,1.0400000000000007
2.047530174255371,2.0708885192871094,1.4593051671981812,1.0500000000000007
2.3070507049560547,2.014754295349121,1.5098661184310913,1.0600000000000007
2.5752649307250977,2.0066070556640625,1.4819307327270508,1.0700000000000007
2.699298858642578,1.9650545120239258,1.4350496530532837,1.0800000000000007
2.7561001777648926,1.990534782409668,1.3643242120742798,1.0900000000000007
2.7960634231567383,1.9155645370483398,1.2983685731887817,1.1000000000000008
2.7548322677612305,1.907618522644043,1.2010688781738281,1.1100000000000008
2.6493070125579834,1.8231315612792969,1.2252910137176514,1.1200000000000008
2.601588487625122,1.6813154220581055,1.344468355178833,1.1300000000000008
2.427443265914917,1.5754890441894531,1.4530044794082642,1.1400000000000008
2.3828349113464355,1.5032167434692383,1.5770665407180786,1.1500000000000008
2.3048455715179443,1.361654281616211,1.7309489250183105,1.1600000000000008
2.257857322692871,1.2871952056884766,1.6989281177520752,1.1700000000000008
2.220004081726074,1.2271757125854492,1.4734779596328735,1.1800000000000008
2.2766647338867188,1.2151098251342773,1.0231304168701172,1.1900000000000008
2.1373257637023926,1.4686222076416016,0.4075883626937866,1.2000000000000008
2.131474018096924,1.7746543884277344,-0.08809904754161835,1.2100000000000009
1.9379675388336182,2.1475648880004883,-0.6146180033683777,1.2200000000000009
1.9254615306854248,2.804896354675293,-0.8848495483398438,1.2300000000000009
2.0178608894348145,3.1533126831054688,-0.939392626285553,1.2400000000000009
2.18685245513916,3.104766845703125,-0.8793262243270874,1.2500000000000009
2.3177666664123535,2.8176403045654297,-0.7771694660186768,1.260000000000001
2.4662320613861084,2.342531204223633,-0.8660504221916199,1.270000000000001
2.426830530166626,1.9811077117919922,-1.0586457252502441,1.280000000000001
2.255603551864624,1.3245258331298828,-1.473514199256897,1.290000000000001
1.9994335174560547,0.8276138305664062,-1.871643304824829,1.300000000000001
1.8085932731628418,0.3205108642578125,-2.3436529636383057,1.310000000000001
1.1982916593551636,0.2720003128051758,-2.4597458839416504,1.320000000000001
0.6140948534011841,0.2870168685913086,-2.5144166946411133,1.330000000000001
0.010313749313354492,0.3869810104370117,-2.5218966007232666,1.340000000000001
-0.5489779114723206,0.5406970977783203,-2.7317934036254883,1.350000000000001
-0.9208110570907593,0.7718963623046875,-2.960299015045166,1.360000000000001
-1.3263654708862305,0.7886562347412109,-3.012275457382202,1.370000000000001
-1.7183716297149658,0.5887355804443359,-2.8943004608154297,1.380000000000001
-1.9413437843322754,0.3372802734375,-2.728332042694092,1.390000000000001
-2.225322723388672,0.07736396789550781,-2.3687384128570557,1.400000000000001
-2.235811710357666,-0.08343887329101562,-1.8875479698181152,1.410000000000001
-2.4073119163513184,-0.08056163787841797,-1.4050986766815186,1.420000000000001
-2.5352096557617188,0.11945056915283203,-0.843315601348877,1.430000000000001
-2.637113094329834,0.43053150177001953,-0.30392372608184814,1.440000000000001
-2.693298816680908,0.8050813674926758,0.08933091163635254,1.450000000000001
-2.872349739074707,1.250666618347168,0.3656284809112549,1.460000000000001
-3.0915451049804688,1.6669940948486328,0.6894838809967041,1.470000000000001
-3.3933427333831787,2.0801639556884766,0.9835455417633057,1.480000000000001
-3.6837263107299805,2.4248342514038086,1.0957896709442139,1.490000000000001
-3.7371246814727783,2.774540901184082,0.8016057014465332,1.500000000000001
-3.7300519943237305,3.138734817504883,0.04645562171936035,1.5100000000000011
-3.6817193031311035,3.4221973419189453,-0.8241145610809326,1.5200000000000011
-3.3003952503204346,3.4127607345581055,-1.5271942615509033,1.5300000000000011
-2.633152961730957,3.252117156982422,-1.8099520206451416,1.5400000000000011
-2.039295196533203,3.1125059127807617,-1.7509346008300781,1.5500000000000012
-1.4327919483184814,2.6851768493652344,-1.4618195295333862,1.5600000000000012
-0.8362626433372498,2.3144540786743164,-1.1498801708221436,1.5700000000000012
-0.5518385171890259,1.796574592590332,-0.9718625545501709,1.5800000000000012
-0.31365782022476196,1.3299932479858398,-0.9727892875671387,1.5900000000000012
-0.23861783742904663,0.8477106094360352,-1.0786278247833252,1.6000000000000012
0.028392642736434937,0.3232755661010742,-1.1217381954193115,1.6100000000000012
0.18934807181358337,-0.16224956512451172,-1.266801357269287,1.6200000000000012
0.012946277856826782,-0.7645845413208008,-1.5205471515655518,1.6300000000000012
-0.006328314542770386,-1.3407001495361328,-1.7097604274749756,1.6400000000000012
-0.1712603121995926,-1.9843292236328125,-1.8124239444732666,1.6500000000000012
-0.2736334502696991,-2.5712552070617676,-2.0389552116394043,1.6600000000000013
-0.3345406949520111,-3.0659356117248535,-2.183406114578247,1.6700000000000013
-0.329379141330719,-3.8536429405212402,-2.1717474460601807,1.6800000000000013
-0.38668423891067505,-4.584953308105469,-2.2483251094818115,1.6900000000000013
-0.5034968852996826,-5.4440693855285645,-2.3822171688079834,1.7000000000000013
-0.48843371868133545,-6.169984817504883,-2.547694683074951,1.7100000000000013
-0.4947203993797302,-6.640741348266602,-2.704580307006836,1.7200000000000013
-0.4457097053527832,-7.002622127532959,-2.757192373275757,1.7300000000000013
-0.4849795699119568,-6.985503196716309,-2.7848165035247803,1.7400000000000013
-0.5173358917236328,-6.625807762145996,-2.7252159118652344,1.7500000000000013
-0.526832640171051,-5.940932273864746,-2.4872560501098633,1.7600000000000013
-0.5457558035850525,-5.268633842468262,-2.2238271236419678,1.7700000000000014
-0.5769935846328735,-4.795670032501221,-2.011060953140259,1.7800000000000014
-0.7192132472991943,-4.531491756439209,-1.8606593608856201,1.7900000000000014
-0.8389278650283813,-4.518926620483398,-1.805985689163208,1.8000000000000014
-1.0513466596603394,-4.487733840942383,-1.7054097652435303,1.8100000000000014
-1.1939481496810913,-4.486057281494141,-1.66371488571167,1.8200000000000014
-1.314849853515625,-4.466187477111816,-1.6399354934692383,1.8300000000000014
-1.3951833248138428,-4.483303070068359,-1.5237529277801514,1.8400000000000014
-1.4212082624435425,-4.547114372253418,-1.365084171295166,1.8500000000000014
-1.4605011940002441,-4.660009384155273,-1.2163619995117188,1.8600000000000014
-1.4750313758850098,-4.807600975036621,-1.1060822010040283,1.8700000000000014
-1.4216960668563843,-4.939586162567139,-1.0221447944641113,1.8800000000000014
-1.345718502998352,-5.062967777252197,-0.9550905227661133,1.8900000000000015
-1.249098777770996,-5.2300872802734375,-0.9242877960205078,1.9000000000000015
-1.1338157653808594,-5.251578330993652,-0.8441247940063477,1.9100000000000015
-1.0880447626113892,-5.2252888679504395,-0.7389869689941406,1.9200000000000015
-1.0278288125991821,-5.055362701416016,-0.48717236518859863,1.9300000000000015
-0.9430990219116211,-4.878177642822266,-0.1557178497314453,1.9400000000000015
-0.8067597150802612,-4.616884231567383,0.06593942642211914,1.9500000000000015
-0.821353018283844,-4.189624786376953,0.1911473274230957,1.9600000000000015
-0.6576462984085083,-3.6126718521118164,0.3214578628540039,1.9700000000000015
-0.5412884950637817,-2.933222770690918,0.4501795768737793,1.9800000000000015
-0.40574344992637634,-2.047759532928467,0.6420485973358154,1.9900000000000015
-0.08949851989746094,-0.9961204528808594,0.8534319400787354,2.0000000000000013
0.42922443151474,0.2660341262817383,0.9176738262176514,2.010000000000001
0.9426824450492859,1.5752229690551758,0.9548392295837402,2.020000000000001
1.9102537631988525,3.214731216430664,1.2003884315490723,2.0300000000000007
2.8933238983154297,5.118288040161133,1.631685733795166,2.0400000000000005
3.846327304840088,7.329331398010254,2.6724133491516113,2.0500000000000003
3.8409831523895264,9.457898139953613,4.3128767013549805,2.06
3.2078256607055664,10.523035049438477,6.247029781341553,2.07
2.67879056930542,10.87098217010498,7.872195720672607,2.0799999999999996
2.0510921478271484,10.902294158935547,8.81818962097168,2.0899999999999994
1.5034992694854736,10.417533874511719,8.868131637573242,2.099999999999999
1.4588840007781982,9.035842895507812,8.574844360351562,2.109999999999999
1.3038644790649414,5.4321489334106445,8.426713943481445,2.1199999999999988
0.7873862981796265,0.02275562286376953,6.78792142868042,2.1299999999999986
0.1790461540222168,-3.0219149589538574,4.55593204498291,2.1399999999999983
-0.2690790891647339,-4.386048316955566,2.515946388244629,2.149999999999998
-0.9735080003738403,-4.396553993225098,0.2426600456237793,2.159999999999998
-1.535510778427124,-2.699399948120117,-1.1231739521026611,2.1699999999999977
-1.7629058361053467,0.06356048583984375,-1.2711982727050781,2.1799999999999975
-2.0033090114593506,2.953768730163574,-1.9867370128631592,2.1899999999999973
-2.5826056003570557,6.116645812988281,-4.040497303009033,2.199999999999997
-2.909585952758789,9.240174293518066,-6.172989845275879,2.209999999999997
-3.013807773590088,12.058073043823242,-6.643709659576416,2.2199999999999966
-3.792628288269043,13.877618789672852,-5.246672630310059,2.2299999999999964
-4.437895774841309,13.86221981048584,-3.5924649238586426,2.239999999999996
-5.224055290222168,11.875743865966797,-1.8496220111846924,2.249999999999996
-6.339016437530518,9.073897361755371,0.2210988998413086,2.259999999999996
-6.708841323852539,5.672812461853027,1.5281720161437988,2.2699999999999956
-5.842796325683594,2.4183502197265625,1.0557799339294434,2.2799999999999954
-4.967382907867432,0.24402141571044922,-0.41475820541381836,2.289999999999995
-4.533112525939941,-0.34133148193359375,-1.6128733158111572,2.299999999999995
-4.19366979598999,-0.2906074523925781,-2.0377228260040283,2.3099999999999947
-3.97072172164917,-0.9243006706237793,-3.097630739212036,2.3199999999999945
-4.094511032104492,-1.6442217826843262,-3.9316511154174805,2.3299999999999943
-3.892939805984497,-1.8577079772949219,-4.295989990234375,2.339999999999994
-3.472715377807617,-1.4527254104614258,-4.084102630615234,2.349999999999994
-2.9210259914398193,-0.4917144775390625,-3.51516056060791,2.3599999999999937
-2.5827672481536865,0.7825222015380859,-3.13613224029541,2.3699999999999934
-2.1553103923797607,2.159992218017578,-3.080134391784668,2.3799999999999932
-1.2405319213867188,3.4423742294311523,-3.263594150543213,2.389999999999993
-0.06670460104942322,4.421535491943359,-2.9416308403015137,2.399999999999993
0.8794893026351929,5.096797943115234,-2.2004315853118896,2.4099999999999926
1.673622965812683,5.2924909591674805,-1.4433579444885254,2.4199999999999924
2.1515796184539795,4.792938232421875,-1.5263066291809082,2.429999999999992
1.698742151260376,3.555445671081543,-2.451523542404175,2.439999999999992
1.0455129146575928,1.929330825805664,-3.1135902404785156,2.4499999999999917
0.9833594560623169,0.2686185836791992,-3.7869317531585693,2.4599999999999915
0.6701560020446777,-1.0154838562011719,-4.531067371368408,2.4699999999999913
0.3068493604660034,-1.7749252319335938,-5.152944564819336,2.479999999999991
0.35138076543807983,-1.894942283630371,-5.372214317321777,2.489999999999991
0.43513786792755127,-1.6909265518188477,-5.3713603019714355,2.4999999999999907
0.5038568377494812,-1.2459259033203125,-5.282413482666016,2.5099999999999905
0.5431980490684509,-0.7507963180541992,-5.011772632598877,2.5199999999999902
0.6223933100700378,-0.33915042877197266,-4.527294158935547,2.52999999999999
0.6450866460800171,-0.06585025787353516,-3.925076484680176,2.53999999999999
0.710945725440979,0.038170814514160156,-3.2721705436706543,2.5499999999999896
0.8068656921386719,-0.007750511169433594,-2.5374481678009033,2.5599999999999894
0.8693991899490356,-0.1746530532836914,-1.8907777070999146,2.569999999999989
1.0099223852157593,-0.41913890838623047,-1.3802915811538696,2.579999999999989
1.064990520477295,-0.7265176773071289,-0.9849627017974854,2.5899999999999888
1.070299744606018,-1.0631542205810547,-0.6954455375671387,2.5999999999999885
1.0229915380477905,-1.3905744552612305,-0.4930863380432129,2.6099999999999883
0.9779843091964722,-1.7566852569580078,-0.2868952751159668,2.619999999999988
0.7270832061767578,-1.9893512725830078,-0.22505879402160645,2.629999999999988
0.46213018894195557,-2.249286651611328,-0.24203133583068848,2.6399999999999877
0.1500788927078247,-2.512925148010254,-0.35108327865600586,2.6499999999999875
-0.050701022148132324,-2.747089385986328,-0.6302585601806641,2.6599999999999873
-0.24950480461120605,-2.9399642944335938,-1.1176737546920776,2.669999999999987
-0.25418126583099365,-2.8812341690063477,-1.5886032581329346,2.679999999999987
-0.2847509980201721,-2.5950355529785156,-2.072303056716919,2.6899999999999866
-0.25033748149871826,-2.2776527404785156,-2.3730852603912354,2.6999999999999864
-0.2471637725830078,-1.9074702262878418,-2.6446213722229004,2.709999999999986
-0.08938360214233398,-1.6662750244140625,-2.771960496902466,2.719999999999986
0.08102691173553467,-1.3435583114624023,-2.66147518157959,2.7299999999999858
0.13212895393371582,-1.0854578018188477,-2.4751415252685547,2.7399999999999856
0.20256006717681885,-0.7606334686279297,-2.259674549102783,2.7499999999999853
0.3162097930908203,-0.5940322875976562,-2.2010915279388428,2.759999999999985
0.37217533588409424,-0.43243885040283203,-2.2103140354156494,2.769999999999985
0.42271673679351807,-0.45270729064941406,-2.2370238304138184,2.7799999999999847
0.5539422035217285,-0.39156150817871094,-2.0875375270843506,2.7899999999999845
0.6869076490402222,-0.3446998596191406,-1.9128689765930176,2.7999999999999843
0.8071882724761963,-0.31917762756347656,-1.7731587886810303,2.809999999999984
0.8430649042129517,-0.41531944274902344,-1.565885305404663,2.819999999999984
0.911798357963562,-0.5276346206665039,-1.4280967712402344,2.8299999999999836
0.9276463985443115,-0.6368417739868164,-1.3632049560546875,2.8399999999999834
0.8838605880737305,-0.6735496520996094,-1.1303989887237549,2.849999999999983
0.7712336778640747,-0.7621517181396484,-0.7162509560585022,2.859999999999983
0.577776312828064,-0.8427925109863281,-0.18823421001434326,2.869999999999983
0.5521277189254761,-0.9011478424072266,0.27165400981903076,2.8799999999999826
0.5002026557922363,-0.9707508087158203,0.6587458848953247,2.8899999999999824
0.5295708179473877,-1.018183708190918,1.0045173168182373,2.899999999999982
0.5394173860549927,-1.036402702331543,1.2404778003692627,2.909999999999982
0.500494122505188,-1.1187562942504883,1.2720527648925781,2.9199999999999817
0.5037814378738403,-1.167257308959961,1.1792988777160645,2.9299999999999815
0.42554426193237305,-1.2108287811279297,0.9776221513748169,2.9399999999999813
0.2307901382446289,-1.2520389556884766,0.6128687858581543,2.949999999999981
0.09727621078491211,-1.34600830078125,0.13596224784851074,2.959999999999981
-0.0032633543014526367,-1.32293701171875,-0.2090669870376587,2.9699999999999807
-0.07497870922088623,-1.3671159744262695,-0.343747615814209,2.9799999999999804
-0.16775751113891602,-1.3397302627563477,-0.41491541266441345,2.9899999999999802
-0.1667879819869995,-1.2718696594238281,-0.35641157627105713,2.99999999999998
-0.13933098316192627,-1.342860221862793,-0.14949309825897217,3.00999999999998
-0.04030406475067139,-1.4137840270996094,0.030981481075286865,3.0199999999999796
0.13470458984375,-1.4152393341064453,0.1490224003791809,3.0299999999999794
0.2731119394302368,-1.4333782196044922,0.23343771696090698,3.039999999999979
0.3510171175003052,-1.3151397705078125,0.3226413130760193,3.049999999999979
0.40966618061065674,-1.2544317245483398,0.404704213142395,3.0599999999999787
0.41344594955444336,-1.057474136352539,0.42391741275787354,3.0699999999999785
0.36709487438201904,-0.7196073532104492,0.4824880361557007,3.0799999999999783
0.3252350091934204,-0.37005615234375,0.6038047075271606,3.089999999999978
0.4573194980621338,-0.11640167236328125,0.835404634475708,3.099999999999978
0.4996609687805176,0.10607051849365234,1.0934803485870361,3.1099999999999777
0.5021243095397949,0.1300516128540039,1.327950119972229,3.1199999999999775
0.5909109115600586,0.06821441650390625,1.4239811897277832,3.1299999999999772
0.564535915851593,0.02352142333984375,1.2619696855545044,3.139999999999977
0.6042159199714661,-0.006409645080566406,1.153503656387329,3.149999999999977
0.6281587481498718,-0.0885457992553711,1.1830079555511475,3.1599999999999766
0.6886786818504333,-0.10565662384033203,1.2627532482147217,3.1699999999999764
0.694855272769928,-0.03631877899169922,1.3882317543029785,3.179999999999976
0.7806667685508728,0.18390846252441406,1.4109904766082764,3.189999999999976
0.90306556224823,0.33722877502441406,1.5797899961471558,3.1999999999999758
1.0908489227294922,0.49065589904785156,1.7508928775787354,3.2099999999999755
1.2747726440429688,0.7111139297485352,1.806965947151184,3.2199999999999753
1.423943281173706,0.9315414428710938,1.7145136594772339,3.229999999999975
1.5576908588409424,1.1040973663330078,1.5190513134002686,3.239999999999975
1.6597073078155518,1.2383670806884766,1.2756354808807373,3.2499999999999747
1.869203805923462,1.3439207077026367,1.0585355758666992,3.2599999999999745
2.004650354385376,1.4590301513671875,0.8198884129524231,3.2699999999999743
2.174146890640259,1.5716896057128906,0.6647488474845886,3.279999999999974
2.2608084678649902,1.8085899353027344,0.5685685873031616,3.289999999999974
2.247896194458008,2.0093460083007812,0.5304650068283081,3.2999999999999736
2.163991928100586,2.1954946517944336,0.6333205699920654,3.3099999999999734
2.1575076580047607,2.4650516510009766,0.7905235290527344,3.319999999999973
2.1852784156799316,2.64572811126709,0.9923050403594971,3.329999999999973
2.1466174125671387,2.6850337982177734,1.1908988952636719,3.3399999999999728
2.0963048934936523,2.6548900604248047,1.281325101852417,3.3499999999999726
2.0725486278533936,2.615168571472168,1.3093916177749634,3.3599999999999723
2.101668357849121,2.420003890991211,1.3922772407531738,3.369999999999972
1.917726993560791,2.323057174682617,1.49149489402771,3.379999999999972
1.8123924732208252,2.443756103515625,1.5686020851135254,3.3899999999999717
1.7780777215957642,2.3777389526367188,1.6905977725982666,3.3999999999999715
1.7518490552902222,2.455206871032715,1.7182927131652832,3.4099999999999713
1.7330507040023804,2.5492401123046875,1.6297531127929688,3.419999999999971
1.8404819965362549,2.714813232421875,1.360116958618164,3.429999999999971
1.8865234851837158,3.0044422149658203,0.8970288038253784,3.4399999999999706
2.1123151779174805,3.324709892272949,0.45048093795776367,3.4499999999999704
2.2953619956970215,3.701869010925293,0.024659723043441772,3.45999999999997
2.5075924396514893,4.0880231857299805,-0.3143587112426758,3.46999999999997
2.785506010055542,4.409078598022461,-0.3706304132938385,3.47999999999997
2.8595473766326904,4.308884620666504,-0.4389873147010803,3.4899999999999696
2.9402823448181152,3.9171762466430664,-0.5728895664215088,3.4999999999999694
3.1379692554473877,3.5668134689331055,-0.7051056623458862,3.509999999999969
3.2209393978118896,3.0689878463745117,-1.0388380289077759,3.519999999999969
3.0913617610931396,2.3618850708007812,-1.3849225044250488,3.5299999999999687
3.0085525512695312,1.7902402877807617,-1.6945271492004395,3.5399999999999685
2.6673312187194824,1.2607574462890625,-2.0363454818725586,3.5499999999999683
1.9699671268463135,0.6229228973388672,-2.365453004837036,3.559999999999968
1.4368616342544556,0.18545818328857422,-2.5502419471740723,3.569999999999968
0.9186813831329346,-0.04460716247558594,-2.729262113571167,3.5799999999999677
0.28530895709991455,-0.20851707458496094,-2.7226245403289795,3.5899999999999674
-0.40212491154670715,-0.28719329833984375,-2.529121160507202,3.5999999999999672
-1.2216730117797852,-0.33336734771728516,-2.2595834732055664,3.609999999999967
-1.883385181427002,-0.4786567687988281,-1.9507215023040771,3.619999999999967
-2.439696788787842,-0.7445611953735352,-1.6943466663360596,3.6299999999999666
-2.9435293674468994,-0.9588756561279297,-1.5394227504730225,3.6399999999999664
-3.3871212005615234,-1.2437047958374023,-1.4127405881881714,3.649999999999966
-3.7471976280212402,-1.4771556854248047,-1.2672624588012695,3.659999999999966
-3.629594326019287,-1.5782346725463867,-1.034593105316162,3.6699999999999657
-3.1872103214263916,-1.4277162551879883,-0.8318138718605042,3.6799999999999655
-2.8427481651306152,-1.238729476928711,-0.7028132081031799,3.6899999999999653
-2.433779716491699,-0.9562759399414062,-0.610511064529419,3.699999999999965
-2.279982089996338,-0.630218505859375,-0.7279964685440063,3.709999999999965
-2.380183219909668,-0.19510459899902344,-0.8903713226318359,3.7199999999999647
-2.6906423568725586,0.28537464141845703,-0.77186119556427,3.7299999999999645
-2.9877302646636963,0.8094873428344727,-0.34139490127563477,3.7399999999999642
-3.08808970451355,1.3655328750610352,0.2812838554382324,3.749999999999964
-3.100667953491211,1.8670291900634766,0.9627554416656494,3.759999999999964
-3.2239928245544434,2.3417367935180664,1.5717837810516357,3.7699999999999636
-3.142730236053467,2.673828125,1.6609609127044678,3.7799999999999634
-2.842808961868286,2.757533073425293,1.142331838607788,3.789999999999963
-2.5946943759918213,2.717238426208496,0.1819164752960205,3.799999999999963
-2.2340595722198486,2.708174705505371,-0.9968385696411133,3.8099999999999627
-1.695054292678833,2.588815689086914,-2.0701959133148193,3.8199999999999625
-0.8872733116149902,2.3141651153564453,-2.889160633087158,3.8299999999999623
-0.14847706258296967,1.7558565139770508,-3.0112955570220947,3.839999999999962
0.168989896774292,0.8139619827270508,-2.442782402038574,3.849999999999962
0.380050390958786,-0.3343696594238281,-1.6022717952728271,3.8599999999999617
0.41029900312423706,-1.2637648582458496,-0.9958975315093994,3.8699999999999615
0.22621987760066986,-1.8435893058776855,-0.5719118118286133,3.8799999999999613
-0.03522796928882599,-2.2228517532348633,-0.547271728515625,3.889999999999961
-0.1799633949995041,-2.4520201683044434,-0.8070774078369141,3.899999999999961
-0.20960861444473267,-2.631516933441162,-1.1963527202606201,3.9099999999999606
-0.03187134861946106,-2.7658891677856445,-1.6585509777069092,3.9199999999999604
-0.040637075901031494,-2.936441421508789,-2.1030662059783936,3.92999999999996
-0.11532697081565857,-3.291625499725342,-2.357454776763916,3.93999999999996
-0.12268702685832977,-3.9414052963256836,-2.6131081581115723,3.9499999999999598
-0.15579524636268616,-4.429089069366455,-2.6303458213806152,3.9599999999999596
-0.12098315358161926,-5.030345439910889,-2.5330426692962646,3.9699999999999593
-0.07584194839000702,-5.520657539367676,-2.433164358139038,3.979999999999959
-0.13004867732524872,-5.819012641906738,-2.392831802368164,3.989999999999959
-0.239199697971344,-5.545531272888184,-2.297194242477417,3.9999999999999587
-0.1709638237953186,-4.923213958740234,-2.1034910678863525,4.009999999999959
0.03723272681236267,-4.272965908050537,-1.7807214260101318,4.019999999999959
0.14749956130981445,-3.795637607574463,-1.5659146308898926,4.0299999999999585
0.20571479201316833,-3.6035642623901367,-1.4468014240264893,4.039999999999958
0.06168368458747864,-3.562715530395508,-1.3751435279846191,4.049999999999958
0.014925330877304077,-3.6563782691955566,-1.3458051681518555,4.059999999999958
-0.15171778202056885,-3.836813449859619,-1.2890264987945557,4.069999999999958
-0.44743022322654724,-4.010829925537109,-1.2547886371612549,4.079999999999957
-0.6423914432525635,-4.178586959838867,-1.2236711978912354,4.089999999999957
-0.7536188364028931,-4.399921417236328,-1.0975050926208496,4.099999999999957
-0.853377640247345,-4.571799278259277,-0.9196391105651855,4.109999999999957
-0.9490534067153931,-4.658199310302734,-0.6928224563598633,4.119999999999957
-1.0070717334747314,-4.685283660888672,-0.4102954864501953,4.129999999999956
-1.0178052186965942,-4.786830902099609,-0.16323041915893555,4.139999999999956
-0.9262441992759705,-4.859780311584473,0.09849739074707031,4.149999999999956
-0.8523027896881104,-4.89461088180542,0.3679080009460449,4.159999999999956
-0.6699014902114868,-4.85307502746582,0.5638799667358398,4.1699999999999555
-0.5614053010940552,-4.7447404861450195,0.6770505905151367,4.179999999999955
-0.4119890034198761,-4.602835655212402,0.6497626304626465,4.189999999999955
-0.3434584438800812,-4.355170726776123,0.6440463066101074,4.199999999999955
-0.35284900665283203,-4.0322699546813965,0.7423386573791504,4.209999999999955
-0.34800153970718384,-3.5665178298950195,0.9501571655273438,4.2199999999999545
-0.3220469355583191,-3.0578250885009766,1.1414031982421875,4.229999999999954
-0.27370157837867737,-2.551008701324463,1.2761900424957275,4.239999999999954
-0.10019010305404663,-1.8132166862487793,1.2304117679595947,4.249999999999954
0.054644763469696045,-0.9653849601745605,0.7690677642822266,4.259999999999954
0.29679858684539795,0.1420154571533203,0.23072099685668945,4.269999999999953
0.5568129420280457,1.9281721115112305,0.19791626930236816,4.279999999999953
0.6136970520019531,4.548633575439453,0.7172162532806396,4.289999999999953
0.2777671217918396,8.10353946685791,2.4102158546447754,4.299999999999953
-0.5743794441223145,11.680768966674805,5.168543338775635,4.3099999999999525
-1.4322123527526855,13.42365550994873,8.104935646057129,4.319999999999952
-0.8692795038223267,12.481666564941406,10.173551559448242,4.329999999999952
-0.7828723192214966,10.798335075378418,10.874441146850586,4.339999999999952
-0.6818850636482239,8.605680465698242,9.953169822692871,4.349999999999952
-0.4351345896720886,5.726840019226074,8.467629432678223,4.3599999999999515
0.06551861763000488,2.199671745300293,6.8946452140808105,4.369999999999951
0.2914857864379883,-1.9382762908935547,5.067378044128418,4.379999999999951
-0.6481989622116089,-5.0535173416137695,2.8980555534362793,4.389999999999951
-1.7436678409576416,-4.352015972137451,1.0347614288330078,4.399999999999951
-2.4174978733062744,-0.5577869415283203,-0.803107738494873,4.40999999999995
-2.4565916061401367,3.6448373794555664,-2.234294891357422,4.41999999999995
-1.7125043869018555,7.597339630126953,-3.9698734283447266,4.42999999999995
-1.6365950107574463,11.131752967834473,-5.823163986206055,4.43999999999995
-2.8260679244995117,13.066535949707031,-7.398789405822754,4.4499999999999496
-4.554117679595947,13.76887035369873,-8.083324432373047,4.459999999999949
-6.49234676361084,13.301430702209473,-7.837112903594971,4.469999999999949
-8.034540176391602,11.102594375610352,-6.659339904785156,4.479999999999949
-6.94791316986084,6.7270355224609375,-4.329662799835205,4.489999999999949
-5.2678680419921875,2.688264846801758,-2.1256980895996094,4.4999999999999485
-4.737941741943359,1.3722190856933594,-1.1327860355377197,4.509999999999948
-4.476705074310303,1.4952373504638672,-1.4507505893707275,4.519999999999948
-3.8792030811309814,1.3915042877197266,-1.4284827709197998,4.529999999999948
-2.8357529640197754,0.6576480865478516,-0.8602898120880127,4.539999999999948
-1.9911473989486694,-0.2479724884033203,-0.38298702239990234,4.549999999999947
-1.6570518016815186,-1.3437881469726562,-0.742767333984375,4.559999999999947
-1.616527795791626,-2.1571574211120605,-2.022843599319458,4.569999999999947
-1.8758139610290527,-2.510295867919922,-3.314145803451538,4.579999999999947
-2.1536431312561035,-2.4689555168151855,-4.032731533050537,4.589999999999947
-2.21267032623291,-2.0535888671875,-4.295636177062988,4.599999999999946
-1.798145055770874,-1.3088998794555664,-4.1854119300842285,4.609999999999946
-1.0896104574203491,-0.2276935577392578,-3.569411277770996,4.619999999999946
-0.15620988607406616,0.8163518905639648,-2.681344985961914,4.629999999999946
1.1323636770248413,1.550149917602539,-1.8256677389144897,4.6399999999999455
2.237571954727173,1.878279685974121,-1.5465123653411865,4.649999999999945
2.958484172821045,1.787139892578125,-1.7664800882339478,4.659999999999945
3.4465243816375732,1.44940185546875,-2.199577808380127,4.669999999999945
3.7111196517944336,0.8146724700927734,-2.6666769981384277,4.679999999999945
3.6972506046295166,0.09817981719970703,-3.2096052169799805,4.689999999999944
3.2725095748901367,-0.43428611755371094,-3.9056544303894043,4.699999999999944
2.4219532012939453,-0.7104520797729492,-4.716592311859131,4.709999999999944
1.5260895490646362,-0.7060031890869141,-5.303648948669434,4.719999999999944
0.8520752191543579,-0.6314153671264648,-5.255983352661133,4.729999999999944
0.41340458393096924,-0.7092533111572266,-4.570555686950684,4.739999999999943
0.0034427642822265625,-0.8153295516967773,-3.4889631271362305,4.749999999999943
-0.2873266339302063,-1.016810417175293,-2.3186795711517334,4.759999999999943
-0.25317060947418213,-1.167729377746582,-1.4369035959243774,4.769999999999943
0.054335832595825195,-1.251114845275879,-1.0615675449371338,4.7799999999999425
0.3735487461090088,-1.4339752197265625,-0.935218095779419,4.789999999999942
0.651286244392395,-1.5413923263549805,-0.7021021842956543,4.799999999999942
0.8555574417114258,-1.6618432998657227,-0.3146514892578125,4.809999999999942
0.834632158279419,-1.8383374214172363,0.031157493591308594,4.819999999999942
0.8129712343215942,-1.884383201599121,0.23535990715026855,4.8299999999999415
0.6684126853942871,-2.032228469848633,0.28670310974121094,4.839999999999941
0.5353134870529175,-2.1456408500671387,0.14279556274414062,4.849999999999941
0.3474332094192505,-2.126894950866699,-0.07836008071899414,4.859999999999941
0.004799008369445801,-2.0672073364257812,-0.41442203521728516,4.869999999999941
-0.3053187131881714,-1.9931483268737793,-0.8527334928512573,4.87999999999994
-0.5271782279014587,-1.7925519943237305,-1.2636806964874268,4.88999999999994
-0.7917580008506775,-1.6330113410949707,-1.6928613185882568,4.89999999999994
-0.9908296465873718,-1.3782157897949219,-1.937214732170105,4.90999999999994
-1.2223798036575317,-1.0210800170898438,-2.0856778621673584,4.9199999999999395
-1.460429072380066,-0.815093994140625,-2.0453193187713623,4.929999999999939
-1.5166114568710327,-0.6284656524658203,-1.79255211353302,4.939999999999939
-1.3316888809204102,-0.5185232162475586,-1.4734588861465454,4.949999999999939
-1.1771588325500488,-0.5256929397583008,-1.2315120697021484,4.959999999999939
-0.8025634288787842,-0.4753227233886719,-0.948715329170227,4.9699999999999385
-0.5365096926689148,-0.5970211029052734,-0.8349727392196655,4.979999999999938
-0.025157690048217773,-0.7540273666381836,-0.7861075401306152,4.989999999999938
0.3103165626525879,-0.9341640472412109,-0.5712031126022339,4.999999999999938
0.43471813201904297,-1.0107736587524414,-0.20951437950134277,5.009999999999938
0.5710738897323608,-1.2447052001953125,-0.09564924240112305,5.019999999999937
0.7075363397598267,-1.396733283996582,-0.25290513038635254,5.029999999999937
0.930486798286438,-1.3905868530273438,-0.4292615056037903,5.039999999999937
1.1799753904342651,-1.2863044738769531,-0.5811250805854797,5.049999999999937
1.33367919921875,-1.2513799667358398,-0.7273176312446594,5.0599999999999365
1.4656034708023071,-1.2330780029296875,-0.8176319599151611,5.069999999999936
1.4969300031661987,-1.1572418212890625,-0.8235225677490234,5.079999999999936
1.5760366916656494,-1.1291284561157227,-0.8265317678451538,5.089999999999936
1.6072618961334229,-1.1534242630004883,-0.7504408955574036,5.099999999999936
1.6024987697601318,-1.2515830993652344,-0.6262865662574768,5.1099999999999355
1.5617526769638062,-1.344625473022461,-0.515988826751709,5.119999999999935
1.4590213298797607,-1.456512451171875,-0.40740644931793213,5.129999999999935
1.3494898080825806,-1.4533071517944336,-0.40590548515319824,5.139999999999935
1.1784855127334595,-1.4642715454101562,-0.351493775844574,5.149999999999935
0.9868181943893433,-1.3793821334838867,-0.18711668252944946,5.159999999999934
0.7553774118423462,-1.2274274826049805,0.012692093849182129,5.169999999999934
0.5895392894744873,-1.1352500915527344,0.21936100721359253,5.179999999999934
0.44157731533050537,-1.0597496032714844,0.3179953098297119,5.189999999999934
0.3214395046234131,-1.0559415817260742,0.3754886984825134,5.199999999999934
0.1767822504043579,-1.030503273010254,0.3556827902793884,5.209999999999933
0.139349102973938,-1.0504093170166016,0.3059094548225403,5.219999999999933
0.08226454257965088,-0.9601821899414062,0.28817859292030334,5.229999999999933
0.012750625610351562,-0.8412857055664062,0.36492565274238586,5.239999999999933
-0.02128291130065918,-0.7152996063232422,0.37612947821617126,5.2499999999999325
-0.06764709949493408,-0.5033540725708008,0.456420361995697,5.259999999999932
-0.0713963508605957,-0.2031545639038086,0.4673788547515869,5.269999999999932
-0.0037878751754760742,0.0751953125,0.44997847080230713,5.279999999999932
0.106514573097229,0.2695598602294922,0.4378431439399719,5.289999999999932
0.16356706619262695,0.5163946151733398,0.36609524488449097,5.299999999999931
0.30790334939956665,0.7368097305297852,0.31086570024490356,5.309999999999931
0.45799940824508667,0.9547700881958008,0.31265297532081604,5.319999999999931
0.5757590532302856,1.2013492584228516,0.33054184913635254,5.329999999999931
0.5337387919425964,1.3976736068725586,0.16529907286167145,5.339999999999931
0.6904270648956299,1.5868616104125977,0.04362861067056656,5.34999999999993
0.7512631416320801,1.6923913955688477,0.12292598187923431,5.35999999999993
0.7589307427406311,1.745457649230957,0.18523642420768738,5.36999999999993
0.761177659034729,1.7365407943725586,0.2522010803222656,5.37999999999993
0.7676061987876892,1.7876338958740234,0.29287993907928467,5.3899999999999295
0.6179688572883606,1.7910442352294922,0.3219447135925293,5.399999999999929
0.4201318621635437,1.6607284545898438,0.45204535126686096,5.409999999999929
0.2435472011566162,1.5929183959960938,0.6141423583030701,5.419999999999929
0.05913513898849487,1.4225654602050781,0.7942780256271362,5.429999999999929
0.010409116744995117,1.3315191268920898,1.0405821800231934,5.4399999999999284
0.07574969530105591,1.3100996017456055,1.2692612409591675,5.449999999999928
0.3003874123096466,1.243433952331543,1.4706823825836182,5.459999999999928
0.5142801403999329,1.239161491394043,1.5921289920806885,5.469999999999928
0.8319326639175415,1.4311017990112305,1.6097602844238281,5.479999999999928
1.1404829025268555,1.6038007736206055,1.5785837173461914,5.489999999999927
1.6551979780197144,1.7716121673583984,1.5488495826721191,5.499999999999927
1.9836210012435913,1.994297981262207,1.5228757858276367,5.509999999999927
2.2861270904541016,2.058964729309082,1.4981975555419922,5.519999999999927
2.572545289993286,2.1140241622924805,1.4674450159072876,5.5299999999999265
2.8123974800109863,2.006406784057617,1.5713567733764648,5.539999999999926
2.967803478240967,1.8797273635864258,1.742214322090149,5.549999999999926
3.0845649242401123,1.7937259674072266,1.888313889503479,5.559999999999926
3.1509037017822266,1.678955078125,2.0065762996673584,5.569999999999926
3.195777416229248,1.6741132736206055,2.0777428150177,5.5799999999999255
3.2835309505462646,1.802964210510254,2.0297904014587402,5.589999999999925
3.490229606628418,1.9601306915283203,1.8722115755081177,5.599999999999925
3.6574301719665527,1.992548942565918,1.5713541507720947,5.609999999999925
3.696288824081421,2.113157272338867,1.0523574352264404,5.619999999999925
3.8073792457580566,2.154447555541992,0.5032712817192078,5.629999999999924
3.7984657287597656,2.2002344131469727,0.16494625806808472,5.639999999999924
3.7361345291137695,2.351016044616699,-0.02509695291519165,5.649999999999924
3.6631808280944824,2.59481143951416,-0.15266552567481995,5.659999999999924
3.455374002456665,2.5968780517578125,-0.20017501711845398,5.6699999999999235
3.1080210208892822,2.0898218154907227,-0.45924586057662964,5.679999999999923
2.7482149600982666,1.4593477249145508,-0.7912384271621704,5.689999999999923
2.337946653366089,0.7750663757324219,-1.1727675199508667,5.699999999999923
1.875057578086853,0.16631698608398438,-1.4461617469787598,5.709999999999923
1.5227018594741821,-0.3237905502319336,-1.6117045879364014,5.7199999999999225
1.2000830173492432,-0.7478265762329102,-1.7891781330108643,5.729999999999922
0.8936035633087158,-0.8857221603393555,-1.7770150899887085,5.739999999999922
0.5159177184104919,-1.0006847381591797,-1.9436064958572388,5.749999999999922
0.25017231702804565,-0.9419527053833008,-1.9584764242172241,5.759999999999922
-0.17991717159748077,-0.9463396072387695,-1.8354507684707642,5.769999999999921
-0.5578826665878296,-0.9060745239257812,-1.6335153579711914,5.779999999999921
-0.9928187727928162,-0.9001226425170898,-1.2387573719024658,5.789999999999921
-1.3838779926300049,-0.8161182403564453,-0.874427318572998,5.799999999999921
-1.6597986221313477,-0.8169794082641602,-0.468309223651886,5.809999999999921
-1.8106008768081665,-0.6207447052001953,-0.09672367572784424,5.81999999999992
-1.7672442197799683,-0.263885498046875,0.14945852756500244,5.82999999999992
-1.580479621887207,0.24818801879882812,0.3034782409667969,5.83999999999992
-1.3575325012207031,0.7594537734985352,0.3475393056869507,5.84999999999992
-1.046407699584961,1.312821388244629,0.18760478496551514,5.8599999999999195
-0.9697391986846924,1.8461904525756836,-0.05389988422393799,5.869999999999919
-1.063447117805481,2.335942268371582,-0.262439489364624,5.879999999999919
-1.214843988418579,2.7777557373046875,-0.38378989696502686,5.889999999999919
-1.6915371417999268,3.1506567001342773,-0.4283182621002197,5.899999999999919
-2.3909151554107666,3.4767704010009766,-0.3843955993652344,5.909999999999918
-3.259249210357666,3.715829849243164,-0.2125612497329712,5.919999999999918
-3.83428955078125,3.8610286712646484,0.005287647247314453,5.929999999999918
-3.919574022293091,3.7810983657836914,0.20958328247070312,5.939999999999918
-3.527315616607666,3.631673812866211,0.3561069965362549,5.949999999999918
-2.7497665882110596,3.312185287475586,0.3917660713195801,5.959999999999917
-2.0341200828552246,2.9660425186157227,0.2085094451904297,5.969999999999917
-1.5433170795440674,2.3562536239624023,-0.1319899559020996,5.979999999999917
-1.4262638092041016,1.946772575378418,-0.7121343612670898,5.989999999999917
-0.85953688621521,1.5720911026000977,-1.4136691093444824,5.9999999999999165
-0.4226078987121582,1.234527587890625,-2.0501608848571777,6.009999999999916
-0.2061157524585724,0.8267202377319336,-2.517622470855713,6.019999999999916
-0.13004741072654724,0.19349002838134766,-2.6375253200531006,6.029999999999916
-0.16036903858184814,-0.5383768081665039,-2.4790382385253906,6.039999999999916
-0.35661089420318604,-1.2854928970336914,-2.1035690307617188,6.0499999999999154
-0.3976883292198181,-1.8928327560424805,-1.7017269134521484,6.059999999999915
-0.2974378168582916,-2.6049904823303223,-1.2150394916534424,6.069999999999915
-0.368996798992157,-3.199761390686035,-1.0783488750457764,6.079999999999915
-0.4211452007293701,-3.708606243133545,-1.0805437564849854,6.089999999999915
-0.4775082468986511,-3.7010064125061035,-1.36100172996521,6.099999999999914
-0.5470606088638306,-3.6221823692321777,-1.5996360778808594,6.109999999999914
-0.29449689388275146,-3.7545485496520996,-1.8847987651824951,6.119999999999914
-0.4083053767681122,-3.9260783195495605,-2.0890517234802246,6.129999999999914
-0.3415084779262543,-4.0988945960998535,-2.142519950866699,6.1399999999999135
-0.2412618100643158,-4.163313388824463,-2.2483179569244385,6.149999999999913
-0.061876535415649414,-4.284499645233154,-2.42570424079895,6.159999999999913
0.05251920223236084,-4.440828800201416,-2.598345994949341,6.169999999999913
0.14244961738586426,-4.735054969787598,-2.579967975616455,6.179999999999913
0.15822681784629822,-5.047510147094727,-2.4976139068603516,6.1899999999999125
0.20087715983390808,-5.229944229125977,-2.3371500968933105,6.199999999999912
0.08673761785030365,-5.366201400756836,-2.161013603210449,6.209999999999912
-0.1914374679327011,-5.370224952697754,-2.0458829402923584,6.219999999999912
-0.29261016845703125,-5.058065414428711,-1.943889856338501,6.229999999999912
-0.23204562067985535,-4.521278381347656,-1.7731809616088867,6.239999999999911
-0.2995133399963379,-4.07127046585083,-1.7413873672485352,6.249999999999911
-0.4567926228046417,-3.854135036468506,-1.68513822555542,6.259999999999911
-0.5224252343177795,-3.759810447692871,-1.682988166809082,6.269999999999911
-0.5856682658195496,-3.819243907928467,-1.6463665962219238,6.2799999999999105
-0.7979539632797241,-4.075230121612549,-1.6064903736114502,6.28999999999991
-1.004493236541748,-4.319602966308594,-1.3694469928741455,6.29999999999991
-1.0699694156646729,-4.418616771697998,-1.1336097717285156,6.30999999999991
-1.1603631973266602,-4.489626884460449,-0.949091911315918,6.31999999999991
-1.2111918926239014,-4.525451183319092,-0.7416834831237793,6.3299999999999095
-1.2797679901123047,-4.452018737792969,-0.5399470329284668,6.339999999999909
-1.363455057144165,-4.36985969543457,-0.3078908920288086,6.349999999999909
-1.4285489320755005,-4.21189022064209,-0.024085044860839844,6.359999999999909
-1.4199587106704712,-4.03544807434082,0.34247446060180664,6.369999999999909
-1.320840835571289,-3.8451199531555176,0.6863365173339844,6.379999999999908
-1.2148921489715576,-3.575908660888672,0.9304013252258301,6.389999999999908
-1.0997498035430908,-3.1722970008850098,1.1479377746582031,6.399999999999908
-1.0809824466705322,-2.619418144226074,1.304326057434082,6.409999999999908
-1.0889465808868408,-1.9719219207763672,1.6569430828094482,6.419999999999908
-1.0193802118301392,-1.3058156967163086,2.077502489089966,6.429999999999907
-0.7171050906181335,-0.7299985885620117,2.1925976276397705,6.439999999999907
-0.2838289141654968,-0.0635995864868164,2.0826025009155273,6.449999999999907
0.23562216758728027,0.768925666809082,1.8104820251464844,6.459999999999907
0.9663389921188354,1.7352781295776367,1.6711359024047852,6.4699999999999065
1.8322436809539795,3.0851821899414062,1.6724765300750732,6.479999999999906
2.468857526779175,4.893135070800781,2.053105354309082,6.489999999999906
2.4949951171875,7.1300811767578125,2.931614637374878,6.499999999999906
1.629075050354004,9.194805145263672,4.452751159667969,6.509999999999906
1.2114486694335938,9.814270973205566,6.502229690551758,6.519999999999905
1.5283827781677246,9.120010375976562,8.60602855682373,6.529999999999905
0.9779021739959717,8.082420349121094,9.281983375549316,6.539999999999905
0.2860833704471588,6.7644548416137695,8.907306671142578,6.549999999999905
-0.08308464288711548,4.547167778015137,7.995479583740234,6.559999999999905
-0.06706783175468445,1.563492774963379,6.348328590393066,6.569999999999904
-0.021593481302261353,-1.604759693145752,3.113018035888672,6.579999999999904
-0.7131752371788025,-2.1772122383117676,-0.08200621604919434,6.589999999999904
-1.6333552598953247,0.742304801940918,-2.5162758827209473,6.599999999999904
-2.6129109859466553,4.765637397766113,-3.5814414024353027,6.6099999999999035
-3.80332088470459,8.771919250488281,-4.171866416931152,6.619999999999903
-3.941077470779419,12.918195724487305,-5.146053314208984,6.629999999999903
-4.004977703094482,16.302288055419922,-6.034459114074707,6.639999999999903
-3.8354005813598633,17.625701904296875,-5.978403091430664,6.649999999999903
-3.905303716659546,15.063132286071777,-4.459277629852295,6.659999999999902
-5.602645397186279,10.0828218460083,-3.2351465225219727,6.669999999999902
-7.6380462646484375,3.990138053894043,-3.067203998565674,6.679999999999902
-8.076963424682617,-0.35489940643310547,-2.988664150238037,6.689999999999902
-8.150750160217285,-1.7957229614257812,-3.1874003410339355,6.699999999999902
-7.951805114746094,-0.9860696792602539,-2.8542771339416504,6.709999999999901
-7.095273017883301,0.7079620361328125,-1.13824462890625,6.719999999999901
-5.521058559417725,1.5747747421264648,-0.20235252380371094,6.729999999999901
-3.8043031692504883,1.6671361923217773,0.07733631134033203,6.739999999999901
-2.5505881309509277,1.3528919219970703,-0.33753013610839844,6.7499999999999005
-1.7397866249084473,0.9023590087890625,-1.0097637176513672,6.7599999999999
-0.9850199222564697,0.3549785614013672,-1.8599398136138916,6.7699999999999
-0.38971519470214844,-0.15520286560058594,-2.7402453422546387,6.7799999999999
-0.31090179085731506,-0.43590736389160156,-3.553231954574585,6.7899999999999
-0.24778956174850464,-0.517033576965332,-4.085336208343506,6.7999999999998995
0.036826252937316895,-0.5146493911743164,-4.2135009765625,6.809999999999899
0.5096694827079773,-0.3612327575683594,-3.8438503742218018,6.819999999999899
1.0806740522384644,-0.2051544189453125,-3.232262134552002,6.829999999999899
1.688988447189331,0.04398155212402344,-2.4728598594665527,6.839999999999899
2.2389943599700928,0.16538429260253906,-1.833787202835083,6.849999999999898
2.5824921131134033,0.16340255737304688,-1.4419002532958984,6.859999999999898
2.8252739906311035,0.02817058563232422,-1.3380916118621826,6.869999999999898
3.1386868953704834,-0.2955780029296875,-1.4581129550933838,6.879999999999898
3.3038716316223145,-0.6332855224609375,-1.7578061819076538,6.8899999999998975
3.1888961791992188,-0.8914566040039062,-2.239718437194824,6.899999999999897
3.0853307247161865,-0.9116859436035156,-2.7546987533569336,6.909999999999897
2.7442243099212646,-0.5669088363647461,-3.1084532737731934,6.919999999999897
2.306553840637207,-0.2563037872314453,-3.298349142074585,6.929999999999897
1.8142318725585938,-0.02254962921142578,-3.1918132305145264,6.9399999999998965
1.494720458984375,-0.03281211853027344,-2.8493564128875732,6.949999999999896
1.49392831325531,-0.22474002838134766,-2.4407050609588623,6.959999999999896
1.4287341833114624,-0.629277229309082,-2.1257078647613525,6.969999999999896
1.3467750549316406,-1.09295654296875,-2.04323148727417,6.979999999999896
1.0928053855895996,-1.4169330596923828,-2.0242416858673096,6.989999999999895
0.9234378337860107,-1.6966047286987305,-2.221106767654419,6.999999999999895
0.6960302591323853,-2.0297555923461914,-2.3437037467956543,7.009999999999895
0.384871244430542,-2.301375389099121,-2.333752155303955,7.019999999999895
0.0069065093994140625,-2.559433937072754,-2.1487061977386475,7.0299999999998946
-0.4904947876930237,-2.780261993408203,-1.874406099319458,7.039999999999894
-1.0218921899795532,-2.9616284370422363,-1.675431728363037,7.049999999999894
-1.4396049976348877,-3.024719715118408,-1.539520263671875,7.059999999999894
-1.794389247894287,-2.9099206924438477,-1.471388816833496,7.069999999999894
-2.0295968055725098,-2.7274322509765625,-1.4326319694519043,7.0799999999998935
-2.0929768085479736,-2.522883892059326,-1.427565574645996,7.089999999999893
-2.0252790451049805,-2.327453136444092,-1.4633264541625977,7.099999999999893
-1.9222018718719482,-2.1459760665893555,-1.3126585483551025,7.109999999999893
-1.8679554462432861,-1.968945026397705,-1.0661098957061768,7.119999999999893
-1.7677366733551025,-1.7008204460144043,-0.8182422518730164,7.129999999999892
-1.5128412246704102,-1.5066947937011719,-0.5849435329437256,7.139999999999892
-1.1907941102981567,-1.2788400650024414,-0.5423797369003296,7.149999999999892
-0.8027693033218384,-1.0841598510742188,-0.4341064691543579,7.159999999999892
-0.28874385356903076,-1.1592817306518555,-0.4640740156173706,7.169999999999892
0.04308271408081055,-1.1499338150024414,-0.5874170064926147,7.179999999999891
0.30584394931793213,-1.2092609405517578,-0.512803852558136,7.189999999999891
0.4714527130126953,-1.212937355041504,-0.38382023572921753,7.199999999999891
0.6868351697921753,-1.1898736953735352,-0.3939942717552185,7.209999999999891
0.7274221181869507,-1.2812738418579102,-0.4565582275390625,7.2199999999998905
1.0266118049621582,-1.443995475769043,-0.5523210763931274,7.22999999999989
1.2451330423355103,-1.3670921325683594,-0.9331549406051636,7.23999999999989
1.2303385734558105,-1.0891704559326172,-1.2495348453521729,7.24999999999989
1.133377194404602,-0.7325248718261719,-1.4313743114471436,7.25999999999989
1.117488980293274,-0.4288454055786133,-1.4546011686325073,7.269999999999889
1.1975269317626953,-0.22112178802490234,-1.3725733757019043,7.279999999999889
0.9999098777770996,-0.1688528060913086,-1.3400468826293945,7.289999999999889
0.8451471328735352,-0.061328887939453125,-1.1767637729644775,7.299999999999889
0.7000610828399658,-0.0038671493530273438,-0.7809940576553345,7.309999999999889
0.4472630023956299,-0.05861186981201172,-0.21734696626663208,7.319999999999888
0.11011087894439697,-0.22303009033203125,0.34479081630706787,7.329999999999888
-0.14446938037872314,-0.37502574920654297,0.6714044809341431,7.339999999999888
-0.19269925355911255,-0.4787406921386719,0.8705836534500122,7.349999999999888
-0.14984536170959473,-0.5772905349731445,1.024158239364624,7.3599999999998875
-0.13588756322860718,-0.6180830001831055,1.1445101499557495,7.369999999999887
-0.11738818883895874,-0.5629615783691406,1.284865379333496,7.379999999999887
-0.02510511875152588,-0.4718446731567383,1.4603022336959839,7.389999999999887
0.0595209002494812,-0.3758811950683594,1.4993258714675903,7.399999999999887
0.22028040885925293,-0.32291698455810547,1.4625142812728882,7.4099999999998865
0.39485615491867065,-0.3822364807128906,1.2880237102508545,7.419999999999886
0.6842032074928284,-0.4843883514404297,0.9732481837272644,7.429999999999886
0.7684000134468079,-0.512202262878418,0.6332725286483765,7.439999999999886
0.7458236813545227,-0.5757532119750977,0.2868777811527252,7.449999999999886
0.7267817854881287,-0.4454507827758789,0.06289505958557129,7.459999999999885
0.7951287627220154,-0.18610191345214844,0.020778972655534744,7.469999999999885
0.8407851457595825,0.13518619537353516,0.011732906103134155,7.479999999999885
0.9856827855110168,0.5446376800537109,-0.05804573744535446,7.489999999999885
1.1052899360656738,0.9249820709228516,-0.07162743806838989,7.4999999999998845
1.2113373279571533,1.1638832092285156,-0.017325595021247864,7.509999999999884
1.2368369102478027,1.347590446472168,0.01614406704902649,7.519999999999884
1.27754545211792,1.3876991271972656,0.067192941904068,7.529999999999884
1.1610528230667114,1.2174491882324219,0.0785512924194336,7.539999999999884
1.052211046218872,0.9781932830810547,0.13165341317653656,7.5499999999998835
1.0012383460998535,0.7656536102294922,0.2527313232421875,7.559999999999883
0.9095235466957092,0.6085119247436523,0.355714350938797,7.569999999999883
1.0375527143478394,0.37998485565185547,0.6037698984146118,7.579999999999883
1.1216094493865967,0.13755321502685547,0.8508622646331787,7.589999999999883
1.273389220237732,0.012773513793945312,1.0160671472549438,7.599999999999882
1.619210958480835,0.12027454376220703,1.1355767250061035,7.609999999999882
1.9768211841583252,0.3856496810913086,1.2768628597259521,7.619999999999882
2.2481231689453125,0.5743694305419922,1.4616155624389648,7.629999999999882
2.5147902965545654,0.8132438659667969,1.5679796934127808,7.6399999999998816
2.803701162338257,0.9706697463989258,1.736915946006775,7.649999999999881
2.9909396171569824,1.1112689971923828,1.8100366592407227,7.659999999999881
3.031252861022949,1.1608924865722656,1.8345738649368286,7.669999999999881
3.058774471282959,1.1148395538330078,1.8795360326766968,7.679999999999881
2.9512178897857666,1.0234251022338867,1.9183484315872192,7.6899999999998805
2.7660398483276367,1.044485092163086,1.9028651714324951,7.69999999999988
2.6465401649475098,1.1467828750610352,1.9932994842529297,7.70999999999988
2.6119260787963867,1.3182191848754883,2.150836229324341,7.71999999999988
2.700500011444092,1.5084352493286133,2.207319736480713,7.72999999999988
2.780322790145874,1.7460298538208008,2.0423200130462646,7.739999999999879
2.910360336303711,2.1025896072387695,1.6357146501541138,7.749999999999879
2.94850754737854,2.632901191711426,1.115925669670105,7.759999999999879
2.9872007369995117,3.386948585510254,0.7768179774284363,7.769999999999879
3.073824405670166,4.158879280090332,0.6928524971008301,7.779999999999879
3.232233762741089,4.771812438964844,0.7784839272499084,7.789999999999878
3.2830426692962646,5.163850784301758,0.6728093028068542,7.799999999999878
3.365530252456665,5.364006996154785,0.47162267565727234,7.809999999999878
3.4614145755767822,4.839330673217773,0.2461070716381073,7.819999999999878
3.480405330657959,4.195697784423828,-0.007254242897033691,7.8299999999998775
3.5407724380493164,3.550464630126953,-0.2391878068447113,7.839999999999877
3.358276844024658,2.798508644104004,-0.5871618986129761,7.849999999999877
3.174858570098877,2.1529130935668945,-0.8724439144134521,7.859999999999877
2.876305103302002,1.5467643737792969,-1.2273566722869873,7.869999999999877
2.477734327316284,1.1954383850097656,-1.4912060499191284,7.879999999999876
2.085550308227539,0.9051523208618164,-1.7542692422866821,7.889999999999876
1.562211036682129,0.4966907501220703,-1.90790593624115,7.899999999999876
0.8873512148857117,0.37685108184814453,-2.0440053939819336,7.909999999999876
0.10053765773773193,0.42103004455566406,-2.1012699604034424,7.919999999999876
-0.6681077480316162,0.37082481384277344,-2.0303735733032227,7.929999999999875
-1.5327503681182861,0.38418102264404297,-1.969026803970337,7.939999999999875
-2.3494646549224854,0.4083681106567383,-1.8415192365646362,7.949999999999875
-3.0087673664093018,0.3188772201538086,-1.4684090614318848,7.959999999999875
-3.4550909996032715,0.1753826141357422,-1.0527902841567993,7.9699999999998745
-3.6236884593963623,0.11149215698242188,-0.7616664171218872,7.979999999999874
-3.5001912117004395,0.2009744644165039,-0.641856849193573,7.989999999999874
-3.1940200328826904,0.44121360778808594,-0.6849184632301331,7.999999999999874
