AccX,AccY,AccZ,SampleRate
-2.321516275405884,0.3915901184082031,0.68602454662323,0.01
-2.38409161567688,0.5516605377197266,0.6827785968780518,0.02
-2.434173583984375,0.7955522537231445,0.322568416595459,0.03
-2.221205949783325,1.093709945678711,-0.21240007877349854,0.04
-2.0154199600219727,1.3475103378295898,-0.7013148069381714,0.05
-1.8353766202926636,1.561574935913086,-1.1785880327224731,0.060000000000000005
-1.7119956016540527,1.6164417266845703,-1.4976412057876587,0.07
-1.7173588275909424,1.5173835754394531,-1.6466162204742432,0.08
-1.7150092124938965,1.4013652801513672,-1.5998374223709106,0.09
-1.7404577732086182,1.25238037109375,-1.3586771488189697,0.09999999999999999
-1.8408644199371338,1.1668701171875,-0.9267259836196899,0.10999999999999999
-2.0157630443573,1.1549901962280273,-0.4645843505859375,0.11999999999999998
-2.2217085361480713,1.2361869812011719,0.021750211715698242,0.12999999999999998
-2.2499473094940186,1.3626022338867188,0.33877134323120117,0.13999999999999999
-2.0618903636932373,1.4576072692871094,0.4706857204437256,0.15
-2.1343250274658203,1.4923028945922852,0.5149650573730469,0.16
-1.908034086227417,1.5283327102661133,0.2973902225494385,0.17
-1.7047936916351318,1.5221500396728516,-0.18449687957763672,0.18000000000000002
-1.503726601600647,1.4591379165649414,-0.7929542064666748,0.19000000000000003
-1.2788537740707397,1.2602767944335938,-1.359973430633545,0.20000000000000004
-1.071378469467163,0.8847074508666992,-1.7243341207504272,0.21000000000000005
-0.8110138177871704,0.42823123931884766,-2.1352038383483887,0.22000000000000006
-0.7408244609832764,-0.17815208435058594,-2.366448163986206,0.23000000000000007
-0.8600409626960754,-0.5823659896850586,-2.404752492904663,0.24000000000000007
-0.846373975276947,-0.6626262664794922,-2.252836227416992,0.25000000000000006
-0.5270485877990723,-0.8601226806640625,-1.889816403388977,0.26000000000000006
-0.4369204640388489,-1.2542009353637695,-1.7069780826568604,0.2700000000000001
-0.5098961591720581,-1.7299046516418457,-1.7642236948013306,0.2800000000000001
-0.6086511611938477,-2.1388731002807617,-1.7938895225524902,0.2900000000000001
-0.6921189427375793,-2.507758140563965,-1.7215428352355957,0.3000000000000001
-0.7598960399627686,-2.7913994789123535,-1.484950304031372,0.3100000000000001
-0.9195720553398132,-3.0617780685424805,-1.2802867889404297,0.3200000000000001
-1.1810426712036133,-3.364257335662842,-1.198669195175171,0.3300000000000001
-1.2882637977600098,-3.6268081665039062,-1.259843111038208,0.34000000000000014
-1.1091376543045044,-3.7297511100769043,-1.3687305450439453,0.35000000000000014
-0.9493781328201294,-3.7951197624206543,-1.6095154285430908,0.36000000000000015
-0.8737432956695557,-3.7391982078552246,-1.6857521533966064,0.37000000000000016
-0.8606125116348267,-3.7631173133850098,-1.6142001152038574,0.38000000000000017
-0.8308908939361572,-3.7689552307128906,-1.4257948398590088,0.3900000000000002
-0.7939935326576233,-3.754603862762451,-1.328301191329956,0.4000000000000002
-0.7879928946495056,-3.6724801063537598,-1.28544020652771,0.4100000000000002
-0.745880126953125,-3.5564141273498535,-1.2440896034240723,0.4200000000000002
-0.7758312821388245,-3.4782776832580566,-1.3068106174468994,0.4300000000000002
-0.9311206340789795,-3.4930806159973145,-1.2317092418670654,0.4400000000000002
-0.977387011051178,-3.5816144943237305,-1.305849552154541,0.45000000000000023
-0.9866378307342529,-3.758218288421631,-1.2634704113006592,0.46000000000000024
-1.2321032285690308,-3.8242268562316895,-1.2315073013305664,0.47000000000000025
-1.1054999828338623,-4.248421669006348,-1.2293140888214111,0.48000000000000026
-1.0875380039215088,-4.358607769012451,-1.1586191654205322,0.49000000000000027
-1.2288005352020264,-4.351250648498535,-1.0002260208129883,0.5000000000000002
-1.1777788400650024,-4.491884708404541,-0.8426971435546875,0.5100000000000002
-1.11897611618042,-4.636836051940918,-0.7170841693878174,0.5200000000000002
-1.0982720851898193,-4.55185604095459,-0.5799546241760254,0.5300000000000002
-0.9366801381111145,-4.3975114822387695,-0.5409717559814453,0.5400000000000003
-0.850238561630249,-4.214459419250488,-0.4396822452545166,0.5500000000000003
-0.714964747428894,-4.193938732147217,-0.3000016212463379,0.5600000000000003
-0.631120502948761,-4.163536071777344,-0.13874554634094238,0.5700000000000003
-0.4838408827781677,-4.1970953941345215,0.055538177490234375,0.5800000000000003
-0.428918719291687,-4.193792343139648,0.22020483016967773,0.5900000000000003
-0.26535099744796753,-4.126945495605469,0.4405786991119385,0.6000000000000003
-0.02406919002532959,-4.005826473236084,0.7110133171081543,0.6100000000000003
0.25959622859954834,-3.856616973876953,0.997452974319458,0.6200000000000003
0.3296304941177368,-3.6670069694519043,1.2775778770446777,0.6300000000000003
0.44535624980926514,-3.422372817993164,1.5073535442352295,0.6400000000000003
0.8187910318374634,-2.983971118927002,1.824641227722168,0.6500000000000004
1.0033472776412964,-2.4353771209716797,2.0081145763397217,0.6600000000000004
1.1099917888641357,-1.7189836502075195,2.149934768676758,0.6700000000000004
1.2901335954666138,-0.8466033935546875,2.1627883911132812,0.6800000000000004
1.5816917419433594,0.17746734619140625,1.9039344787597656,0.6900000000000004
1.803533911705017,1.3301820755004883,1.333137035369873,0.7000000000000004
2.0800299644470215,2.5886030197143555,0.6373887062072754,0.7100000000000004
2.3966774940490723,3.845804214477539,0.27690815925598145,0.7200000000000004
2.5929198265075684,5.195296287536621,0.5336065292358398,0.7300000000000004
2.6359949111938477,6.497688293457031,1.377845287322998,0.7400000000000004
2.255535125732422,7.486305236816406,2.9130241870880127,0.7500000000000004
1.6874048709869385,7.713203430175781,4.390386581420898,0.7600000000000005
1.230135202407837,7.070871353149414,5.512825965881348,0.7700000000000005
0.7733660936355591,6.047074317932129,6.467012882232666,0.7800000000000005
0.3878366947174072,4.720005035400391,7.0356597900390625,0.7900000000000005
0.2628523111343384,3.079775810241699,6.752097129821777,0.8000000000000005
0.447965145111084,1.2890520095825195,5.751199245452881,0.8100000000000005
0.7841168642044067,-0.3596668243408203,4.114441871643066,0.8200000000000005
0.17207884788513184,-1.278998851776123,1.8140215873718262,0.8300000000000005
-0.6875361204147339,-0.4188823699951172,-0.6344537734985352,0.8400000000000005
-1.3972656726837158,1.8232202529907227,-2.826990842819214,0.8500000000000005
-1.599088191986084,4.386183738708496,-4.443445205688477,0.8600000000000005
-1.943913221359253,7.059615135192871,-5.541582107543945,0.8700000000000006
-3.506012439727783,10.077747344970703,-6.244317054748535,0.8800000000000006
-6.096214294433594,12.917787551879883,-6.4180684089660645,0.8900000000000006
-8.90358829498291,14.638091087341309,-5.696316719055176,0.9000000000000006
-10.592117309570312,14.59730339050293,-5.088133811950684,0.9100000000000006
-10.562541961669922,12.470834732055664,-4.320072174072266,0.9200000000000006
-8.578593254089355,8.559359550476074,-3.0457639694213867,0.9300000000000006
-7.941658020019531,5.795900344848633,-1.7663018703460693,0.9400000000000006
-7.373817443847656,5.5323638916015625,-0.28604602813720703,0.9500000000000006
-6.416844844818115,6.43196964263916,0.9089503288269043,0.9600000000000006
-5.053171157836914,6.858319282531738,2.020230770111084,0.9700000000000006
-3.3558542728424072,5.810459136962891,2.8919425010681152,0.9800000000000006
-1.6988811492919922,3.3863649368286133,1.9872615337371826,0.9900000000000007
-1.1748563051223755,0.7979297637939453,0.04530835151672363,1.0000000000000007
-1.1387509107589722,-1.273275375366211,-1.8874735832214355,1.0100000000000007
-1.2537871599197388,-2.6184701919555664,-3.747239589691162,1.0200000000000007
-1.4473166465759277,-3.1938719749450684,-5.1065144538879395,1.0300000000000007
-1.5867278575897217,-3.274576187133789,-5.5978684425354,1.0400000000000007
-1.4976226091384888,-3.2773709297180176,-5.499477863311768,1.0500000000000007
-1.2128925323486328,-3.3488306999206543,-5.300052165985107,1.0600000000000007
-0.6131908297538757,-3.2864279747009277,-4.922416687011719,1.0700000000000007
0.26319408416748047,-3.0260844230651855,-4.740261077880859,1.0800000000000007
1.0061709880828857,-2.706486701965332,-4.786715984344482,1.0900000000000007
1.5724607706069946,-2.3079543113708496,-4.990867614746094,1.1000000000000008
1.8256350755691528,-1.9780302047729492,-5.354184627532959,1.1100000000000008
1.9976410865783691,-1.5391483306884766,-5.743560791015625,1.1200000000000008
2.0600223541259766,-1.029555320739746,-5.8984456062316895,1.1300000000000008
2.121607542037964,-0.5139017105102539,-5.589707374572754,1.1400000000000008
1.9134314060211182,-0.00151824951171875,-4.988709449768066,1.1500000000000008
1.360016107559204,0.40760135650634766,-4.233671188354492,1.1600000000000008
0.5316087007522583,0.6182498931884766,-3.2734031677246094,1.1700000000000008
-0.37264299392700195,0.6452474594116211,-2.2574703693389893,1.1800000000000008
-0.8453860282897949,0.41971778869628906,-1.4574100971221924,1.1900000000000008
-0.9747850298881531,0.042613983154296875,-0.9415450096130371,1.2000000000000008
-0.9471204876899719,-0.4378232955932617,-0.6969897747039795,1.2100000000000009
-0.7649047374725342,-0.9806203842163086,-0.7583496570587158,1.2200000000000009
-0.7489637136459351,-1.425471305847168,-0.7839082479476929,1.2300000000000009
-0.6074717044830322,-1.6437029838562012,-0.5313327312469482,1.2400000000000009
-0.4087047576904297,-1.8725152015686035,-0.3105647563934326,1.2500000000000009
-0.3479433059692383,-2.033111572265625,-0.08197331428527832,1.260000000000001
-0.30691611766815186,-2.075456142425537,-0.002146124839782715,1.270000000000001
-0.267370343208313,-2.093039035797119,-0.06043100357055664,1.280000000000001
-0.09315478801727295,-2.10990047454834,-0.3303176164627075,1.290000000000001
-0.13356554508209229,-2.044867515563965,-0.717749834060669,1.300000000000001
-0.32598984241485596,-1.969876766204834,-1.2174816131591797,1.310000000000001
-0.44241297245025635,-1.8229951858520508,-1.5848413705825806,1.320000000000001
-0.5539948344230652,-1.7097220420837402,-1.824192762374878,1.330000000000001
-0.8041088581085205,-1.6300630569458008,-2.009563684463501,1.340000000000001
-1.041813850402832,-1.4381599426269531,-2.12406063079834,1.350000000000001
-1.2073582410812378,-1.1652555465698242,-2.217733144760132,1.360000000000001
-1.224456548690796,-0.8975162506103516,-2.1230628490448,1.370000000000001
-1.1725854873657227,-0.7448434829711914,-1.9287670850753784,1.380000000000001
-1.112086534500122,-0.5778799057006836,-1.7091290950775146,1.390000000000001
-0.8085730075836182,-0.41571903228759766,-1.4859570264816284,1.400000000000001
-0.7890652418136597,-0.3657522201538086,-1.4225094318389893,1.410000000000001
-0.47199898958206177,-0.35127925872802734,-1.229689598083496,1.420000000000001
-0.04817771911621094,-0.6472415924072266,-1.1380678415298462,1.430000000000001
-0.012699127197265625,-0.6171226501464844,-1.0383586883544922,1.440000000000001
0.08241021633148193,-0.5698328018188477,-0.8805833458900452,1.450000000000001
0.21372449398040771,-0.5269966125488281,-0.7414779663085938,1.460000000000001
0.22124528884887695,-0.5436649322509766,-0.7190718650817871,1.470000000000001
0.2608581781387329,-0.5385465621948242,-0.6791595220565796,1.480000000000001
0.43809616565704346,-0.5763216018676758,-0.7124369740486145,1.490000000000001
0.5807483196258545,-0.6091508865356445,-0.6944069862365723,1.500000000000001
0.6983097791671753,-0.7135858535766602,-0.6941338777542114,1.5100000000000011
0.6349809169769287,-0.9062414169311523,-0.6517004370689392,1.5200000000000011
0.9791437387466431,-1.065079689025879,-0.676896333694458,1.5300000000000011
1.1347541809082031,-1.2666807174682617,-0.5683541297912598,1.5400000000000011
1.137314796447754,-1.4966049194335938,-0.5098124742507935,1.5500000000000012
0.9361608028411865,-1.6686744689941406,-0.5869290232658386,1.5600000000000012
1.170026183128357,-1.8642725944519043,-0.6654124855995178,1.5700000000000012
1.1185256242752075,-1.9590253829956055,-0.7425763607025146,1.5800000000000012
0.9371793270111084,-1.9649815559387207,-0.7703341245651245,1.5900000000000012
0.8632746934890747,-1.8225231170654297,-0.7197149991989136,1.6000000000000012
0.9065786600112915,-1.5103302001953125,-0.6315727829933167,1.6100000000000012
0.9452722072601318,-1.0836105346679688,-0.4631485939025879,1.6200000000000012
0.8361717462539673,-0.5927057266235352,-0.3300105035305023,1.6300000000000012
0.7808209657669067,-0.05685615539550781,-0.17301049828529358,1.6400000000000012
0.6409906148910522,0.2393045425415039,-0.05761386454105377,1.6500000000000012
0.3618217706680298,0.38695240020751953,-0.04700389504432678,1.6600000000000013
0.13486838340759277,0.43885326385498047,0.10464857518672943,1.6700000000000013
-0.07561838626861572,0.43333911895751953,0.22014226019382477,1.6800000000000013
-0.27684450149536133,0.31786060333251953,0.31609204411506653,1.6900000000000013
-0.440341055393219,0.19298267364501953,0.32063978910446167,1.7000000000000013
-0.49956125020980835,-0.02973461151123047,0.3585892617702484,1.7100000000000013
-0.44772666692733765,-0.22342777252197266,0.36836856603622437,1.7200000000000013
-0.4024001359939575,-0.37854957580566406,0.3218461573123932,1.7300000000000013
-0.31851762533187866,-0.4664182662963867,0.2626648247241974,1.7400000000000013
-0.13637083768844604,-0.5684099197387695,0.2560681402683258,1.7500000000000013
-0.11005055904388428,-0.6772804260253906,0.1323913335800171,1.7600000000000013
0.36631977558135986,-0.5898399353027344,0.1123291477560997,1.7700000000000014
0.7212232947349548,-0.46895885467529297,0.17700909078121185,1.7800000000000014
0.9161521196365356,-0.3122396469116211,0.26871052384376526,1.7900000000000014
0.9582356810569763,-0.007319450378417969,0.3775685429573059,1.8000000000000014
0.9957541227340698,0.24237442016601562,0.45754557847976685,1.8100000000000014
1.0431363582611084,0.4799318313598633,0.5751627683639526,1.8200000000000014
1.0956447124481201,0.7388219833374023,0.6845481395721436,1.8300000000000014
1.01686429977417,0.8874931335449219,0.8618224859237671,1.8400000000000014
0.9480733275413513,1.012141227722168,1.0516579151153564,1.8500000000000014
1.0971721410751343,1.194075584411621,1.083907961845398,1.8600000000000014
0.9899619817733765,1.2276086807250977,1.171643614768982,1.8700000000000014
1.0383212566375732,1.1966114044189453,1.3320963382720947,1.8800000000000014
1.0842335224151611,1.2780895233154297,1.3427103757858276,1.8900000000000015
1.1230239868164062,1.4121150970458984,1.4643651247024536,1.9000000000000015
1.20022451877594,1.5316553115844727,1.639477014541626,1.9100000000000015
1.397205114364624,1.6749563217163086,1.7051029205322266,1.9200000000000015
1.591504693031311,1.7989301681518555,1.7062835693359375,1.9300000000000015
1.9287135601043701,1.8151063919067383,1.6522001028060913,1.9400000000000015
2.188143014907837,1.845536231994629,1.4848437309265137,1.9500000000000015
2.567756175994873,1.761073112487793,1.3283202648162842,1.9600000000000015
2.9140851497650146,1.6981611251831055,1.3143861293792725,1.9700000000000015
3.2054643630981445,1.711777687072754,1.2733395099639893,1.9800000000000015
3.4990978240966797,1.7492408752441406,1.2939670085906982,1.9900000000000015
3.7325961589813232,1.8201093673706055,1.3216111660003662,2.0000000000000013
3.800640821456909,1.8717498779296875,1.377984881401062,2.010000000000001
3.7536780834198,1.8922243118286133,1.417557954788208,2.020000000000001
3.744976282119751,1.8122425079345703,1.5123796463012695,2.0300000000000007
3.650230884552002,1.7060718536376953,1.6052963733673096,2.0400000000000005
3.606024742126465,1.5928707122802734,1.6316531896591187,2.0500000000000003
3.612647771835327,1.455887794494629,1.600753664970398,2.06
3.5144126415252686,1.4911994934082031,1.2773737907409668,2.07
3.6173434257507324,1.5312261581420898,1.1110200881958008,2.0799999999999996
3.459082841873169,1.843801498413086,0.8475797176361084,2.0899999999999994
3.1557490825653076,2.153689384460449,0.6016764044761658,2.099999999999999
3.200545072555542,2.415530204772949,0.7089270353317261,2.109999999999999
3.2734856605529785,2.6891908645629883,0.6143642663955688,2.1199999999999988
3.4853711128234863,2.5896835327148438,0.3006160259246826,2.1299999999999986
3.4580748081207275,2.430776596069336,-0.010175853967666626,2.1399999999999983
3.6039857864379883,1.9854354858398438,-0.2890343964099884,2.149999999999998
3.7176761627197266,1.6031742095947266,-0.9071842432022095,2.159999999999998
3.557279109954834,1.4537925720214844,-1.5822649002075195,2.1699999999999977
3.2592616081237793,1.085195541381836,-2.171220541000366,2.1799999999999975
2.639922618865967,0.5862369537353516,-2.5955817699432373,2.1899999999999973
1.825028657913208,0.11257266998291016,-2.7596516609191895,2.199999999999997
0.9121813178062439,-0.2568788528442383,-2.9010982513427734,2.209999999999997
-0.21411368250846863,-0.5078105926513672,-2.875154495239258,2.2199999999999966
-1.2914624214172363,-0.6665353775024414,-2.4750890731811523,2.2299999999999964
-2.232408046722412,-0.6995506286621094,-1.773069143295288,2.239999999999996
-3.153553009033203,-0.5352191925048828,-0.9345520734786987,2.249999999999996
-3.8972067832946777,-0.3603372573852539,-0.25052571296691895,2.259999999999996
-4.558013439178467,-0.1223602294921875,-0.05529189109802246,2.2699999999999956
-4.910762310028076,0.18572044372558594,-0.3197958469390869,2.2799999999999954
-5.055922031402588,0.5420694351196289,-0.5125249624252319,2.289999999999995
-4.952976703643799,0.9200725555419922,-0.6628501415252686,2.299999999999995
-4.577130317687988,1.3912668228149414,-0.6893396377563477,2.3099999999999947
-3.9073638916015625,1.8647098541259766,-0.6391196846961975,2.3199999999999945
-3.2002220153808594,2.304713249206543,-0.5453250408172607,2.3299999999999943
-2.6581485271453857,2.7832765579223633,-0.35914015769958496,2.339999999999994
-2.230154037475586,3.1833906173706055,-0.18431496620178223,2.349999999999994
-1.7874805927276611,3.498027801513672,-0.025788545608520508,2.3599999999999937
-1.5352880954742432,3.688990592956543,0.12133502960205078,2.3699999999999934
-1.244795560836792,3.816082000732422,0.2908337116241455,2.3799999999999932
-1.139248013496399,3.7573471069335938,0.39417314529418945,2.389999999999993
-1.1834406852722168,3.5967397689819336,0.4475975036621094,2.399999999999993
-1.3878413438796997,3.5065526962280273,0.4388387203216553,2.4099999999999926
-1.457064151763916,3.4053993225097656,0.3007349967956543,2.4199999999999924
-1.8334510326385498,3.358001708984375,-0.0412900447845459,2.429999999999992
-2.102633476257324,3.185124397277832,-0.3867661952972412,2.439999999999992
-2.051034688949585,3.0019216537475586,-0.6744394302368164,2.4499999999999917
-1.82615327835083,2.6888370513916016,-0.9307277202606201,2.4599999999999915
-1.7225749492645264,2.303295135498047,-1.0975693464279175,2.4699999999999913
-1.5239455699920654,1.8377704620361328,-1.3644086122512817,2.479999999999991
-1.19862961769104,1.2800493240356445,-1.7654476165771484,2.489999999999991
-0.7434245944023132,0.7447776794433594,-2.1346077919006348,2.4999999999999907
-0.28606435656547546,0.2605428695678711,-2.36411714553833,2.5099999999999905
0.0028671622276306152,-0.1705036163330078,-2.379525661468506,2.5199999999999902
0.17300570011138916,-0.5655679702758789,-2.2421743869781494,2.52999999999999
0.18147659301757812,-0.9679269790649414,-2.10023832321167,2.53999999999999
-0.06642138957977295,-1.501988410949707,-2.083050489425659,2.5499999999999896
-0.263286828994751,-2.0312108993530273,-2.1218066215515137,2.5599999999999894
-0.5709572434425354,-2.464566230773926,-2.1885690689086914,2.569999999999989
-0.816498875617981,-2.8403029441833496,-2.150019884109497,2.579999999999989
-1.2031512260437012,-3.2540760040283203,-1.9372360706329346,2.5899999999999888
-1.3855774402618408,-3.5244903564453125,-1.6239714622497559,2.5999999999999885
-1.465493083000183,-3.774144172668457,-1.4153664112091064,2.6099999999999883
-1.4997882843017578,-4.091806888580322,-1.351665735244751,2.619999999999988
-1.6827967166900635,-4.3052239418029785,-1.3705856800079346,2.629999999999988
-1.6893608570098877,-4.555670261383057,-1.5102405548095703,2.6399999999999877
-1.6536762714385986,-4.780957221984863,-1.596017837524414,2.6499999999999875
-1.5421537160873413,-4.957133769989014,-1.6761510372161865,2.6599999999999873
-1.4361529350280762,-5.081859588623047,-1.7245054244995117,2.669999999999987
-1.2328102588653564,-5.104928493499756,-1.83939528465271,2.679999999999987
-1.0511802434921265,-5.083935260772705,-1.836719274520874,2.6899999999999866
-1.0300676822662354,-4.98320198059082,-1.7570321559906006,2.6999999999999864
-1.1192635297775269,-4.891307830810547,-1.633915901184082,2.709999999999986
-1.1677749156951904,-4.772373199462891,-1.5918941497802734,2.719999999999986
-1.2785271406173706,-4.557178020477295,-1.3916094303131104,2.7299999999999858
-1.398929476737976,-4.332030773162842,-1.1597907543182373,2.7399999999999856
-1.5435035228729248,-4.130451679229736,-1.0589897632598877,2.7499999999999853
-1.6956160068511963,-3.9572181701660156,-1.01246976852417,2.759999999999985
-1.9899654388427734,-3.8506340980529785,-0.9097998142242432,2.769999999999985
-2.003077268600464,-3.9087681770324707,-0.9540798664093018,2.7799999999999847
-2.063046932220459,-4.0001606941223145,-0.8671786785125732,2.7899999999999845
-2.146857500076294,-4.091485977172852,-0.7753243446350098,2.7999999999999843
-2.1689696311950684,-4.235408306121826,-0.6423397064208984,2.809999999999984
-2.0689399242401123,-4.709426403045654,-0.7095000743865967,2.819999999999984
-1.9595175981521606,-5.011290550231934,-0.5597233772277832,2.8299999999999836
-1.855745553970337,-5.155603408813477,-0.43915319442749023,2.8399999999999834
-1.7604484558105469,-5.211893081665039,-0.3211677074432373,2.849999999999983
-1.647782564163208,-5.19451904296875,-0.22951579093933105,2.859999999999983
-1.455566167831421,-5.179929733276367,-0.13074851036071777,2.869999999999983
-1.2718340158462524,-5.2013750076293945,-0.1327807903289795,2.8799999999999826
-1.1007593870162964,-5.134091377258301,-0.1094198226928711,2.8899999999999824
-0.9154554605484009,-4.956297397613525,0.12993955612182617,2.899999999999982
-0.705335795879364,-4.698771953582764,0.3855710029602051,2.909999999999982
-0.5361767411231995,-4.353864669799805,0.6775226593017578,2.9199999999999817
-0.5554444193840027,-3.7584877014160156,1.0448920726776123,2.9299999999999815
-0.30727648735046387,-3.1084089279174805,1.370943546295166,2.9399999999999813
-0.13577008247375488,-2.216313362121582,1.4882416725158691,2.949999999999981
0.35340166091918945,-1.1627616882324219,1.434774398803711,2.959999999999981
0.7831273078918457,0.07734012603759766,1.242779016494751,2.9699999999999807
1.177842617034912,1.5196599960327148,1.0658009052276611,2.9799999999999804
1.768831491470337,3.335186004638672,1.1603717803955078,2.9899999999999802
2.3816795349121094,5.295088768005371,1.561546802520752,2.99999999999998
2.9398117065429688,7.47833251953125,2.5585837364196777,3.00999999999998
3.267820358276367,9.716020584106445,4.418398857116699,3.0199999999999796
2.8110270500183105,10.99240779876709,6.794277191162109,3.0299999999999794
2.903942346572876,10.276776313781738,8.110705375671387,3.039999999999979
2.829127073287964,9.155187606811523,8.953814506530762,3.049999999999979
2.3878016471862793,7.805575370788574,9.722870826721191,3.0599999999999787
1.7648566961288452,5.811166763305664,9.860239028930664,3.0699999999999785
1.138716697692871,3.706300735473633,8.877488136291504,3.0799999999999783
0.4349104166030884,2.530747413635254,6.067314147949219,3.089999999999978
0.004338860511779785,3.4834680557250977,2.8813276290893555,3.099999999999978
-0.1603996753692627,6.417675018310547,0.3346736431121826,3.1099999999999777
-0.864368200302124,10.061996459960938,-2.3257851600646973,3.1199999999999775
-2.0267930030822754,13.16491985321045,-4.608306884765625,3.1299999999999772
-3.8986167907714844,14.920371055603027,-5.473206043243408,3.139999999999977
-6.121608734130859,14.180765151977539,-4.992515563964844,3.149999999999977
-5.2332844734191895,10.651368141174316,-4.489644527435303,3.1599999999999766
-3.6958770751953125,5.408681869506836,-4.338161468505859,3.1699999999999764
-3.906343460083008,1.202652931213379,-4.2872314453125,3.179999999999976
-4.798649787902832,-0.9953422546386719,-2.696563959121704,3.189999999999976
-5.878931045532227,-1.2560997009277344,-1.6579229831695557,3.1999999999999758
-6.198307037353516,-0.9854459762573242,-0.7019491195678711,3.2099999999999755
-5.4233903884887695,-0.4432668685913086,1.0635466575622559,3.2199999999999753
-3.5713908672332764,-0.27478981018066406,2.378387451171875,3.229999999999975
-1.6608186960220337,-0.46848392486572266,2.039076566696167,3.239999999999975
-0.6445561051368713,-0.7902927398681641,0.09430575370788574,3.2499999999999747
-0.5415087342262268,-1.062025547027588,-1.6649377346038818,3.2599999999999745
-0.7123827338218689,-1.2382497787475586,-2.490283489227295,3.2699999999999743
-0.7496146559715271,-1.158278465270996,-2.822812795639038,3.279999999999974
-0.7018619775772095,-0.5974187850952148,-2.9504239559173584,3.289999999999974
-0.6244849562644958,0.22360610961914062,-3.3025059700012207,3.2999999999999736
-0.3499835133552551,1.1489601135253906,-4.021135330200195,3.3099999999999734
-0.26954221725463867,2.114089012145996,-4.675143241882324,3.319999999999973
-0.32332801818847656,2.8774490356445312,-4.9103779792785645,3.329999999999973
-0.27171921730041504,3.221414566040039,-4.819687843322754,3.3399999999999728
-0.45186012983322144,2.983626365661621,-4.5362467765808105,3.3499999999999726
-0.7387667298316956,2.2222280502319336,-4.258397102355957,3.3599999999999723
-1.0833427906036377,1.1896324157714844,-4.198208332061768,3.369999999999972
-1.3118902444839478,0.2699775695800781,-4.3564276695251465,3.379999999999972
-1.4086270332336426,-0.29173755645751953,-4.272862434387207,3.3899999999999717
-1.401159644126892,-0.4403705596923828,-3.7254483699798584,3.3999999999999715
-1.3418545722961426,-0.32700347900390625,-2.8995916843414307,3.4099999999999713
-1.3292216062545776,-0.09076595306396484,-2.0488829612731934,3.419999999999971
-1.2586596012115479,0.2058248519897461,-1.3352832794189453,3.429999999999971
-1.0378057956695557,0.2278432846069336,-0.7939572334289551,3.4399999999999706
-0.7796313762664795,-0.05785179138183594,-0.5561304092407227,3.4499999999999704
-0.5322024822235107,-0.6412744522094727,-0.6024563312530518,3.45999999999997
-0.3385295867919922,-1.3762502670288086,-0.7938746213912964,3.46999999999997
-0.3775697946548462,-2.1169347763061523,-1.0939373970031738,3.47999999999997
-0.5267720222473145,-2.822850227355957,-1.3084660768508911,3.4899999999999696
-0.7979971766471863,-3.3172497749328613,-1.5446380376815796,3.4999999999999694
-0.8637739419937134,-3.4306654930114746,-1.7662649154663086,3.509999999999969
-0.7103210091590881,-3.2018136978149414,-2.085606098175049,3.519999999999969
-0.5557321310043335,-2.6884636878967285,-2.392556667327881,3.5299999999999687
-0.48424506187438965,-2.108419895172119,-2.720797061920166,3.5399999999999685
-0.314394474029541,-1.746142864227295,-2.9607789516448975,3.5499999999999683
-0.18528318405151367,-1.5079317092895508,-2.986529588699341,3.559999999999968
-0.1354537010192871,-1.4605646133422852,-2.657197952270508,3.569999999999968
-0.25400781631469727,-1.4315986633300781,-2.248020887374878,3.5799999999999677
-0.2662280797958374,-1.475987434387207,-1.9143778085708618,3.5899999999999674
-0.20100641250610352,-1.557779312133789,-1.7972978353500366,3.5999999999999672
-0.11298537254333496,-1.5981016159057617,-1.7076749801635742,3.609999999999967
-0.06868195533752441,-1.5325489044189453,-1.6812984943389893,3.619999999999967
-0.12973344326019287,-1.4689512252807617,-1.7228449583053589,3.6299999999999666
-0.11161112785339355,-1.4289512634277344,-1.769681453704834,3.6399999999999664
-0.11714351177215576,-1.3576116561889648,-1.7376998662948608,3.649999999999966
-0.06509017944335938,-1.33392333984375,-1.7318661212921143,3.659999999999966
-0.0681377649307251,-1.2956819534301758,-1.6632423400878906,3.6699999999999657
-0.1720815896987915,-1.0659074783325195,-1.5963351726531982,3.6799999999999655
-0.04944944381713867,-0.8767452239990234,-1.4831923246383667,3.6899999999999653
0.1678236722946167,-0.7376260757446289,-1.3433866500854492,3.699999999999965
0.19945192337036133,-0.6507577896118164,-1.222779393196106,3.709999999999965
0.6371424198150635,-0.8552408218383789,-0.9546613693237305,3.7199999999999647
0.7591620683670044,-1.0662107467651367,-0.8174949884414673,3.7299999999999645
0.7119163274765015,-1.0398063659667969,-0.694072425365448,3.7399999999999642
0.5555553436279297,-1.029841423034668,-0.6273411512374878,3.749999999999964
0.5538045167922974,-1.050734519958496,-0.7991573214530945,3.759999999999964
0.5346027612686157,-0.896876335144043,-0.922297477722168,3.7699999999999636
0.447676420211792,-0.7646293640136719,-0.8287556171417236,3.7799999999999634
0.36977899074554443,-0.7568626403808594,-0.7621557712554932,3.789999999999963
0.2721043825149536,-0.6677894592285156,-0.6552956700325012,3.799999999999963
0.06617271900177002,-0.5931529998779297,-0.5632144808769226,3.8099999999999627
-0.02785360813140869,-0.5520486831665039,-0.4933546781539917,3.8199999999999625
0.023032069206237793,-0.43201541900634766,-0.5220409631729126,3.8299999999999623
0.11808371543884277,-0.37660694122314453,-0.5247353911399841,3.839999999999962
0.051363468170166016,-0.4789571762084961,-0.4990479648113251,3.849999999999962
0.05728018283843994,-0.6097307205200195,-0.44989222288131714,3.8599999999999617
0.03786122798919678,-0.7091426849365234,-0.4249865710735321,3.8699999999999615
0.015241146087646484,-0.7462339401245117,-0.32117581367492676,3.8799999999999613
-0.3311348557472229,-0.8525609970092773,-0.33956843614578247,3.889999999999961
-0.19970393180847168,-0.8869600296020508,-0.4013121724128723,3.899999999999961
-0.03357338905334473,-0.8279743194580078,-0.46355265378952026,3.9099999999999606
-0.060207486152648926,-0.6948099136352539,-0.4880901277065277,3.9199999999999604
-0.02821481227874756,-0.5808219909667969,-0.47505223751068115,3.92999999999996
-0.06674313545227051,-0.4286069869995117,-0.3620474338531494,3.93999999999996
-0.07302379608154297,-0.2166738510131836,-0.04623415321111679,3.9499999999999598
-0.15486633777618408,0.10274791717529297,0.2759113609790802,3.9599999999999596
-0.048827409744262695,0.37168025970458984,0.5252373814582825,3.9699999999999593
-0.01816093921661377,0.5208425521850586,0.6033927798271179,3.979999999999959
0.022756755352020264,0.4906644821166992,0.7256373167037964,3.989999999999959
0.2531101703643799,0.4344034194946289,0.8824955224990845,3.9999999999999587
0.49325472116470337,0.45012760162353516,0.9661272168159485,4.009999999999959
0.6853893995285034,0.41582202911376953,0.9023299217224121,4.019999999999959
0.8390867114067078,0.30524539947509766,0.9020622968673706,4.0299999999999585
1.0453119277954102,0.3313007354736328,0.9012705683708191,4.039999999999958
1.1865878105163574,0.32168102264404297,0.8906683921813965,4.049999999999958
1.267143964767456,0.37450599670410156,0.7649738788604736,4.059999999999958
1.1817476749420166,0.4060020446777344,0.6772805452346802,4.069999999999958
1.5477426052093506,0.5309438705444336,0.7901958227157593,4.079999999999957
1.5847649574279785,0.584228515625,0.7876416444778442,4.089999999999957
1.6039927005767822,0.5802726745605469,0.7866877317428589,4.099999999999957
1.579052209854126,0.5669393539428711,0.6241981983184814,4.109999999999957
1.722509741783142,0.6111545562744141,0.48387327790260315,4.119999999999957
1.802154541015625,0.6315240859985352,0.45410653948783875,4.129999999999956
1.7870194911956787,0.8456554412841797,0.43217456340789795,4.139999999999956
1.8470299243927002,1.016587257385254,0.5261732935905457,4.149999999999956
1.73569917678833,1.3117589950561523,0.5593403577804565,4.159999999999956
1.7503278255462646,1.4799270629882812,0.6684156656265259,4.1699999999999555
1.7336078882217407,1.6312103271484375,0.8367136120796204,4.179999999999955
1.7653738260269165,1.6675376892089844,0.8821835517883301,4.189999999999955
1.7933334112167358,1.6153316497802734,1.0272231101989746,4.199999999999955
1.7910096645355225,1.4986047744750977,1.1853528022766113,4.209999999999955
1.9421744346618652,1.5254602432250977,1.2534465789794922,4.2199999999999545
2.1171493530273438,1.5761537551879883,1.355684518814087,4.229999999999954
2.3873822689056396,1.6673946380615234,1.4848155975341797,4.239999999999954
2.6665751934051514,1.7034740447998047,1.607243537902832,4.249999999999954
2.9519577026367188,1.7657384872436523,1.6341350078582764,4.259999999999954
3.176304817199707,1.8397607803344727,1.682082176208496,4.269999999999953
3.252859354019165,2.028313636779785,1.6596946716308594,4.279999999999953
3.4759650230407715,2.14235782623291,1.784773349761963,4.289999999999953
3.699507236480713,2.1317615509033203,1.7987778186798096,4.299999999999953
3.813331365585327,2.0205631256103516,1.7181344032287598,4.3099999999999525
3.8845226764678955,1.9045076370239258,1.5376951694488525,4.319999999999952
3.91278076171875,1.8457517623901367,1.3383419513702393,4.329999999999952
3.7923903465270996,1.894454002380371,1.1078157424926758,4.339999999999952
3.7285220623016357,2.014655113220215,0.8653125762939453,4.349999999999952
3.6272671222686768,2.2374391555786133,0.7621050477027893,4.3599999999999515
3.423799514770508,2.342794418334961,0.7296194434165955,4.369999999999951
3.3456578254699707,2.3452844619750977,0.6775157451629639,4.379999999999951
3.3310844898223877,2.127899169921875,0.552933931350708,4.389999999999951
3.2345900535583496,1.8080825805664062,0.2544846534729004,4.399999999999951
3.071070671081543,1.4409818649291992,-0.20920222997665405,4.40999999999995
2.857477903366089,1.0243511199951172,-0.7163337469100952,4.41999999999995
2.6582765579223633,0.6874961853027344,-1.0153582096099854,4.42999999999995
2.4471096992492676,0.43761444091796875,-1.194526195526123,4.43999999999995
2.016146659851074,0.1575460433959961,-1.1935055255889893,4.4499999999999496
1.413886308670044,-0.09518814086914062,-1.17436683177948,4.459999999999949
0.7393871545791626,-0.3588266372680664,-1.2683401107788086,4.469999999999949
-0.004168450832366943,-0.5161285400390625,-1.4832396507263184,4.479999999999949
-0.5287566781044006,-0.6006126403808594,-1.681596040725708,4.489999999999949
-1.032123327255249,-0.5357208251953125,-1.7550209760665894,4.4999999999999485
-1.5228018760681152,-0.4744873046875,-1.6260769367218018,4.509999999999948
-2.073826789855957,-0.29720020294189453,-1.1917667388916016,4.519999999999948
-2.5526070594787598,-0.13068866729736328,-0.6871656179428101,4.529999999999948
-3.0998141765594482,0.08717727661132812,-0.21979773044586182,4.539999999999948
-3.526364803314209,0.30834197998046875,0.041117191314697266,4.549999999999947
-3.718351125717163,0.6592206954956055,0.0562288761138916,4.559999999999947
-3.7232041358947754,1.1177501678466797,-0.25707781314849854,4.569999999999947
-3.5810201168060303,1.5376348495483398,-0.7654609680175781,4.579999999999947
-3.2762932777404785,1.7992277145385742,-1.1031992435455322,4.589999999999947
-2.9658381938934326,2.0629758834838867,-1.207287073135376,4.599999999999946
-2.6775498390197754,2.3003196716308594,-1.038751482963562,4.609999999999946
-2.4681334495544434,2.556899070739746,-0.6708499193191528,4.619999999999946
-2.0799074172973633,2.821101188659668,-0.24726390838623047,4.629999999999946
-1.8473639488220215,3.0670881271362305,0.19323742389678955,4.6399999999999455
-1.7978830337524414,3.2808494567871094,0.6896370649337769,4.649999999999945
-1.793628454208374,3.4577741622924805,1.0811830759048462,4.659999999999945
-1.902701497077942,3.5978078842163086,1.3400461673736572,4.669999999999945
-2.011514186859131,3.7175636291503906,1.2234370708465576,4.679999999999945
-1.9421437978744507,3.630380630493164,0.7684674263000488,4.689999999999944
-1.8801932334899902,3.4272031784057617,-0.133880615234375,4.699999999999944
-1.6793467998504639,3.0746707916259766,-1.1889103651046753,4.709999999999944
-1.5744966268539429,2.5275211334228516,-2.214510440826416,4.719999999999944
-1.4324052333831787,1.8409624099731445,-2.8516969680786133,4.729999999999944
-1.0045480728149414,0.9982767105102539,-3.1171088218688965,4.739999999999943
-0.73243248462677,0.3247871398925781,-3.1517786979675293,4.749999999999943
-0.4570845663547516,-0.26824474334716797,-2.9817874431610107,4.759999999999943
-0.12225699424743652,-0.7069511413574219,-2.4942874908447266,4.769999999999943
0.022358357906341553,-1.1137027740478516,-1.8346831798553467,4.7799999999999425
-0.09310203790664673,-1.5677223205566406,-1.2629499435424805,4.789999999999942
-0.4062470495700836,-2.031062602996826,-0.8713114261627197,4.799999999999942
-0.6088200807571411,-2.3940372467041016,-0.7072272300720215,4.809999999999942
-0.9908338189125061,-2.8412795066833496,-0.6696743965148926,4.819999999999942
-1.3309272527694702,-3.171842575073242,-0.8332376480102539,4.8299999999999415
-1.4656941890716553,-3.153597831726074,-1.1297640800476074,4.839999999999941
-1.5891108512878418,-3.169322967529297,-1.3064682483673096,4.849999999999941
-1.2661997079849243,-2.934539794921875,-1.4015800952911377,4.859999999999941
-0.9137926697731018,-2.7462897300720215,-1.323866605758667,4.869999999999941
-0.6875646710395813,-2.695430278778076,-1.2839324474334717,4.87999999999994
-0.578669548034668,-2.7293596267700195,-1.168828010559082,4.88999999999994
-0.5757201313972473,-2.8122358322143555,-1.0978436470031738,4.89999999999994
-0.6374228000640869,-3.0134925842285156,-1.034987449645996,4.90999999999994
-0.6937916874885559,-3.2805023193359375,-1.042433261871338,4.9199999999999395
-0.8209442496299744,-3.524667739868164,-1.1467499732971191,4.929999999999939
-0.9869039058685303,-3.7794933319091797,-1.3170957565307617,4.939999999999939
-1.1049376726150513,-4.004446506500244,-1.3549294471740723,4.949999999999939
-1.139093279838562,-4.23080587387085,-1.3965072631835938,4.959999999999939
-1.2740347385406494,-4.470726490020752,-1.271575927734375,4.9699999999999385
-1.3611679077148438,-4.7697649002075195,-1.2216806411743164,4.979999999999938
-1.4195621013641357,-5.060953617095947,-1.3184585571289062,4.989999999999938
-1.4374421834945679,-5.38975191116333,-1.4564871788024902,4.999999999999938
-1.5011940002441406,-5.777728080749512,-1.5350430011749268,5.009999999999938
-1.733717441558838,-5.928372383117676,-1.4127099514007568,5.019999999999937
-1.780518889427185,-6.425451278686523,-1.7018935680389404,5.029999999999937
-1.5363099575042725,-6.862274646759033,-1.5743215084075928,5.039999999999937
-1.4684914350509644,-7.033445358276367,-1.3192017078399658,5.049999999999937
-1.4888783693313599,-6.87488317489624,-1.0843698978424072,5.0599999999999365
-1.4185460805892944,-6.396669387817383,-0.7592940330505371,5.069999999999936
-1.235992670059204,-6.058260440826416,-0.4396653175354004,5.079999999999936
-1.1060676574707031,-6.045860767364502,-0.22367000579833984,5.089999999999936
-0.9924649000167847,-6.15083646774292,-0.0015091896057128906,5.099999999999936
-0.9186956882476807,-6.128918647766113,0.18816828727722168,5.1099999999999355
-0.7816996574401855,-5.996781826019287,0.4311950206756592,5.119999999999935
-0.6531622409820557,-5.742378234863281,0.7726564407348633,5.129999999999935
-0.5354996919631958,-5.422738075256348,0.9747769832611084,5.139999999999935
-0.6227392554283142,-4.929531574249268,0.9810643196105957,5.149999999999935
-0.25621962547302246,-4.369904518127441,1.0959670543670654,5.159999999999934
0.13170599937438965,-3.5832009315490723,1.4945745468139648,5.169999999999934
0.3713202476501465,-2.5162854194641113,1.8346583843231201,5.179999999999934
0.7567325830459595,-1.3549699783325195,1.840587854385376,5.189999999999934
1.3180547952651978,0.1480712890625,1.502131462097168,5.199999999999934
1.7946979999542236,1.7331104278564453,0.6581747531890869,5.209999999999933
2.5076980590820312,3.721604347229004,-0.07954144477844238,5.219999999999933
3.1480908393859863,5.96091365814209,-0.5293586254119873,5.229999999999933
3.6277503967285156,8.288166999816895,-0.12454891204833984,5.239999999999933
3.595460891723633,10.486820220947266,1.7935805320739746,5.2499999999999325
2.6839141845703125,11.62275218963623,4.681829452514648,5.259999999999932
2.660454273223877,10.840082168579102,6.782526016235352,5.269999999999932
2.5615835189819336,9.684774398803711,8.180232048034668,5.279999999999932
2.0356645584106445,8.62708568572998,9.392974853515625,5.289999999999932
1.5121642351150513,7.123177528381348,10.000116348266602,5.299999999999931
0.8504043817520142,4.896273612976074,9.5645751953125,5.309999999999931
0.4850656986236572,2.4236679077148438,8.238531112670898,5.319999999999931
0.5217880010604858,-0.020643234252929688,5.315973281860352,5.329999999999931
0.30676698684692383,-1.232557773590088,1.3890206813812256,5.339999999999931
-0.2820793390274048,0.15649032592773438,-1.2471559047698975,5.34999999999993
-0.7923556566238403,3.458010673522949,-2.1400368213653564,5.35999999999993
-1.665856122970581,7.010714530944824,-2.8800275325775146,5.36999999999993
-2.3898801803588867,9.80310344696045,-4.841853141784668,5.37999999999993
-3.1013832092285156,10.992944717407227,-6.469545364379883,5.3899999999999295
-4.519556045532227,10.965816497802734,-6.785565376281738,5.399999999999929
-6.379534721374512,9.828163146972656,-5.976866722106934,5.409999999999929
-7.572213172912598,8.040879249572754,-4.732968807220459,5.419999999999929
-7.431443214416504,6.127897262573242,-2.743838310241699,5.429999999999929
-7.436789035797119,4.611193656921387,-0.8499765396118164,5.4399999999999284
-6.978334426879883,3.4993772506713867,0.5424470901489258,5.449999999999928
-6.068972110748291,3.3074893951416016,1.1733076572418213,5.459999999999928
-5.055884838104248,3.750896453857422,1.217318058013916,5.469999999999928
-4.269613265991211,3.91451358795166,1.1103661060333252,5.479999999999928
-3.654904365539551,3.2517738342285156,0.6728641986846924,5.489999999999927
-3.065948486328125,2.0143089294433594,-0.27661848068237305,5.499999999999927
-2.565366744995117,0.5750503540039062,-1.2785160541534424,5.509999999999927
-2.340333938598633,-0.7063503265380859,-2.383544445037842,5.519999999999927
-2.5008413791656494,-1.4913816452026367,-3.4716415405273438,5.5299999999999265
-2.786048412322998,-1.7123384475708008,-4.130849838256836,5.539999999999926
-2.837474822998047,-1.495966911315918,-4.23266077041626,5.549999999999926
-2.6296439170837402,-1.0247840881347656,-4.001737594604492,5.559999999999926
-1.946028470993042,-0.4027214050292969,-3.8847994804382324,5.569999999999926
-0.7642357349395752,0.3834257125854492,-3.9734766483306885,5.5799999999999255
0.1329972743988037,0.8548994064331055,-4.227066993713379,5.589999999999925
0.9195096492767334,1.086491584777832,-4.5591139793396,5.599999999999925
1.294114351272583,0.9404993057250977,-5.018599987030029,5.609999999999925
1.4474470615386963,0.6045513153076172,-5.396664142608643,5.619999999999925
1.2832409143447876,0.14651966094970703,-5.69788122177124,5.629999999999924
0.9134804010391235,-0.24392223358154297,-5.635232925415039,5.639999999999924
0.6195007562637329,-0.5903158187866211,-5.165599822998047,5.649999999999924
0.2705836296081543,-0.6486444473266602,-4.3287763595581055,5.659999999999924
0.017824649810791016,-0.5985898971557617,-3.410111904144287,5.6699999999999235
-0.20550930500030518,-0.5049467086791992,-2.5436036586761475,5.679999999999923
-0.44940584897994995,-0.3654136657714844,-1.84890615940094,5.689999999999923
-0.5895358920097351,-0.3687763214111328,-1.4030919075012207,5.699999999999923
-0.7600919008255005,-0.5361299514770508,-1.0873744487762451,5.709999999999923
-0.7604010105133057,-0.8790140151977539,-0.8691558837890625,5.7199999999999225
-0.6289551258087158,-1.2679872512817383,-0.8447537422180176,5.729999999999922
-0.4808833599090576,-1.6456103324890137,-0.8731462955474854,5.739999999999922
-0.18987417221069336,-2.036011219024658,-0.6570484638214111,5.749999999999922
-0.02472090721130371,-2.353261947631836,-0.46842026710510254,5.759999999999922
0.17877185344696045,-2.576103687286377,-0.35869503021240234,5.769999999999921
0.2953171730041504,-2.630596160888672,-0.4035632610321045,5.779999999999921
0.40812134742736816,-2.6078639030456543,-0.4588348865509033,5.789999999999921
0.5047168731689453,-2.4817633628845215,-0.48089540004730225,5.799999999999921
0.5180345773696899,-2.33612060546875,-0.6825083494186401,5.809999999999921
0.4789309501647949,-2.10874605178833,-0.8315607309341431,5.81999999999992
0.46603941917419434,-1.983778953552246,-1.15787935256958,5.82999999999992
0.40031588077545166,-1.8869695663452148,-1.405350923538208,5.83999999999992
0.4568979740142822,-1.6893038749694824,-1.5258722305297852,5.84999999999992
0.43047332763671875,-1.6206169128417969,-1.4520593881607056,5.8599999999999195
0.30470120906829834,-1.6975698471069336,-1.3918524980545044,5.869999999999919
0.27160370349884033,-1.802889347076416,-1.3236881494522095,5.879999999999919
0.19796335697174072,-1.7740535736083984,-1.1733733415603638,5.889999999999919
0.15594542026519775,-1.7308073043823242,-1.1228495836257935,5.899999999999919
0.12859272956848145,-1.615757942199707,-0.9782145023345947,5.909999999999918
0.18767893314361572,-1.493544578552246,-0.8328760862350464,5.919999999999918
0.16514384746551514,-1.364029884338379,-0.8187582492828369,5.929999999999918
0.31195390224456787,-1.1315107345581055,-0.7709620594978333,5.939999999999918
0.8324867486953735,-1.0927581787109375,-0.6803406476974487,5.949999999999918
0.9731305837631226,-0.8912210464477539,-0.5282126069068909,5.959999999999917
1.1768498420715332,-0.6873235702514648,-0.22392404079437256,5.969999999999917
1.1997205018997192,-0.5216865539550781,-0.12925153970718384,5.979999999999917
1.3842921257019043,-0.3249492645263672,-0.23489981889724731,5.989999999999917
1.5730507373809814,-0.14743423461914062,-0.34961897134780884,5.9999999999999165
1.7806065082550049,-0.058501243591308594,-0.42349761724472046,6.009999999999916
1.676665186882019,0.044775962829589844,-0.564002513885498,6.019999999999916
1.5557143688201904,0.10248947143554688,-0.5021203756332397,6.029999999999916
1.2936972379684448,-0.03366374969482422,-0.4188542068004608,6.039999999999916
0.9676953554153442,-0.3347892761230469,-0.4626615345478058,6.0499999999999154
0.7025144100189209,-0.6548271179199219,-0.5120924711227417,6.059999999999915
0.5530036687850952,-0.9745826721191406,-0.5412960648536682,6.069999999999915
0.3510183095932007,-1.1385488510131836,-0.6173330545425415,6.079999999999915
0.06933951377868652,-1.187474250793457,-0.6151443719863892,6.089999999999915
-0.1512233018875122,-1.2051734924316406,-0.4481208026409149,6.099999999999914
-0.2460823655128479,-1.1391029357910156,-0.24772168695926666,6.109999999999914
-0.39500999450683594,-0.9964933395385742,-0.04747515916824341,6.119999999999914
-0.4738081693649292,-0.8395729064941406,0.08314138650894165,6.129999999999914
-0.5833106637001038,-0.6754827499389648,0.14389020204544067,6.1399999999999135
-0.6305696368217468,-0.638092041015625,0.20166456699371338,6.149999999999913
-0.6300547122955322,-0.5646476745605469,0.2563871741294861,6.159999999999913
-0.6345772743225098,-0.5197477340698242,0.41347160935401917,6.169999999999913
-0.5364419221878052,-0.4914207458496094,0.5031050443649292,6.179999999999913
-0.3525336980819702,-0.39595603942871094,0.4700756371021271,6.1899999999999125
-0.2456883192062378,-0.34342288970947266,0.39813369512557983,6.199999999999912
-0.026926934719085693,-0.38159847259521484,0.4452357888221741,6.209999999999912
0.085968017578125,-0.3669090270996094,0.422569215297699,6.219999999999912
0.2604195475578308,-0.32811450958251953,0.42359691858291626,6.229999999999912
0.3026955723762512,-0.34415721893310547,0.3789781332015991,6.239999999999911
0.5429551005363464,-0.3599824905395508,0.3175049424171448,6.249999999999911
0.8471896648406982,-0.18192577362060547,0.2750701308250427,6.259999999999911
0.9049800634384155,-0.05894184112548828,0.4532286524772644,6.269999999999911
0.9748941659927368,0.07838058471679688,0.48817309737205505,6.2799999999999105
0.8631023168563843,0.2252521514892578,0.4873232841491699,6.28999999999991
1.1082801818847656,0.37205982208251953,0.38104474544525146,6.29999999999991
1.3322755098342896,0.6837673187255859,0.3436271548271179,6.30999999999991
1.2430099248886108,0.9019479751586914,0.26933062076568604,6.31999999999991
1.3384718894958496,1.007563591003418,0.3184277415275574,6.3299999999999095
1.467911720275879,1.2541818618774414,0.2751239240169525,6.339999999999909
1.334477186203003,1.4957695007324219,0.2301093488931656,6.349999999999909
1.2039268016815186,1.596029281616211,0.30536237359046936,6.359999999999909
1.1003727912902832,1.6292457580566406,0.400477796792984,6.369999999999909
0.9785346388816833,1.6146173477172852,0.5178478360176086,6.379999999999908
0.8625102639198303,1.5928363800048828,0.5833339691162109,6.389999999999908
0.9409875273704529,1.4132976531982422,0.7431296110153198,6.399999999999908
0.9526472091674805,1.3416328430175781,0.8537299633026123,6.409999999999908
1.0887761116027832,1.4135856628417969,1.003874659538269,6.419999999999908
1.3183059692382812,1.5285425186157227,1.1840684413909912,6.429999999999907
1.7200835943222046,1.562108039855957,1.2005962133407593,6.439999999999907
1.975550651550293,1.5597963333129883,1.1344430446624756,6.449999999999907
2.2802443504333496,1.5670957565307617,1.0836822986602783,6.459999999999907
2.494964122772217,1.5888032913208008,1.015180230140686,6.4699999999999065
2.698845386505127,1.6248817443847656,0.9265438914299011,6.479999999999906
2.961266040802002,1.7446136474609375,0.8030330538749695,6.489999999999906
3.2438690662384033,1.799612045288086,0.7566455006599426,6.499999999999906
3.326411008834839,1.892740249633789,0.7701062560081482,6.509999999999906
3.264021873474121,1.9761066436767578,0.8957418203353882,6.519999999999905
3.2914955615997314,1.958836555480957,1.092595100402832,6.529999999999905
3.207758665084839,2.0012311935424805,1.2717061042785645,6.539999999999905
3.0535061359405518,1.947770118713379,1.425525188446045,6.549999999999905
3.0274484157562256,1.741166114807129,1.572837233543396,6.559999999999905
3.034013509750366,1.4294109344482422,1.6247098445892334,6.569999999999904
3.039816379547119,1.0915393829345703,1.6191059350967407,6.579999999999904
3.020554542541504,1.0456132888793945,1.4337928295135498,6.589999999999904
2.908205032348633,1.1454391479492188,1.1236027479171753,6.599999999999904
2.763725757598877,1.4578628540039062,0.8494254350662231,6.6099999999999035
2.7202439308166504,1.7962112426757812,0.6648881435394287,6.619999999999903
2.5282585620880127,2.3135499954223633,0.43647903203964233,6.629999999999903
2.4006850719451904,2.6964807510375977,0.36784619092941284,6.639999999999903
2.3524482250213623,2.6989316940307617,0.31032711267471313,6.649999999999903
2.420180320739746,2.3453245162963867,0.08381815254688263,6.659999999999902
2.334019184112549,1.827458381652832,-0.3147810101509094,6.669999999999902
2.3075592517852783,1.2938737869262695,-0.730678141117096,6.679999999999902
2.0369791984558105,0.6299428939819336,-1.1938440799713135,6.689999999999902
1.8816921710968018,0.14682674407958984,-1.4383459091186523,6.699999999999902
1.5957766771316528,-0.05273628234863281,-1.332007884979248,6.709999999999901
1.1991078853607178,-0.12917327880859375,-1.3241639137268066,6.719999999999901
0.776343822479248,-0.1231689453125,-1.3573178052902222,6.729999999999901
0.304465651512146,-0.03708362579345703,-1.3288631439208984,6.739999999999901
-0.1843397617340088,0.09324455261230469,-1.2844626903533936,6.7499999999999005
-0.7130264043807983,0.18898868560791016,-1.1381380558013916,6.7599999999999
-1.1562318801879883,0.1738138198852539,-0.9832299947738647,6.7699999999999
-1.5829637050628662,0.1460580825805664,-0.7551704049110413,6.7799999999999
-1.8806613683700562,0.1297588348388672,-0.34327828884124756,6.7899999999999
-2.2841897010803223,0.17029953002929688,-0.01595139503479004,6.7999999999998995
-2.560018301010132,0.27922630310058594,0.23314130306243896,6.809999999999899
-2.7406489849090576,0.47735023498535156,0.22689545154571533,6.819999999999899
-2.808842897415161,0.8236513137817383,0.019433259963989258,6.829999999999899
-2.7323105335235596,1.2623729705810547,-0.3346242904663086,6.839999999999899
-2.628920316696167,1.6400489807128906,-0.7610225081443787,6.849999999999898
-2.496507406234741,1.968764305114746,-1.1899285316467285,6.859999999999898
-2.2708165645599365,2.2512645721435547,-1.3514361381530762,6.869999999999898
-2.1027185916900635,2.3852033615112305,-1.1865038871765137,6.879999999999898
-1.9398996829986572,2.483673095703125,-0.7437700033187866,6.8899999999998975
-1.7752048969268799,2.5376367568969727,-0.06407737731933594,6.899999999999897
-1.5581682920455933,2.636012077331543,0.6379244327545166,6.909999999999897
-1.4871227741241455,2.7216310501098633,1.28731107711792,6.919999999999897
-1.61664617061615,2.823330879211426,1.6689152717590332,6.929999999999897
-1.5273396968841553,2.883650779724121,1.8051881790161133,6.9399999999998965
-1.4796810150146484,2.7733325958251953,1.568401575088501,6.949999999999896
-1.2409014701843262,2.635687828063965,0.9772355556488037,6.959999999999896
-1.0546116828918457,2.417783737182617,0.12187337875366211,6.969999999999896
-1.0262808799743652,2.0930585861206055,-0.7785224914550781,6.979999999999896
-1.074958324432373,1.5562734603881836,-1.5536413192749023,6.989999999999895
-0.9327133297920227,0.9725618362426758,-2.088697910308838,6.999999999999895
-0.7716825008392334,0.32274818420410156,-2.410216808319092,7.009999999999895
-0.5506693124771118,-0.26432323455810547,-2.4722578525543213,7.019999999999895
-0.4685153067111969,-0.7816295623779297,-2.499880075454712,7.0299999999998946
-0.32715147733688354,-1.0832767486572266,-2.4337995052337646,7.039999999999894
-0.3541741967201233,-1.4658613204956055,-2.3464179039001465,7.049999999999894
-0.4203660190105438,-1.8025026321411133,-2.147122859954834,7.059999999999894
-0.5669345259666443,-2.117490291595459,-1.9785982370376587,7.069999999999894
-0.6518901586532593,-2.4229159355163574,-1.9412704706192017,7.0799999999998935
-0.6929762363433838,-2.376570224761963,-2.165377616882324,7.089999999999893
-0.7328460216522217,-2.3829312324523926,-2.316211223602295,7.099999999999893
-0.6755791902542114,-2.344013214111328,-2.4415597915649414,7.109999999999893
-0.6121358275413513,-2.277050495147705,-2.435281753540039,7.119999999999893
-0.6407933831214905,-2.254240036010742,-2.3826723098754883,7.129999999999892
-0.6497616767883301,-2.357059955596924,-2.316683292388916,7.139999999999892
-0.6728823184967041,-2.580839157104492,-2.138758897781372,7.149999999999892
-0.6882482767105103,-2.944790840148926,-1.961150050163269,7.159999999999892
-0.7360920906066895,-3.472774028778076,-1.8388686180114746,7.169999999999892
-0.9749315977096558,-3.7007784843444824,-1.7285947799682617,7.179999999999891
-1.0574052333831787,-3.8898391723632812,-1.683115005493164,7.189999999999891
-1.1190129518508911,-4.032825469970703,-1.6310358047485352,7.199999999999891
-1.3264553546905518,-4.1823410987854,-1.6445529460906982,7.209999999999891
-1.3895998001098633,-4.383608818054199,-1.7793018817901611,7.2199999999998905
-1.4876925945281982,-4.6173529624938965,-1.815483570098877,7.22999999999989
-1.5824494361877441,-4.823831081390381,-1.8152804374694824,7.23999999999989
-1.6502630710601807,-4.967277526855469,-1.7809364795684814,7.24999999999989
-1.7540000677108765,-5.064541816711426,-1.740941047668457,7.25999999999989
-1.820054292678833,-5.1730756759643555,-1.6736128330230713,7.269999999999889
-1.9260916709899902,-5.250011920928955,-1.4491217136383057,7.279999999999889
-2.0514731407165527,-5.183152198791504,-1.1579158306121826,7.289999999999889
-2.054872512817383,-5.496344089508057,-1.0559210777282715,7.299999999999889
-2.075087070465088,-5.6439995765686035,-0.7768857479095459,7.309999999999889
-2.1551320552825928,-5.6216583251953125,-0.4641609191894531,7.319999999999888
-2.093883514404297,-5.451171875,-0.14377427101135254,7.329999999999888
-1.9702036380767822,-5.271475791931152,0.07450389862060547,7.339999999999888
-1.7579363584518433,-5.302606582641602,0.24371600151062012,7.349999999999888
-1.471551775932312,-5.367360591888428,0.30916500091552734,7.3599999999998875
-1.2351598739624023,-5.412960052490234,0.2923731803894043,7.369999999999887
-1.0627648830413818,-5.348331451416016,0.30309343338012695,7.379999999999887
-0.8127102255821228,-5.189946174621582,0.2998228073120117,7.389999999999887
-0.5491822361946106,-4.93262243270874,0.3531811237335205,7.399999999999887
-0.24819421768188477,-4.532748699188232,0.4280819892883301,7.4099999999998865
0.0067615509033203125,-4.035287857055664,0.6926608085632324,7.419999999999886
0.4578862190246582,-3.3610501289367676,1.200427770614624,7.429999999999886
0.8017336130142212,-2.411865234375,1.8781743049621582,7.439999999999886
1.2157790660858154,-1.3644285202026367,2.487067461013794,7.449999999999886
1.677816390991211,-0.04543304443359375,2.5548808574676514,7.459999999999885
2.1342954635620117,1.622903823852539,2.1324756145477295,7.469999999999885
2.6674647331237793,3.665586471557617,1.552990198135376,7.479999999999885
3.5252928733825684,5.934993743896484,1.3231253623962402,7.489999999999885
4.1837477684021,8.301889419555664,1.8521087169647217,7.4999999999998845
4.571104049682617,10.248763084411621,3.454214334487915,7.509999999999884
4.318829536437988,11.11956787109375,5.782082557678223,7.519999999999884
4.192224502563477,10.068254470825195,6.946075439453125,7.529999999999884
3.5848615169525146,8.653068542480469,7.398758888244629,7.539999999999884
3.0580601692199707,7.129085540771484,8.073858261108398,7.5499999999998835
2.5710105895996094,5.2393293380737305,8.70149040222168,7.559999999999883
2.0483250617980957,2.737107276916504,8.626201629638672,7.569999999999883
1.7655304670333862,-0.013806343078613281,6.966584205627441,7.579999999999883
1.6864129304885864,-2.5799713134765625,3.9918768405914307,7.589999999999883
1.4259792566299438,-4.320183277130127,0.6730108261108398,7.599999999999882
0.5154143571853638,-4.333887577056885,-1.8671635389328003,7.609999999999882
-0.6409885287284851,-1.9327545166015625,-3.330610752105713,7.619999999999882
-1.2913100719451904,1.5230083465576172,-4.340444087982178,7.629999999999882
-1.9071638584136963,4.600467681884766,-5.459292411804199,7.6399999999998816
-2.376267433166504,7.131744384765625,-6.575761795043945,7.649999999999881
-3.5521974563598633,9.262310981750488,-7.007543563842773,7.659999999999881
-5.6651763916015625,11.074606895446777,-5.899565696716309,7.669999999999881
-8.094094276428223,12.422659873962402,-3.9527461528778076,7.679999999999881
-9.975854873657227,12.838469505310059,-2.204054355621338,7.6899999999998805
-9.691360473632812,11.858441352844238,-0.28682422637939453,7.69999999999988
-8.083365440368652,9.825556755065918,1.548769235610962,7.70999999999988
-6.658203601837158,8.181952476501465,2.2852554321289062,7.71999999999988
-5.312406539916992,7.543696403503418,2.563809871673584,7.72999999999988
-4.262035369873047,7.038789749145508,2.7152247428894043,7.739999999999879
-3.3840560913085938,5.601222991943359,2.773240327835083,7.749999999999879
-2.796563148498535,3.037825584411621,1.4737589359283447,7.759999999999879
-2.6829638481140137,0.44153499603271484,-0.34996724128723145,7.769999999999879
-2.8512163162231445,-1.769956111907959,-2.346170663833618,7.779999999999879
-3.0506978034973145,-3.2588376998901367,-4.1633172035217285,7.789999999999878
-3.365225076675415,-3.729990005493164,-5.310759544372559,7.799999999999878
-3.614948034286499,-3.262084484100342,-5.268301486968994,7.809999999999878
-3.4544169902801514,-2.5657501220703125,-4.7189788818359375,7.819999999999878
-2.9638519287109375,-1.9761362075805664,-4.193786144256592,7.8299999999998775
-2.2788777351379395,-1.4650306701660156,-3.840252161026001,7.839999999999877
-1.4854967594146729,-1.126199722290039,-3.869863748550415,7.849999999999877
-0.44067978858947754,-0.6325397491455078,-3.6692545413970947,7.859999999999877
0.44515740871429443,-0.11831283569335938,-3.531543254852295,7.869999999999877
0.738336443901062,0.10383796691894531,-3.952453374862671,7.879999999999876
0.9944585561752319,0.17841529846191406,-4.466533660888672,7.889999999999876
1.0735191106796265,0.11790657043457031,-4.799694538116455,7.899999999999876
1.0750343799591064,0.0016927719116210938,-4.692587852478027,7.909999999999876
1.0428197383880615,0.002471923828125,-4.214132785797119,7.919999999999876
0.9220569133758545,0.04641151428222656,-3.4497203826904297,7.929999999999875
1.0186936855316162,0.2342243194580078,-2.704268455505371,7.939999999999875
1.097750186920166,0.501399040222168,-2.035670280456543,7.949999999999875
1.1043039560317993,0.8528356552124023,-1.6598222255706787,7.959999999999875
1.3139708042144775,1.0662574768066406,-1.572686791419983,7.9699999999998745
1.4020498991012573,0.9075098037719727,-1.4492976665496826,7.979999999999874
1.3164948225021362,0.45600223541259766,-1.3405426740646362,7.989999999999874
1.0580350160598755,-0.0655679702758789,-1.3161885738372803,7.999999999999874
