AccX,AccY,AccZ,SampleRate
1.5321396589279175,1.0359954833984375,-1.4538447856903076,0
1.0771417617797852,0.8324146270751953,-1.7427401542663574,0.01
0.7123979926109314,0.7637948989868164,-1.9361240863800049,0.02
0.20397132635116577,0.5264606475830078,-2.170927047729492,0.03
-0.37818026542663574,0.4388113021850586,-2.3369758129119873,0.04
-0.8416580557823181,0.3190164566040039,-2.3856616020202637,0.05
-1.4970325231552124,0.15285778045654297,-2.308573007583618,0.060000000000000005
-2.082970142364502,0.04076194763183594,-2.0102593898773193,0.07
-2.5943760871887207,-0.05573558807373047,-1.59389328956604,0.08
-2.990278482437134,-0.24200916290283203,-1.1633602380752563,0.09
-3.2253384590148926,-0.35060787200927734,-0.7302807569503784,0.09999999999999999
-3.4606106281280518,-0.29552745819091797,-0.3182053565979004,0.10999999999999999
-3.5301530361175537,-0.07701873779296875,0.06453490257263184,0.11999999999999998
-3.4146008491516113,-0.011106491088867188,0.41039514541625977,0.12999999999999998
-3.1307101249694824,0.10294818878173828,0.6593953371047974,0.13999999999999999
-2.7616257667541504,0.17623233795166016,0.8420510292053223,0.15
-2.22672176361084,0.1845569610595703,0.7677698135375977,0.16
-1.7674858570098877,0.1565532684326172,0.40271079540252686,0.17
-1.3377304077148438,0.1186370849609375,-0.201818585395813,0.18000000000000002
-1.1133341789245605,0.1165924072265625,-0.9191188812255859,0.19000000000000003
-1.0448224544525146,0.16297054290771484,-1.6069825887680054,0.20000000000000004
-1.1567935943603516,0.2871522903442383,-2.1400859355926514,0.21000000000000005
-1.4240586757659912,0.4514427185058594,-2.380256175994873,0.22000000000000006
-1.6260359287261963,0.696833610534668,-2.371894359588623,0.23000000000000007
-1.4441308975219727,0.8868856430053711,-2.1598455905914307,0.24000000000000007
-1.0531213283538818,1.0786981582641602,-1.8307384252548218,0.25000000000000006
-0.7521299719810486,1.3028898239135742,-1.645450234413147,0.26000000000000006
-0.5989471673965454,1.382211685180664,-1.6956225633621216,0.2700000000000001
-0.6114720702171326,1.4364013671875,-1.808294415473938,0.2800000000000001
-0.706691563129425,1.4057998657226562,-1.9761823415756226,0.2900000000000001
-0.864047646522522,1.1806011199951172,-2.00787353515625,0.3000000000000001
-1.1160227060317993,0.8924560546875,-1.8359414339065552,0.3100000000000001
-1.2272586822509766,0.4525632858276367,-1.3899176120758057,0.3200000000000001
-1.3159475326538086,0.013688087463378906,-1.020434856414795,0.3300000000000001
-1.3540914058685303,-0.44838428497314453,-0.8511176109313965,0.34000000000000014
-1.4354170560836792,-0.8454618453979492,-0.7305574417114258,0.35000000000000014
-1.5122255086898804,-1.2041845321655273,-0.684675931930542,0.36000000000000015
-1.5006588697433472,-1.472193717956543,-0.6941251754760742,0.37000000000000016
-1.5628457069396973,-1.7311172485351562,-0.7778339385986328,0.38000000000000017
-1.2834203243255615,-1.8973846435546875,-0.9885616302490234,0.3900000000000002
-1.2525556087493896,-2.1622767448425293,-1.3052763938903809,0.4000000000000002
-1.2874109745025635,-2.4824490547180176,-1.5587894916534424,0.4100000000000002
-1.202547550201416,-2.9104104042053223,-1.6180424690246582,0.4200000000000002
-1.0421030521392822,-3.281014919281006,-1.7179749011993408,0.4300000000000002
-1.1284247636795044,-3.5751280784606934,-1.9162721633911133,0.4400000000000002
-1.1423101425170898,-3.8552088737487793,-1.8874316215515137,0.45000000000000023
-1.185851812362671,-4.128615379333496,-1.9950387477874756,0.46000000000000024
-1.2398157119750977,-4.292684555053711,-2.0235393047332764,0.47000000000000025
-1.2809112071990967,-4.175529479980469,-2.0014755725860596,0.48000000000000026
-1.0762521028518677,-3.749265193939209,-1.727104663848877,0.49000000000000027
-0.9213011264801025,-3.32554292678833,-1.4940452575683594,0.5000000000000002
-0.8220535516738892,-2.8040928840637207,-1.3258686065673828,0.5100000000000002
-0.6524498462677002,-2.412295341491699,-1.2558541297912598,0.5200000000000002
-0.666653037071228,-2.2266464233398438,-1.2143495082855225,0.5300000000000002
-0.5820248126983643,-2.4001712799072266,-1.3085994720458984,0.5400000000000003
-0.6300951242446899,-2.5884385108947754,-1.4399375915527344,0.5500000000000003
-0.6979929208755493,-2.762880802154541,-1.5651283264160156,0.5600000000000003
-0.7665989398956299,-2.952181816101074,-1.6508119106292725,0.5700000000000003
-0.8646072149276733,-3.1491146087646484,-1.7114815711975098,0.5800000000000003
-0.8941513299942017,-3.317927360534668,-1.6512761116027832,0.5900000000000003
-0.8364853858947754,-3.487417221069336,-1.5634205341339111,0.6000000000000003
-0.8663729429244995,-3.6838231086730957,-1.5579853057861328,0.6100000000000003
-0.955138087272644,-3.8878116607666016,-1.5131406784057617,0.6200000000000003
-1.0143108367919922,-3.9987707138061523,-1.460223913192749,0.6300000000000003
-1.156426191329956,-4.1481757164001465,-1.3037443161010742,0.6400000000000003
-1.2262320518493652,-4.27841854095459,-1.0965766906738281,0.6500000000000004
-1.2361043691635132,-4.387014865875244,-0.7694427967071533,0.6600000000000004
-1.2725067138671875,-4.459437847137451,-0.41352224349975586,0.6700000000000004
-1.2662100791931152,-4.383137226104736,-0.00989389419555664,0.6800000000000004
-1.2795298099517822,-4.28477144241333,0.4483036994934082,0.6900000000000004
-1.3483388423919678,-4.080495357513428,0.970456600189209,0.7000000000000004
-1.4169186353683472,-3.796489715576172,1.455718994140625,0.7100000000000004
-1.5107553005218506,-3.4325432777404785,1.9920992851257324,0.7200000000000004
-1.402118444442749,-2.911583423614502,2.310438632965088,0.7300000000000004
-1.1694631576538086,-2.3309240341186523,2.511803150177002,0.7400000000000004
-0.7014777660369873,-1.7684378623962402,2.6294233798980713,0.7500000000000004
-0.10996532440185547,-1.1414222717285156,2.490021228790283,0.7600000000000005
0.5199377536773682,-0.285919189453125,2.2213504314422607,0.7700000000000005
1.0409340858459473,0.6747398376464844,1.7383558750152588,0.7800000000000005
1.5570156574249268,1.8465957641601562,1.567021131515503,0.7900000000000005
2.2543511390686035,3.3515539169311523,1.715578317642212,0.8000000000000005
2.594804286956787,4.811363220214844,2.0429184436798096,0.8100000000000005
2.429945945739746,6.120364189147949,2.5746965408325195,0.8200000000000005
2.021646738052368,7.13900089263916,3.3521876335144043,0.8300000000000005
1.6790152788162231,7.393069267272949,4.20836877822876,0.8400000000000005
1.2225892543792725,7.202736854553223,5.132044792175293,0.8500000000000005
0.7956041097640991,6.445286750793457,5.855891227722168,0.8600000000000005
0.25495386123657227,5.232707977294922,6.391778945922852,0.8700000000000006
0.005407929420471191,3.662407875061035,6.636757850646973,0.8800000000000006
-0.04230546951293945,1.5398187637329102,6.6916022300720215,0.8900000000000006
-0.12617039680480957,-1.0107030868530273,6.124654293060303,0.9000000000000006
0.00902646780014038,-3.500831127166748,4.974299430847168,0.9100000000000006
-0.02751326560974121,-4.770462512969971,3.355001926422119,0.9200000000000006
-0.005708098411560059,-4.6796650886535645,1.4605979919433594,0.9300000000000006
0.017796695232391357,-2.9094910621643066,-0.26402950286865234,0.9400000000000006
0.12040477991104126,-0.6887569427490234,-1.1634819507598877,0.9500000000000006
0.23514753580093384,1.523533821105957,-2.208080768585205,0.9600000000000006
0.05062723159790039,3.6452484130859375,-3.53842830657959,0.9700000000000006
-0.4127906858921051,5.574344635009766,-4.9749250411987305,0.9800000000000006
-0.6585487127304077,7.236886024475098,-5.3329315185546875,0.9900000000000007
-1.0394107103347778,8.209555625915527,-4.601057529449463,1.0000000000000007
-1.8011412620544434,8.560373306274414,-3.5492801666259766,1.0100000000000007
-3.1313729286193848,8.68772029876709,-2.944960355758667,1.0200000000000007
-4.767231464385986,8.144601821899414,-3.113009452819824,1.0300000000000007
-6.362674236297607,7.778511047363281,-3.6571078300476074,1.0400000000000007
-7.511718273162842,8.150343894958496,-4.230517864227295,1.0500000000000007
-8.156678199768066,9.358244895935059,-4.158449172973633,1.0600000000000007
-7.958756446838379,10.490680694580078,-2.7953758239746094,1.0700000000000007
-5.756940841674805,9.603854179382324,-0.23769068717956543,1.0800000000000007
-3.802074432373047,6.885167121887207,1.0795948505401611,1.0900000000000007
-2.45888352394104,4.030242919921875,1.600132942199707,1.1000000000000008
-1.7766046524047852,1.352198600769043,0.9804394245147705,1.1100000000000008
-1.8392455577850342,-0.7021913528442383,-0.7664594650268555,1.1200000000000008
-2.3461782932281494,-1.7774744033813477,-2.7293930053710938,1.1300000000000008
-2.344360113143921,-1.9913005828857422,-3.872836112976074,1.1400000000000008
-1.9405512809753418,-1.7406988143920898,-4.396479606628418,1.1500000000000008
-1.5583009719848633,-1.4268951416015625,-4.626420497894287,1.1600000000000008
-0.9987778067588806,-1.2262029647827148,-4.729794025421143,1.1700000000000008
-0.5428575873374939,-0.9519233703613281,-4.582289695739746,1.1800000000000008
-0.35603195428848267,-0.8745908737182617,-4.390774250030518,1.1900000000000008
0.14234530925750732,-1.0280961990356445,-4.231653690338135,1.2000000000000008
0.6815379858016968,-1.2837767601013184,-4.183460235595703,1.2100000000000009
0.9868794679641724,-1.6633648872375488,-4.380669593811035,1.2200000000000009
1.229905128479004,-1.9730238914489746,-4.693201541900635,1.2300000000000009
1.2237029075622559,-2.1550846099853516,-5.037522315979004,1.2400000000000009
1.0240435600280762,-2.036970615386963,-5.369237899780273,1.2500000000000009
0.6788084506988525,-1.7261772155761719,-5.407614231109619,1.260000000000001
0.19499731063842773,-1.1866302490234375,-5.109006404876709,1.270000000000001
-0.33973240852355957,-0.5640316009521484,-4.587620258331299,1.280000000000001
-0.5180469751358032,0.1681203842163086,-3.6796984672546387,1.290000000000001
-0.33057618141174316,0.5842313766479492,-2.7328736782073975,1.300000000000001
-0.08435487747192383,0.689692497253418,-1.9029541015625,1.310000000000001
0.14825153350830078,0.5019083023071289,-1.3888378143310547,1.320000000000001
0.5277072191238403,0.2151336669921875,-1.1526457071304321,1.330000000000001
0.8466455936431885,-0.1631622314453125,-1.1807554960250854,1.340000000000001
1.0634666681289673,-0.6853475570678711,-1.4048749208450317,1.350000000000001
1.2009387016296387,-1.2005510330200195,-1.5749101638793945,1.360000000000001
1.1353839635849,-1.7135663032531738,-1.6200779676437378,1.370000000000001
1.1523910760879517,-2.2676258087158203,-1.4428473711013794,1.380000000000001
1.0922808647155762,-2.7983627319335938,-1.2874362468719482,1.390000000000001
0.8907932043075562,-3.1625723838806152,-1.1463911533355713,1.400000000000001
0.6819392442703247,-3.384572982788086,-1.1292834281921387,1.410000000000001
0.42230069637298584,-3.514946460723877,-1.1108894348144531,1.420000000000001
0.09956812858581543,-3.374642848968506,-1.147789716720581,1.430000000000001
-0.12156736850738525,-3.0669775009155273,-1.2294899225234985,1.440000000000001
-0.26296114921569824,-2.5826892852783203,-1.4223698377609253,1.450000000000001
-0.4637610912322998,-2.1229372024536133,-1.4888752698898315,1.460000000000001
-0.6264353394508362,-1.7379117012023926,-1.5171018838882446,1.470000000000001
-0.7783101201057434,-1.2504606246948242,-1.516380786895752,1.480000000000001
-0.7958657145500183,-0.8949556350708008,-1.3955923318862915,1.490000000000001
-0.809110701084137,-0.5969324111938477,-1.3273743391036987,1.500000000000001
-0.5459872484207153,-0.46616554260253906,-1.1422584056854248,1.5100000000000011
-0.3152817487716675,-0.5573596954345703,-0.8266914486885071,1.5200000000000011
-0.2771807909011841,-0.5880699157714844,-0.3953819274902344,1.5300000000000011
-0.23250865936279297,-0.7066822052001953,-0.06632161140441895,1.5400000000000011
-0.09942054748535156,-0.8175373077392578,0.11742746829986572,1.5500000000000012
0.14371979236602783,-0.7628278732299805,0.10298335552215576,1.5600000000000012
0.4589364528656006,-0.6791353225708008,0.175018310546875,1.5700000000000012
0.7411240339279175,-0.5856809616088867,0.20428895950317383,1.5800000000000012
0.896977424621582,-0.47054004669189453,0.16221606731414795,1.5900000000000012
0.9625167846679688,-0.2955770492553711,0.17866766452789307,1.6000000000000012
1.0477964878082275,-0.20202064514160156,0.19209647178649902,1.6100000000000012
1.1244264841079712,-0.28313732147216797,0.23654109239578247,1.6200000000000012
1.1400220394134521,-0.4144124984741211,0.24270832538604736,1.6300000000000012
1.2023299932479858,-0.643589973449707,0.22474545240402222,1.6400000000000012
1.2896322011947632,-0.8700895309448242,0.22323256731033325,1.6500000000000012
1.2343511581420898,-1.1154413223266602,0.23373597860336304,1.6600000000000013
1.146443247795105,-1.272017478942871,0.29248881340026855,1.6700000000000013
1.0691355466842651,-1.430826187133789,0.3638231158256531,1.6800000000000013
0.9189833402633667,-1.5201587677001953,0.39033573865890503,1.6900000000000013
0.7269787788391113,-1.5854682922363281,0.3932756781578064,1.7000000000000013
0.6606439352035522,-1.643509864807129,0.3843134045600891,1.7100000000000013
0.6075012683868408,-1.6775493621826172,0.4614439010620117,1.7200000000000013
0.5122822523117065,-1.6086921691894531,0.5579345226287842,1.7300000000000013
0.4417353868484497,-1.4465923309326172,0.5352200865745544,1.7400000000000013
0.3645824193954468,-1.3132734298706055,0.48658469319343567,1.7500000000000013
0.3668266534805298,-1.1106300354003906,0.31610506772994995,1.7600000000000013
0.40529370307922363,-0.8985099792480469,0.1456044614315033,1.7700000000000014
0.36730170249938965,-0.782099723815918,0.11617422103881836,1.7800000000000014
0.33164334297180176,-0.6679935455322266,0.007471293210983276,1.7900000000000014
0.2884558439254761,-0.6015729904174805,-0.12582023441791534,1.8000000000000014
0.35723769664764404,-0.4656181335449219,-0.20725606381893158,1.8100000000000014
0.38707494735717773,-0.4443321228027344,-0.13379094004631042,1.8200000000000014
0.5048433542251587,-0.47782230377197266,0.034927964210510254,1.8300000000000014
0.5190186500549316,-0.5253667831420898,0.03571227192878723,1.8400000000000014
0.5635643005371094,-0.6084604263305664,0.040730275213718414,1.8500000000000014
0.6191321611404419,-0.6840076446533203,0.013954073190689087,1.8600000000000014
0.6883590221405029,-0.5775089263916016,-0.15963418781757355,1.8700000000000014
0.7570534944534302,-0.36334705352783203,-0.2598223388195038,1.8800000000000014
0.7345269918441772,-0.14450645446777344,-0.18841244280338287,1.8900000000000015
0.6976171731948853,0.1028890609741211,-0.09376230835914612,1.9000000000000015
0.5771838426589966,0.33095550537109375,0.07461531460285187,1.9100000000000015
0.45738255977630615,0.49903202056884766,0.35046011209487915,1.9200000000000015
0.4101961851119995,0.7171649932861328,0.6837546825408936,1.9300000000000015
0.30902326107025146,0.8800630569458008,0.9452695250511169,1.9400000000000015
0.3311833143234253,0.997344970703125,1.212023138999939,1.9500000000000015
0.4240459203720093,1.0140724182128906,1.390696406364441,1.9600000000000015
0.5754758715629578,1.0595035552978516,1.397376298904419,1.9700000000000015
0.8429021239280701,1.1359796524047852,1.344228982925415,1.9800000000000015
1.0919973850250244,1.3606328964233398,1.1874918937683105,1.9900000000000015
1.4828920364379883,1.7452125549316406,1.1058707237243652,2.0000000000000013
1.7997506856918335,2.2082271575927734,1.0293452739715576,2.010000000000001
2.150052785873413,2.6491308212280273,1.0194655656814575,2.020000000000001
2.4544477462768555,3.0607690811157227,1.1210774183273315,2.0300000000000007
2.645463466644287,3.4431753158569336,1.2761456966400146,2.0400000000000005
2.866497755050659,3.593111038208008,1.474589467048645,2.0500000000000003
3.074180841445923,3.649533271789551,1.6562471389770508,2.06
3.232398509979248,3.559926986694336,1.7131102085113525,2.07
3.3721566200256348,3.345996856689453,1.707507610321045,2.0799999999999996
3.4523003101348877,3.1609363555908203,1.5267448425292969,2.0899999999999994
3.493872880935669,3.0358152389526367,1.2136281728744507,2.099999999999999
3.575258255004883,3.0327539443969727,0.8969514966011047,2.109999999999999
3.5139713287353516,3.223407745361328,0.641209602355957,2.1199999999999988
3.405205249786377,3.456998825073242,0.5998224020004272,2.1299999999999986
3.3012423515319824,3.7049036026000977,0.7592617273330688,2.1399999999999983
3.2044379711151123,3.888284683227539,0.912087082862854,2.149999999999998
3.048187255859375,3.8111934661865234,0.9293620586395264,2.159999999999998
3.0005404949188232,3.562424659729004,0.7317250370979309,2.1699999999999977
3.03362774848938,3.2330474853515625,0.28975391387939453,2.1799999999999975
3.1293368339538574,2.8040266036987305,-0.20569519698619843,2.1899999999999973
3.130350351333618,2.550530433654785,-0.656887412071228,2.199999999999997
3.152348041534424,2.3002405166625977,-1.0926539897918701,2.209999999999997
2.9737584590911865,2.1106061935424805,-1.4796632528305054,2.2199999999999966
2.6456241607666016,1.8740453720092773,-1.798471450805664,2.2299999999999964
2.1305572986602783,1.2989606857299805,-1.9668359756469727,2.239999999999996
1.304572582244873,0.6919574737548828,-2.3723554611206055,2.249999999999996
0.5682371258735657,0.022065162658691406,-2.7833192348480225,2.259999999999996
-0.2136715054512024,-0.6555757522583008,-3.1284587383270264,2.2699999999999956
-0.8194539546966553,-1.22137451171875,-3.245361804962158,2.2799999999999954
-1.5209174156188965,-1.7351036071777344,-3.1228113174438477,2.289999999999995
-2.3126773834228516,-2.1870574951171875,-2.6893410682678223,2.299999999999995
-3.0072827339172363,-2.529489040374756,-1.9910778999328613,2.3099999999999947
-3.6358370780944824,-2.537881374359131,-1.1711674928665161,2.3199999999999945
-4.139186859130859,-2.2821578979492188,-0.4516634941101074,2.3299999999999943
-4.344423294067383,-1.8489079475402832,0.09835326671600342,2.339999999999994
-4.2975006103515625,-1.1524477005004883,0.4501535892486572,2.349999999999994
-4.126413345336914,-0.4036388397216797,0.6554800271987915,2.3599999999999937
-3.6482651233673096,0.3351917266845703,0.7557343244552612,2.3699999999999934
-2.973330020904541,0.9157752990722656,0.815096378326416,2.3799999999999932
-2.188666343688965,1.3671159744262695,0.6812586784362793,2.389999999999993
-1.7275739908218384,1.6584758758544922,0.5033211708068848,2.399999999999993
-1.5035539865493774,1.8786344528198242,0.3041191101074219,2.4099999999999926
-1.4146912097930908,2.058903694152832,0.01299905776977539,2.4199999999999924
-1.5284368991851807,2.237743377685547,-0.33772099018096924,2.429999999999992
-1.8978559970855713,2.4008712768554688,-0.5932109355926514,2.439999999999992
-2.4634387493133545,2.522054672241211,-0.9071719646453857,2.4499999999999917
-3.067678213119507,2.50576114654541,-1.1557058095932007,2.4599999999999915
-3.2490997314453125,2.431025505065918,-1.3677654266357422,2.4699999999999913
-2.957982063293457,2.1998043060302734,-1.4860293865203857,2.479999999999991
-2.6942124366760254,2.0559768676757812,-1.6220976114273071,2.489999999999991
-2.41441011428833,1.908482551574707,-1.8323863744735718,2.4999999999999907
-1.747295618057251,1.692683219909668,-2.01566743850708,2.5099999999999905
-1.0458215475082397,1.652571678161621,-2.1407511234283447,2.5199999999999902
-0.4833127558231354,1.5704879760742188,-2.258169174194336,2.52999999999999
-0.15148356556892395,1.2122764587402344,-2.2939939498901367,2.53999999999999
0.0855678915977478,0.7191829681396484,-2.250133514404297,2.5499999999999896
0.23417696356773376,0.016828536987304688,-1.9222668409347534,2.5599999999999894
0.3486873209476471,-0.4741506576538086,-1.598954439163208,2.569999999999989
0.4359542429447174,-0.8569726943969727,-1.6243762969970703,2.579999999999989
0.4169745147228241,-1.174941062927246,-1.7039101123809814,2.5899999999999888
0.27977487444877625,-1.576517105102539,-1.7728490829467773,2.5999999999999885
0.12271326780319214,-1.9040307998657227,-1.723283290863037,2.6099999999999883
0.07527357339859009,-2.1483511924743652,-1.7150607109069824,2.619999999999988
0.011264234781265259,-2.5394272804260254,-1.800384759902954,2.629999999999988
-0.1570301651954651,-2.9934802055358887,-1.9003527164459229,2.6399999999999877
-0.3452088534832001,-3.4889211654663086,-2.022382974624634,2.6499999999999875
-0.4952373802661896,-3.9611382484436035,-2.128446578979492,2.6599999999999873
-0.5656142234802246,-4.6206374168396,-2.194798469543457,2.669999999999987
-0.6728600263595581,-5.268824100494385,-2.231074810028076,2.679999999999987
-0.7369837164878845,-5.731201171875,-2.2327024936676025,2.6899999999999866
-0.9417464733123779,-6.022489070892334,-2.2761261463165283,2.6999999999999864
-1.0621049404144287,-5.985062599182129,-2.289750814437866,2.709999999999986
-1.0748237371444702,-5.612030029296875,-2.228484630584717,2.719999999999986
-1.0264930725097656,-4.879849433898926,-1.9873013496398926,2.7299999999999858
-1.0401259660720825,-4.068881034851074,-1.7167770862579346,2.7399999999999856
-1.0921846628189087,-3.3928046226501465,-1.5327026844024658,2.7499999999999853
-1.1465041637420654,-3.0434112548828125,-1.5916516780853271,2.759999999999985
-1.1863765716552734,-2.9271140098571777,-1.7617652416229248,2.769999999999985
-1.3025496006011963,-2.983895778656006,-1.9281141757965088,2.7799999999999847
-1.2822747230529785,-3.0627622604370117,-2.0622942447662354,2.7899999999999845
-1.3005393743515015,-3.230288028717041,-2.1984615325927734,2.7999999999999843
-1.187551498413086,-3.3809642791748047,-2.21500563621521,2.809999999999984
-1.0896497964859009,-3.4381608963012695,-2.1314172744750977,2.819999999999984
-0.9234167337417603,-3.452155590057373,-2.0339393615722656,2.8299999999999836
-0.7942825555801392,-3.5209431648254395,-1.8916194438934326,2.8399999999999834
-0.6304949522018433,-3.565333843231201,-1.6905076503753662,2.849999999999983
-0.5730416774749756,-3.6663742065429688,-1.4311504364013672,2.859999999999983
-0.485604465007782,-3.6948018074035645,-1.0706353187561035,2.869999999999983
-0.3685131072998047,-3.712886333465576,-0.5898420810699463,2.8799999999999826
-0.42059528827667236,-3.734814167022705,-0.16847705841064453,2.8899999999999824
-0.5447539687156677,-3.7819433212280273,0.19338703155517578,2.899999999999982
-0.45287567377090454,-3.5937042236328125,0.4866366386413574,2.909999999999982
-0.5493656396865845,-3.5886573791503906,0.6178927421569824,2.9199999999999817
-0.6376417279243469,-3.4912590980529785,0.7780828475952148,2.9299999999999815
-0.8009859323501587,-3.23903226852417,1.01422119140625,2.9399999999999813
-0.9033268094062805,-2.793400287628174,1.2678804397583008,2.949999999999981
-0.830148458480835,-2.2784056663513184,1.5690760612487793,2.959999999999981
-0.9334850907325745,-1.7367305755615234,1.7757887840270996,2.9699999999999807
-0.9046355485916138,-1.0867748260498047,1.9185123443603516,2.9799999999999804
-0.6258670091629028,-0.5480966567993164,1.962531328201294,2.9899999999999802
0.3598855137825012,0.025842666625976562,1.8943426609039307,2.99999999999998
1.1715219020843506,0.6711835861206055,1.780195951461792,3.00999999999998
2.2199766635894775,1.4426803588867188,1.7611396312713623,3.0199999999999796
2.810185432434082,2.433450698852539,1.6668813228607178,3.0299999999999794
2.9156715869903564,3.6981468200683594,1.992577314376831,3.039999999999979
2.6038947105407715,5.0140533447265625,2.6825690269470215,3.049999999999979
1.8143823146820068,6.04638671875,3.54468035697937,3.0599999999999787
1.0993566513061523,6.317049980163574,4.569220066070557,3.0699999999999785
0.5099591016769409,5.967263221740723,5.783902168273926,3.0799999999999783
0.09432625770568848,5.355445861816406,6.875124931335449,3.089999999999978
-0.19999682903289795,4.8166399002075195,7.364781379699707,3.099999999999978
-0.1906237006187439,4.366971015930176,6.514941692352295,3.1099999999999777
0.004781961441040039,3.9135332107543945,4.5784735679626465,3.1199999999999775
0.04074966907501221,3.8599796295166016,2.5035433769226074,3.1299999999999772
-0.5854593515396118,5.296003341674805,2.4265716075897217,3.139999999999977
-1.0146898031234741,7.357535362243652,3.104586601257324,3.149999999999977
-1.4235999584197998,9.499588966369629,2.031619071960449,3.1599999999999766
-1.7477092742919922,11.014102935791016,-0.22843647003173828,3.1699999999999764
-2.0542328357696533,11.90853500366211,-1.792888879776001,3.179999999999976
-1.7731120586395264,11.59067440032959,-2.6247787475585938,3.189999999999976
-1.9332106113433838,9.567052841186523,-3.5773682594299316,3.1999999999999758
-2.765427589416504,6.830641746520996,-4.612402439117432,3.2099999999999755
-4.560271739959717,4.38979434967041,-4.892662048339844,3.2199999999999753
-6.56633186340332,2.6947240829467773,-4.460654258728027,3.229999999999975
-7.565515518188477,1.3871498107910156,-3.598574161529541,3.239999999999975
-7.40692663192749,0.2993936538696289,-2.642585277557373,3.2499999999999747
-6.969777584075928,0.3038444519042969,-0.6595282554626465,3.2599999999999745
-5.703813552856445,0.5550546646118164,0.3487119674682617,3.2699999999999743
-3.6720285415649414,0.6218137741088867,0.5431699752807617,3.279999999999974
-1.8856433629989624,0.4331808090209961,0.2165508270263672,3.289999999999974
-1.2319092750549316,-0.0754690170288086,-0.6768829822540283,3.2999999999999736
-1.2659337520599365,-0.8999643325805664,-1.8233997821807861,3.3099999999999734
-1.3941534757614136,-1.6817550659179688,-2.9757096767425537,3.319999999999973
-1.450569987297058,-1.9481568336486816,-3.7528328895568848,3.329999999999973
-1.212308645248413,-1.5398774147033691,-4.119420528411865,3.3399999999999728
-0.8070687055587769,-0.7052717208862305,-4.219482421875,3.3499999999999726
-0.22565707564353943,0.14173603057861328,-4.223283290863037,3.3599999999999723
0.7214009761810303,0.8621435165405273,-4.158545017242432,3.369999999999972
1.5739089250564575,1.470017433166504,-4.081350803375244,3.379999999999972
2.274052143096924,1.7786264419555664,-3.9616832733154297,3.3899999999999717
2.441330909729004,1.7141942977905273,-3.9830586910247803,3.3999999999999715
2.516148805618286,1.366002082824707,-4.0594401359558105,3.4099999999999713
2.4521141052246094,0.9669685363769531,-4.254210948944092,3.419999999999971
2.2885398864746094,0.4652881622314453,-4.605363845825195,3.429999999999971
1.974105954170227,0.06042671203613281,-4.860018730163574,3.4399999999999706
1.4614338874816895,-0.23252010345458984,-4.961950778961182,3.4499999999999704
0.8544414043426514,-0.4416675567626953,-4.79708194732666,3.45999999999997
0.31260502338409424,-0.5214147567749023,-4.137476921081543,3.46999999999997
-0.12535691261291504,-0.5750246047973633,-3.1096909046173096,3.47999999999997
-0.4328601360321045,-0.6222801208496094,-1.9679553508758545,3.4899999999999696
-0.5301147103309631,-0.7977190017700195,-1.0928479433059692,3.4999999999999694
-0.6362771987915039,-1.0465984344482422,-0.5254156589508057,3.509999999999969
-0.6158878803253174,-1.2974348068237305,-0.2303917407989502,3.519999999999969
-0.5245168805122375,-1.7081565856933594,-0.12074875831604004,3.5299999999999687
-0.5302928686141968,-2.142136573791504,-0.2728571891784668,3.5399999999999685
-0.516096830368042,-2.5465798377990723,-0.5122358798980713,3.5499999999999683
-0.4266374111175537,-2.830615997314453,-0.7768099308013916,3.559999999999968
-0.31398266553878784,-3.0302176475524902,-1.169753909111023,3.569999999999968
-0.19378876686096191,-3.1550493240356445,-1.6005432605743408,3.5799999999999677
-0.15376543998718262,-3.0163626670837402,-1.86367928981781,3.5899999999999674
-0.2557638883590698,-2.7747278213500977,-2.1052403450012207,3.5999999999999672
-0.224700927734375,-2.540292739868164,-2.327516794204712,3.609999999999967
-0.2090442180633545,-2.23415470123291,-2.4061496257781982,3.619999999999967
-0.07752549648284912,-1.8060264587402344,-2.547548770904541,3.6299999999999666
-0.11515951156616211,-1.4089899063110352,-2.53916072845459,3.6399999999999664
-0.20499849319458008,-1.0381689071655273,-2.2736778259277344,3.649999999999966
-0.24901461601257324,-0.7341985702514648,-2.019200325012207,3.659999999999966
-0.30942797660827637,-0.48029327392578125,-1.7206711769104004,3.6699999999999657
-0.29524946212768555,-0.3386993408203125,-1.3895704746246338,3.6799999999999655
-0.31904298067092896,-0.26872730255126953,-1.2071361541748047,3.6899999999999653
-0.34760165214538574,-0.3444404602050781,-1.134567379951477,3.699999999999965
-0.2852252721786499,-0.515477180480957,-1.0758715867996216,3.709999999999965
-0.18423664569854736,-0.5473737716674805,-1.0720694065093994,3.7199999999999647
-0.16677343845367432,-0.7511014938354492,-1.008456826210022,3.7299999999999645
0.05911886692047119,-0.9685964584350586,-0.8161337375640869,3.7399999999999642
0.19935035705566406,-1.063614845275879,-0.6218535900115967,3.749999999999964
0.3829953670501709,-1.158233642578125,-0.37784385681152344,3.759999999999964
0.6914607286453247,-1.312159538269043,-0.18771302700042725,3.7699999999999636
0.7058484554290771,-1.290898323059082,-0.05906212329864502,3.7799999999999634
0.7233543395996094,-1.257314682006836,-0.09958946704864502,3.789999999999963
0.7898721694946289,-1.2306489944458008,-0.24927514791488647,3.799999999999963
0.8144227266311646,-1.1224231719970703,-0.4507048726081848,3.8099999999999627
0.8615016937255859,-1.1192626953125,-0.5722578167915344,3.8199999999999625
0.8301912546157837,-0.9412689208984375,-0.7069535851478577,3.8299999999999623
0.8377412557601929,-0.7919960021972656,-0.7727946639060974,3.839999999999962
0.8195706605911255,-0.7002277374267578,-0.6037629246711731,3.849999999999962
0.7015576362609863,-0.6826972961425781,-0.44326454401016235,3.8599999999999617
0.62027907371521,-0.7393016815185547,-0.3966336250305176,3.8699999999999615
0.544582724571228,-0.7598781585693359,-0.38075727224349976,3.8799999999999613
0.613070011138916,-0.8089914321899414,-0.28589093685150146,3.889999999999961
0.6889634132385254,-0.8339710235595703,-0.1597738265991211,3.899999999999961
0.7719564437866211,-0.9017810821533203,-0.07377886772155762,3.9099999999999606
0.8331873416900635,-0.9884529113769531,0.0012199878692626953,3.9199999999999604
0.7985906600952148,-0.9983301162719727,0.015376091003417969,3.92999999999996
0.7499662637710571,-0.9626560211181641,0.07931667566299438,3.93999999999996
0.6664737462997437,-0.9365634918212891,0.11444979906082153,3.9499999999999598
0.4985538721084595,-0.9152965545654297,0.1087501049041748,3.9599999999999596
0.3447796106338501,-0.9155759811401367,0.04498550295829773,3.9699999999999593
0.22464871406555176,-0.913456916809082,-0.05118834972381592,3.979999999999959
0.12190568447113037,-0.8515701293945312,-0.0778166651725769,3.989999999999959
-0.04461801052093506,-0.7538909912109375,-0.08121153712272644,3.9999999999999587
-0.16010832786560059,-0.7256546020507812,0.002544194459915161,4.009999999999959
-0.23175090551376343,-0.5420169830322266,0.17798283696174622,4.019999999999959
-0.25966376066207886,-0.4279327392578125,0.3924521505832672,4.0299999999999585
-0.32778871059417725,-0.28525733947753906,0.52620929479599,4.039999999999958
-0.3166084885597229,-0.07336616516113281,0.6461479663848877,4.049999999999958
-0.33186084032058716,0.23639202117919922,0.6969682574272156,4.059999999999958
-0.3284881114959717,0.5793628692626953,0.654334306716919,4.069999999999958
-0.19198620319366455,0.8790063858032227,0.6787124872207642,4.079999999999957
-0.054582834243774414,1.1497726440429688,0.8348890542984009,4.089999999999957
-0.005600869655609131,1.3415603637695312,0.9150390625,4.099999999999957
0.08333474397659302,1.5334415435791016,1.0509207248687744,4.109999999999957
0.21381086111068726,1.8019533157348633,0.9622805118560791,4.119999999999957
0.35676658153533936,1.9891653060913086,0.9264557361602783,4.129999999999956
0.4352205991744995,1.9708433151245117,1.0487391948699951,4.139999999999956
0.5758590698242188,1.9504461288452148,1.0657949447631836,4.149999999999956
0.7979147434234619,1.858591079711914,1.0855895280838013,4.159999999999956
1.063204050064087,1.7264118194580078,1.1824264526367188,4.1699999999999555
1.2978626489639282,1.5849905014038086,1.1936588287353516,4.179999999999955
1.571613073348999,1.3912458419799805,1.16713547706604,4.189999999999955
1.8341851234436035,1.2671737670898438,1.1794843673706055,4.199999999999955
2.143232822418213,1.234175682067871,1.1996967792510986,4.209999999999955
2.2906651496887207,1.2371273040771484,1.25171959400177,4.2199999999999545
2.4344656467437744,1.3285799026489258,1.314016342163086,4.229999999999954
2.646448850631714,1.3506059646606445,1.4226949214935303,4.239999999999954
2.8716516494750977,1.5208473205566406,1.4530909061431885,4.249999999999954
2.9617631435394287,1.7314863204956055,1.4575252532958984,4.259999999999954
3.045944929122925,1.8030977249145508,1.3804545402526855,4.269999999999953
3.164808750152588,1.8960304260253906,1.3340187072753906,4.279999999999953
3.093705654144287,1.8285350799560547,1.4715092182159424,4.289999999999953
3.0075478553771973,1.6534194946289062,1.6302671432495117,4.299999999999953
2.963834524154663,1.5859699249267578,1.570556402206421,4.3099999999999525
2.83316969871521,1.5399284362792969,1.4686861038208008,4.319999999999952
2.602813482284546,1.6611204147338867,1.2425800561904907,4.329999999999952
2.4731767177581787,1.9924087524414062,1.0667191743850708,4.339999999999952
2.4460701942443848,2.3351364135742188,1.0610275268554688,4.349999999999952
2.4132637977600098,2.9117231369018555,0.9026013612747192,4.3599999999999515
2.460695743560791,3.473245620727539,0.7542661428451538,4.369999999999951
2.5117413997650146,3.7160987854003906,0.6948810815811157,4.379999999999951
2.6072630882263184,3.6957101821899414,0.6069676280021667,4.389999999999951
2.7406115531921387,3.4148216247558594,0.48299482464790344,4.399999999999951
2.7616772651672363,2.809213638305664,0.13079452514648438,4.40999999999995
2.8721015453338623,2.233212471008301,-0.33785825967788696,4.41999999999995
2.8922200202941895,1.823197364807129,-0.7751245498657227,4.42999999999995
2.9369025230407715,1.6365184783935547,-0.8930163383483887,4.43999999999995
2.8818535804748535,1.2832956314086914,-1.0400453805923462,4.4499999999999496
2.742016077041626,1.136850357055664,-1.3378747701644897,4.459999999999949
2.2927308082580566,1.0225095748901367,-1.8755236864089966,4.469999999999949
1.7786474227905273,0.7347326278686523,-2.39951229095459,4.479999999999949
1.1624726057052612,0.3838310241699219,-2.881230592727661,4.489999999999949
0.4716535806655884,0.13258743286132812,-3.189404249191284,4.4999999999999485
-0.19644653797149658,0.004803657531738281,-3.2467637062072754,4.509999999999948
-0.9094716310501099,-0.04993915557861328,-3.1073803901672363,4.519999999999948
-1.6420230865478516,-0.09876823425292969,-2.863346576690674,4.529999999999948
-2.2613866329193115,-0.25658607482910156,-2.5684399604797363,4.539999999999948
-2.795692205429077,-0.3727598190307617,-2.2283663749694824,4.549999999999947
-3.2431788444519043,-0.4738626480102539,-1.7616477012634277,4.559999999999947
-3.5751240253448486,-0.607945442199707,-1.3067327737808228,4.569999999999947
-3.72483229637146,-0.6914386749267578,-0.8955568075180054,4.579999999999947
-3.4649970531463623,-0.65264892578125,-0.492745578289032,4.589999999999947
-3.088855743408203,-0.513087272644043,-0.10974752902984619,4.599999999999946
-2.740938425064087,-0.26306629180908203,0.2633976936340332,4.609999999999946
-2.426772117614746,0.08792781829833984,0.6300621032714844,4.619999999999946
-2.278287410736084,0.5041828155517578,0.8044748306274414,4.629999999999946
-2.074706792831421,0.8856487274169922,0.7699402570724487,4.6399999999999455
-2.059296131134033,1.1515178680419922,0.6753145456314087,4.649999999999945
-2.0686049461364746,1.3667325973510742,0.5966587066650391,4.659999999999945
-2.178097724914551,1.5385847091674805,0.4625692367553711,4.669999999999945
-2.3270297050476074,1.7459144592285156,0.19296669960021973,4.679999999999945
-2.423414468765259,1.904764175415039,-0.1938920021057129,4.689999999999944
-2.3966758251190186,1.95037841796875,-0.7301491498947144,4.699999999999944
-2.2198212146759033,2.014267921447754,-1.3671048879623413,4.709999999999944
-2.08276104927063,2.05074405670166,-1.976698637008667,4.719999999999944
-1.761685848236084,2.0332508087158203,-2.447783946990967,4.729999999999944
-1.403983235359192,1.8879423141479492,-2.814605712890625,4.739999999999943
-0.8530255556106567,1.5625391006469727,-2.6640470027923584,4.749999999999943
-0.49303877353668213,1.0070114135742188,-2.17580509185791,4.759999999999943
-0.18366402387619019,0.48184871673583984,-1.5235698223114014,4.769999999999943
0.014525383710861206,-0.2168426513671875,-0.8040175437927246,4.7799999999999425
0.20357859134674072,-1.0081205368041992,-0.21442747116088867,4.789999999999942
0.18655601143836975,-1.4497418403625488,-0.01268458366394043,4.799999999999942
0.14247554540634155,-1.7670011520385742,-0.15305876731872559,4.809999999999942
0.07842746376991272,-2.0032687187194824,-0.5011932849884033,4.819999999999942
0.04302114248275757,-2.199528694152832,-0.8725790977478027,4.8299999999999415
-0.007975071668624878,-2.1505417823791504,-1.1281349658966064,4.839999999999941
-0.1525977998971939,-2.139124870300293,-1.387136459350586,4.849999999999941
-0.13863036036491394,-2.335407257080078,-1.5462744235992432,4.859999999999941
-0.12070190906524658,-2.5838561058044434,-1.746835470199585,4.869999999999941
-0.07607956230640411,-2.8173861503601074,-2.077786684036255,4.87999999999994
-0.21166402101516724,-3.413745880126953,-2.381650447845459,4.88999999999994
-0.23779155313968658,-3.968451499938965,-2.529435634613037,4.89999999999994
-0.23519113659858704,-4.586919784545898,-2.566704750061035,4.90999999999994
-0.27247944474220276,-5.362306118011475,-2.6158201694488525,4.9199999999999395
-0.34481215476989746,-5.804200172424316,-2.6315629482269287,4.929999999999939
-0.5554986000061035,-5.932139873504639,-2.4538650512695312,4.939999999999939
-0.651206374168396,-5.6771931648254395,-2.231252908706665,4.949999999999939
-0.7693420648574829,-4.984903335571289,-1.9182360172271729,4.959999999999939
-0.7457711696624756,-4.334228038787842,-1.6269302368164062,4.9699999999999385
-0.7511192560195923,-3.8447775840759277,-1.3953571319580078,4.979999999999938
-0.8263434171676636,-3.6358728408813477,-1.2880728244781494,4.989999999999938
-0.9167405962944031,-3.549374580383301,-1.2044332027435303,4.999999999999938
-0.9291824102401733,-3.604198932647705,-1.1373355388641357,5.009999999999938
-1.0073593854904175,-3.6971912384033203,-1.0774753093719482,5.019999999999937
-1.0460094213485718,-3.8258090019226074,-1.0058660507202148,5.029999999999937
-1.138525128364563,-3.989924907684326,-0.9441378116607666,5.039999999999937
-1.1606395244598389,-4.15355110168457,-0.8660402297973633,5.049999999999937
-1.2345607280731201,-4.309464454650879,-0.7620189189910889,5.0599999999999365
-1.2646318674087524,-4.491123199462891,-0.6368236541748047,5.069999999999936
-1.3848843574523926,-4.684049606323242,-0.5240159034729004,5.079999999999936
-1.4779698848724365,-4.797276496887207,-0.35666799545288086,5.089999999999936
-1.7043468952178955,-4.830697536468506,-0.26421594619750977,5.099999999999936
-1.8414067029953003,-4.808163642883301,-0.07457637786865234,5.1099999999999355
-2.0542800426483154,-4.641104221343994,0.13065576553344727,5.119999999999935
-2.1277031898498535,-4.451467990875244,0.41582465171813965,5.129999999999935
-2.214951753616333,-4.179292678833008,0.770991325378418,5.139999999999935
-2.1242470741271973,-3.8841938972473145,1.1023547649383545,5.149999999999935
-2.221282958984375,-3.376917839050293,1.4330840110778809,5.159999999999934
-2.179696798324585,-2.774467945098877,1.836294174194336,5.169999999999934
-2.0819356441497803,-2.1073946952819824,1.8893263339996338,5.179999999999934
-1.8788717985153198,-1.4704761505126953,1.5517165660858154,5.189999999999934
-1.4436129331588745,-0.8142833709716797,0.822023868560791,5.199999999999934
-0.901077389717102,0.0069446563720703125,-0.2913968563079834,5.209999999999933
0.021920382976531982,1.1912765502929688,-0.8740289211273193,5.219999999999933
1.2522468566894531,3.0573129653930664,-0.3011476993560791,5.229999999999933
2.561601161956787,5.601161003112793,2.0922930240631104,5.239999999999933
3.043543577194214,8.57809829711914,6.263509750366211,5.2499999999999325
2.190002202987671,10.493060111999512,10.840890884399414,5.259999999999932
1.525528907775879,10.685367584228516,13.14472770690918,5.269999999999932
0.8806591033935547,10.384322166442871,13.225699424743652,5.279999999999932
0.15042132139205933,10.118441581726074,10.946053504943848,5.289999999999932
0.41429805755615234,9.185550689697266,8.014495849609375,5.299999999999931
1.3465430736541748,6.576418876647949,6.2275896072387695,5.309999999999931
2.3869495391845703,1.6424016952514648,5.172674179077148,5.319999999999931
3.3080151081085205,-4.4762091636657715,3.803474187850952,5.329999999999931
2.6008448600769043,-8.504216194152832,1.9128937721252441,5.339999999999931
0.9121621251106262,-8.47818374633789,0.45377683639526367,5.34999999999993
0.20600831508636475,-5.199763298034668,-0.9117438793182373,5.35999999999993
0.3470080494880676,-1.1060152053833008,-3.1869874000549316,5.36999999999993
0.5186677575111389,3.006911277770996,-5.77198600769043,5.37999999999993
0.39345747232437134,6.706459999084473,-7.351882457733154,5.3899999999999295
-0.30987223982810974,9.006643295288086,-8.108407020568848,5.399999999999929
-1.7070066928863525,10.151817321777344,-7.559333324432373,5.409999999999929
-3.2317705154418945,10.261767387390137,-5.952109336853027,5.419999999999929
-4.314456462860107,9.29908275604248,-3.720419406890869,5.429999999999929
-4.528261184692383,7.4020795822143555,-1.6252648830413818,5.4399999999999284
-4.073835372924805,5.840537071228027,-0.8081886768341064,5.449999999999928
-4.289467811584473,5.7690534591674805,-1.9281480312347412,5.459999999999928
-4.900426864624023,7.21842098236084,-3.0030713081359863,5.469999999999928
-4.715641975402832,9.070112228393555,-2.5061559677124023,5.479999999999928
-4.1067376136779785,9.553035736083984,-0.686439037322998,5.489999999999927
-3.0186736583709717,7.915335655212402,1.8580999374389648,5.499999999999927
-1.9811639785766602,4.804261207580566,3.2962427139282227,5.509999999999927
-1.0774033069610596,1.2884244918823242,1.646106243133545,5.519999999999927
-0.8410365581512451,-1.3510346412658691,-1.4087331295013428,5.5299999999999265
-0.8202148675918579,-2.351881980895996,-3.608452320098877,5.539999999999926
-1.098268985748291,-1.935713291168213,-4.94091272354126,5.549999999999926
-1.4224549531936646,-1.1253509521484375,-5.539186000823975,5.559999999999926
-1.5425611734390259,-0.4241752624511719,-5.661742210388184,5.569999999999926
-1.3606131076812744,0.15941333770751953,-5.412443161010742,5.5799999999999255
-0.9561618566513062,0.5855655670166016,-5.011054039001465,5.589999999999925
-0.573765218257904,0.7688198089599609,-4.712061405181885,5.599999999999925
-0.19313368201255798,0.7452640533447266,-4.483702182769775,5.609999999999925
0.2136409878730774,0.4859886169433594,-4.307645797729492,5.619999999999925
0.42175304889678955,2.2029876708984375E-4,-4.2584686279296875,5.629999999999924
0.3867931365966797,-0.5929279327392578,-4.159358978271484,5.639999999999924
0.10594308376312256,-1.3225727081298828,-4.1163177490234375,5.649999999999924
-0.23570317029953003,-1.9760527610778809,-4.168972969055176,5.659999999999924
-0.660773515701294,-2.333458423614502,-4.133080005645752,5.6699999999999235
-1.0435330867767334,-2.4090662002563477,-4.033802032470703,5.679999999999923
-1.3804839849472046,-1.9873695373535156,-3.758286714553833,5.689999999999923
-1.4584513902664185,-1.3195819854736328,-3.2794129848480225,5.699999999999923
-1.3984158039093018,-0.3293418884277344,-2.6526503562927246,5.709999999999923
-1.111616611480713,0.4735383987426758,-1.939616322517395,5.7199999999999225
-0.856065034866333,0.9744186401367188,-1.4073997735977173,5.729999999999922
-0.6015762090682983,1.2095985412597656,-1.1965886354446411,5.739999999999922
-0.2760557234287262,1.0623750686645508,-1.1324405670166016,5.749999999999922
0.13602769374847412,0.6865024566650391,-1.2180299758911133,5.759999999999922
0.39172494411468506,0.3264789581298828,-1.3348045349121094,5.769999999999921
0.6236605048179626,-0.09868431091308594,-1.4625688791275024,5.779999999999921
0.8136323094367981,-0.5122480392456055,-1.523303508758545,5.789999999999921
0.9838974475860596,-0.8568878173828125,-1.5244836807250977,5.799999999999921
1.006260871887207,-1.2310810089111328,-1.4701905250549316,5.809999999999921
0.9989533424377441,-1.6184372901916504,-1.522140622138977,5.81999999999992
0.8097919225692749,-1.9881582260131836,-1.6914559602737427,5.82999999999992
0.7986840009689331,-2.5102343559265137,-1.8964970111846924,5.83999999999992
0.49734294414520264,-2.837824821472168,-2.1948320865631104,5.84999999999992
0.25310707092285156,-3.023805618286133,-2.3067984580993652,5.8599999999999195
0.17826712131500244,-3.163984775543213,-2.25441837310791,5.869999999999919
0.1841261386871338,-3.074395179748535,-2.006601333618164,5.879999999999919
0.2030811309814453,-2.944230079650879,-1.6303311586380005,5.889999999999919
0.2012413740158081,-2.6730270385742188,-1.2934659719467163,5.899999999999919
0.25741076469421387,-2.2608418464660645,-1.0779510736465454,5.909999999999918
0.19220590591430664,-1.6742472648620605,-1.0945065021514893,5.919999999999918
0.1707857847213745,-1.2935304641723633,-1.1596379280090332,5.929999999999918
0.08281517028808594,-0.8314580917358398,-1.1660401821136475,5.939999999999918
0.025854110717773438,-0.3263969421386719,-1.1686238050460815,5.949999999999918
-0.0056351423263549805,0.01351165771484375,-1.1069555282592773,5.959999999999917
0.07145452499389648,0.13575363159179688,-0.939520001411438,5.969999999999917
0.19888246059417725,0.11227798461914062,-0.6919584274291992,5.979999999999917
0.3354600667953491,0.014986991882324219,-0.46916961669921875,5.989999999999917
0.5287448167800903,-0.17990875244140625,-0.2878824472427368,5.9999999999999165
0.6875127553939819,-0.3646984100341797,-0.05929970741271973,6.009999999999916
0.9718868732452393,-0.7163591384887695,0.16413497924804688,6.019999999999916
1.0536389350891113,-0.9237709045410156,0.45172417163848877,6.029999999999916
1.1220999956130981,-1.125844955444336,0.7150981426239014,6.039999999999916
1.122442364692688,-1.3943634033203125,0.8468340635299683,6.0499999999999154
1.145711898803711,-1.6623239517211914,0.7396608591079712,6.059999999999915
1.1943345069885254,-1.771960735321045,0.6118335723876953,6.069999999999915
1.3279540538787842,-1.757014274597168,0.5526132583618164,6.079999999999915
1.4483903646469116,-1.7563862800598145,0.5005110502243042,6.089999999999915
1.5584158897399902,-1.731849193572998,0.3697082996368408,6.099999999999914
1.6105297803878784,-1.575800895690918,0.0619274377822876,6.109999999999914
1.68874990940094,-1.4007797241210938,-0.1812083125114441,6.119999999999914
1.6596778631210327,-1.1184253692626953,-0.28514033555984497,6.129999999999914
1.6197506189346313,-0.9154462814331055,-0.24750137329101562,6.1399999999999135
1.5241258144378662,-0.7463111877441406,-0.29602640867233276,6.149999999999913
1.3255337476730347,-0.6252841949462891,-0.32394182682037354,6.159999999999913
1.182535171508789,-0.6598682403564453,-0.32550695538520813,6.169999999999913
1.038141131401062,-0.7805156707763672,-0.19671493768692017,6.179999999999913
0.7873151302337646,-0.8412628173828125,-0.06993693113327026,6.1899999999999125
0.5810176134109497,-0.8972234725952148,0.10489916801452637,6.199999999999912
0.41197800636291504,-0.9412612915039062,0.33996421098709106,6.209999999999912
0.19559752941131592,-1.212418556213379,0.6093152761459351,6.219999999999912
0.11580944061279297,-1.203481674194336,0.817501962184906,6.229999999999912
0.014326930046081543,-1.0677947998046875,0.9717248678207397,6.239999999999911
0.012845039367675781,-1.0039472579956055,1.10813570022583,6.249999999999911
-0.008637070655822754,-1.0094327926635742,1.234289526939392,6.259999999999911
0.019100546836853027,-0.96697998046875,1.2428348064422607,6.269999999999911
0.07214009761810303,-0.8575239181518555,1.220163345336914,6.2799999999999105
0.05934906005859375,-0.7145853042602539,1.104202151298523,6.28999999999991
0.14068949222564697,-0.49272632598876953,0.8994947671890259,6.29999999999991
0.17260897159576416,-0.2159576416015625,0.6895081400871277,6.30999999999991
0.14291346073150635,0.031996726989746094,0.684547483921051,6.31999999999991
0.05827796459197998,0.26557254791259766,0.6664604544639587,6.3299999999999095
-0.007032990455627441,0.4799785614013672,0.6897711753845215,6.339999999999909
-0.17531180381774902,0.7756738662719727,0.8618478178977966,6.349999999999909
-0.29148757457733154,1.035414695739746,1.0916762351989746,6.359999999999909
-0.3462967276573181,1.2233762741088867,1.3265380859375,6.369999999999909
-0.36350327730178833,1.3228578567504883,1.4898494482040405,6.379999999999908
-0.3288823962211609,1.3578567504882812,1.5887031555175781,6.389999999999908
-0.2427409291267395,1.3045291900634766,1.5726953744888306,6.399999999999908
0.019218742847442627,1.2060060501098633,1.64797043800354,6.409999999999908
0.35914456844329834,1.1173028945922852,1.7145625352859497,6.419999999999908
0.6597114205360413,1.076664924621582,1.6962932348251343,6.429999999999907
1.0380005836486816,1.0457820892333984,1.6317801475524902,6.439999999999907
1.4602465629577637,1.0820331573486328,1.4494431018829346,6.449999999999907
1.921812653541565,1.1566171646118164,1.2618250846862793,6.459999999999907
2.2864561080932617,1.2909812927246094,1.0544430017471313,6.4699999999999065
2.7339019775390625,1.446746826171875,0.9704279899597168,6.479999999999906
2.9530704021453857,1.4588804244995117,0.9661553502082825,6.489999999999906
3.1334714889526367,1.4231462478637695,1.0171480178833008,6.499999999999906
3.222947359085083,1.4901800155639648,1.2017786502838135,6.509999999999906
3.1833269596099854,1.5881004333496094,1.2947847843170166,6.519999999999905
3.138868570327759,1.6498985290527344,1.381990909576416,6.529999999999905
3.0700721740722656,1.7091102600097656,1.5015721321105957,6.539999999999905
3.103533983230591,1.7968101501464844,1.4930251836776733,6.549999999999905
3.1409082412719727,1.836451530456543,1.4162123203277588,6.559999999999905
3.1790831089019775,1.8902626037597656,1.048059344291687,6.569999999999904
3.0732765197753906,2.26190185546875,0.49995583295822144,6.579999999999904
2.9848875999450684,2.867349624633789,0.1853119432926178,6.589999999999904
2.819910764694214,3.4936046600341797,0.21207338571548462,6.599999999999904
2.671327590942383,4.1742095947265625,0.34146296977996826,6.6099999999999035
2.69712233543396,4.6198272705078125,0.3297334909439087,6.619999999999903
2.861726760864258,4.567767143249512,0.24889595806598663,6.629999999999903
3.0435867309570312,4.092818260192871,0.15638987720012665,6.639999999999903
3.166505813598633,3.573345184326172,-0.130315363407135,6.649999999999903
3.3601019382476807,3.1768321990966797,-0.6984851956367493,6.659999999999902
3.486764669418335,2.900777816772461,-1.369598627090454,6.669999999999902
3.2624874114990234,2.647130012512207,-1.9315589666366577,6.679999999999902
2.973313808441162,2.322732925415039,-2.305436372756958,6.689999999999902
2.577655076980591,2.049732208251953,-2.6708388328552246,6.699999999999902
1.7125532627105713,1.7541627883911133,-3.208466053009033,6.709999999999901
0.9559323191642761,1.412348747253418,-3.523879289627075,6.719999999999901
0.340690553188324,0.9933872222900391,-3.475367546081543,6.729999999999901
-0.399362713098526,0.6169862747192383,-3.2407760620117188,6.739999999999901
-1.2391812801361084,0.005707740783691406,-2.8843131065368652,6.7499999999999005
-1.9869626760482788,-0.37160491943359375,-2.4341273307800293,6.7599999999999
-2.740874767303467,-0.6995086669921875,-1.938188076019287,6.7699999999999
-3.276433229446411,-0.873082160949707,-1.2866419553756714,6.7799999999999
-3.568330764770508,-0.940587043762207,-0.7575588822364807,6.7899999999999
-3.7527952194213867,-0.7612695693969727,-0.26075708866119385,6.7999999999998995
-3.629103422164917,-0.4312610626220703,0.23837172985076904,6.809999999999899
-3.2596311569213867,0.0730447769165039,0.6300226449966431,6.819999999999899
-2.7347090244293213,0.579340934753418,0.848474383354187,6.829999999999899
-2.2449820041656494,1.047255516052246,0.8581981658935547,6.839999999999899
-1.8658061027526855,1.2954463958740234,0.9083489179611206,6.849999999999898
-1.4559892416000366,1.4225587844848633,0.8843436241149902,6.859999999999898
-1.2400634288787842,1.5438604354858398,0.8059523105621338,6.869999999999898
-1.2313950061798096,1.6165523529052734,0.6936910152435303,6.879999999999898
-1.330338954925537,1.6766271591186523,0.6166954040527344,6.8899999999998975
-1.4420413970947266,1.68096923828125,0.4940812587738037,6.899999999999897
-1.746625542640686,1.7656116485595703,0.3272411823272705,6.909999999999897
-2.003278970718384,1.8702449798583984,0.017338037490844727,6.919999999999897
-2.1393179893493652,1.9372577667236328,-0.575986385345459,6.929999999999897
-2.324490547180176,2.091228485107422,-1.3312245607376099,6.9399999999998965
-2.244724750518799,2.122007369995117,-2.1491246223449707,6.949999999999896
-1.9385287761688232,2.0397586822509766,-2.7726221084594727,6.959999999999896
-1.4525723457336426,1.8425092697143555,-3.051656723022461,6.969999999999896
-0.9538614153862,1.745457649230957,-2.9568588733673096,6.979999999999896
-0.3841705918312073,1.5112295150756836,-2.720979690551758,6.989999999999895
-0.13535818457603455,1.4264955520629883,-2.5459492206573486,6.999999999999895
0.2347518503665924,1.258976936340332,-2.2544145584106445,7.009999999999895
0.27864497900009155,0.8579273223876953,-1.8007007837295532,7.019999999999895
0.015140324831008911,0.20168113708496094,-1.2916181087493896,7.0299999999998946
-0.15327492356300354,-0.4638633728027344,-0.8094794750213623,7.039999999999894
-0.32692813873291016,-1.3522658348083496,-0.3623659610748291,7.049999999999894
-0.2924259901046753,-2.0069851875305176,-0.19121170043945312,7.059999999999894
-0.41554996371269226,-2.550352096557617,-0.47289204597473145,7.069999999999894
-0.453847199678421,-2.8606181144714355,-0.7887420654296875,7.0799999999998935
-0.3282541036605835,-2.914250373840332,-1.1054346561431885,7.089999999999893
-0.24255388975143433,-2.7712998390197754,-1.3109848499298096,7.099999999999893
-0.07724466919898987,-2.8647446632385254,-1.520693063735962,7.109999999999893
0.14378488063812256,-2.9862661361694336,-1.665440320968628,7.119999999999893
0.11914205551147461,-3.243448257446289,-1.8100125789642334,7.129999999999892
0.08704212307929993,-3.4543728828430176,-2.0144996643066406,7.139999999999892
0.058079808950424194,-3.853475570678711,-2.125926971435547,7.149999999999892
-0.03383958339691162,-4.270827293395996,-2.1683714389801025,7.159999999999892
-0.09270352125167847,-4.71112060546875,-2.158931255340576,7.169999999999892
-0.19723054766654968,-5.136028289794922,-2.1337320804595947,7.179999999999891
-0.4457243084907532,-5.3663554191589355,-2.059129476547241,7.189999999999891
-0.6992795467376709,-5.457551956176758,-1.908536672592163,7.199999999999891
-0.9608412981033325,-5.345353126525879,-1.7152888774871826,7.209999999999891
-1.0730153322219849,-5.178301811218262,-1.6037020683288574,7.2199999999998905
-1.2326010465621948,-5.083348751068115,-1.4944446086883545,7.22999999999989
-1.4211530685424805,-4.854892253875732,-1.3728699684143066,7.23999999999989
-1.4719245433807373,-4.758468151092529,-1.274869441986084,7.24999999999989
-1.5506274700164795,-4.772292137145996,-1.1646673679351807,7.25999999999989
-1.728871464729309,-4.927276134490967,-1.0733733177185059,7.269999999999889
-1.8082557916641235,-5.118023872375488,-0.967411994934082,7.279999999999889
-1.7915600538253784,-5.215368747711182,-0.8371090888977051,7.289999999999889
-1.774461030960083,-5.36519193649292,-0.7423326969146729,7.299999999999889
-1.7422268390655518,-5.452536106109619,-0.5348992347717285,7.309999999999889
-1.6898977756500244,-5.57784366607666,-0.30577898025512695,7.319999999999888
-1.6270912885665894,-5.578381538391113,-0.09323310852050781,7.329999999999888
-1.4893798828125,-5.5618181228637695,0.11477327346801758,7.339999999999888
-1.2649039030075073,-5.504145622253418,0.29195070266723633,7.349999999999888
-1.0757077932357788,-5.40756368637085,0.3783130645751953,7.3599999999998875
-0.8548105955123901,-5.221574306488037,0.4213442802429199,7.369999999999887
-0.6041408777236938,-4.950623035430908,0.446605920791626,7.379999999999887
-0.581231415271759,-4.546253681182861,0.37362003326416016,7.389999999999887
-0.6216562986373901,-3.996216297149658,0.44522619247436523,7.399999999999887
-0.5707916617393494,-3.4676694869995117,0.7318143844604492,7.4099999999998865
-0.48849231004714966,-2.8713326454162598,0.745640754699707,7.419999999999886
-0.22552111744880676,-2.1893301010131836,0.18220210075378418,7.429999999999886
0.04211997985839844,-1.3985905647277832,-0.9891328811645508,7.439999999999886
0.4056342840194702,-0.16988658905029297,-2.1801586151123047,7.449999999999886
0.5219210386276245,1.4283199310302734,-2.8118999004364014,7.459999999999885
0.7577964663505554,4.0898284912109375,-2.3113532066345215,7.469999999999885
0.9149062633514404,7.3277082443237305,-0.23161888122558594,7.479999999999885
0.7181020975112915,11.02944278717041,3.7856099605560303,7.489999999999885
-0.5231046676635742,13.821022987365723,9.078920364379883,7.4999999999998845
-1.3866181373596191,13.906530380249023,13.098464965820312,7.509999999999884
-1.2265899181365967,12.62126350402832,13.945098876953125,7.519999999999884
-0.9499332904815674,11.380308151245117,12.165956497192383,7.529999999999884
-0.42202305793762207,9.798260688781738,10.209283828735352,7.539999999999884
-0.21495497226715088,7.105993270874023,8.721014022827148,7.5499999999998835
0.5686934590339661,2.8273839950561523,7.382020950317383,7.559999999999883
1.7754305601119995,-2.026581287384033,5.686567306518555,7.569999999999883
2.6072728633880615,-5.598790168762207,3.262535333633423,7.579999999999883
1.92941415309906,-4.977137565612793,0.9843471050262451,7.589999999999883
0.6889960765838623,-0.9780740737915039,-0.173842191696167,7.599999999999882
0.08825278282165527,3.3186254501342773,-1.250030755996704,7.609999999999882
0.03287100791931152,6.832183837890625,-3.6853036880493164,7.619999999999882
0.2620874047279358,9.403021812438965,-5.140589714050293,7.629999999999882
-0.6445674896240234,10.602178573608398,-6.161334991455078,7.6399999999998816
-1.8110488653182983,10.33385181427002,-6.648122787475586,7.649999999999881
-3.077705144882202,8.83755874633789,-6.600333213806152,7.659999999999881
-4.266296863555908,7.098045349121094,-5.547504425048828,7.669999999999881
-4.391747951507568,5.440047264099121,-3.151050090789795,7.679999999999881
-3.9825947284698486,4.055943489074707,0.17615795135498047,7.6899999999998805
-3.6490142345428467,3.352473258972168,2.5845956802368164,7.69999999999988
-3.0749611854553223,3.00687313079834,2.913651943206787,7.70999999999988
-1.9261116981506348,2.1026649475097656,2.1708016395568848,7.71999999999988
-1.0663169622421265,0.6762504577636719,0.23467159271240234,7.72999999999988
-1.533850908279419,-0.6713991165161133,-2.0522611141204834,7.739999999999879
-2.3367209434509277,-1.7800812721252441,-3.9760332107543945,7.749999999999879
-2.890392303466797,-2.700305461883545,-4.8929762840271,7.759999999999879
-2.7339258193969727,-2.395752429962158,-4.286998748779297,7.769999999999879
-2.5198919773101807,-1.381148338317871,-3.205655097961426,7.779999999999879
-2.1523985862731934,-0.2442913055419922,-2.3863775730133057,7.789999999999878
-1.5597693920135498,0.9830436706542969,-2.2783634662628174,7.799999999999878
-0.34834882616996765,2.091366767883301,-2.4725213050842285,7.809999999999878
1.3857359886169434,2.940654754638672,-2.555593490600586,7.819999999999878
2.7105562686920166,3.2431068420410156,-2.7825815677642822,7.8299999999998775
2.910968065261841,2.924941062927246,-3.6275908946990967,7.839999999999877
2.358992099761963,2.2239675521850586,-4.496831893920898,7.849999999999877
2.0519909858703613,1.170069694519043,-4.915759563446045,7.859999999999877
1.6017316579818726,0.1502704620361328,-5.240316390991211,7.869999999999877
1.1298025846481323,-0.3027992248535156,-5.399155616760254,7.879999999999876
0.5981464385986328,-0.40621471405029297,-5.49476432800293,7.889999999999876
0.023937582969665527,-0.3681602478027344,-5.402688026428223,7.899999999999876
-0.6263801455497742,-0.40212345123291016,-4.996421813964844,7.909999999999876
-1.3280752897262573,-0.5660867691040039,-4.258491039276123,7.919999999999876
-1.9169384241104126,-0.7721242904663086,-3.3236043453216553,7.929999999999875
-2.266155242919922,-1.0110349655151367,-2.436429977416992,7.939999999999875
-2.3255696296691895,-1.1920757293701172,-1.715221643447876,7.949999999999875
-2.2168521881103516,-1.3559465408325195,-1.1567612886428833,7.959999999999875
-2.011310577392578,-1.6244258880615234,-0.717705488204956,7.9699999999998745
-1.859152913093567,-1.9348869323730469,-0.5465099811553955,7.979999999999874
-1.270673155784607,-2.193894863128662,-0.456540584564209,7.989999999999874
-0.7650822997093201,-2.3752260208129883,-0.42139482498168945,7.999999999999874
