AccX,AccY,AccZ,SampleRate
3.7416179180145264,9.79794979095459,3.1875600814819336,0
2.8954365253448486,13.93016529083252,6.915501594543457,0.01
0.49266356229782104,16.253570556640625,11.108840942382812,0.02
0.38161706924438477,15.03807258605957,12.638169288635254,0.03
0.925686776638031,13.093552589416504,11.502264022827148,0.04
1.404665470123291,11.187952995300293,9.463571548461914,0.05
1.1683268547058105,7.968540191650391,7.728004455566406,0.060000000000000005
0.9162659645080566,3.571011543273926,6.033242225646973,0.07
1.662081241607666,-0.9219341278076172,4.054493427276611,0.08
2.35939359664917,-4.466163158416748,1.5975489616394043,0.09
2.017019748687744,-4.619915008544922,-0.14637422561645508,0.09999999999999999
0.746281087398529,-1.3861908912658691,-1.6259427070617676,0.10999999999999999
-0.36909860372543335,2.693084716796875,-3.356524705886841,0.11999999999999998
-0.5510914325714111,6.398341178894043,-5.47166109085083,0.12999999999999998
-1.1040533781051636,9.448018074035645,-6.935005187988281,0.13999999999999999
-2.354222297668457,11.028634071350098,-7.535518646240234,0.15
-3.484006643295288,10.914909362792969,-7.525943756103516,0.16
-5.170942783355713,8.923822402954102,-7.153651237487793,0.17
-8.095479011535645,6.391419410705566,-6.237549781799316,0.18000000000000002
-9.810928344726562,4.359925270080566,-4.841338634490967,0.19000000000000003
-9.998047828674316,2.978801727294922,-3.834350109100342,0.20000000000000004
-9.196834564208984,2.599569320678711,-2.8892722129821777,0.21000000000000005
-7.333540916442871,3.7034387588500977,-0.7506835460662842,0.22000000000000006
-5.260427951812744,5.202252388000488,0.6798996925354004,0.23000000000000007
-3.1381874084472656,5.214286804199219,1.44685697555542,0.24000000000000007
-1.766615390777588,3.4484424591064453,1.675706386566162,0.25000000000000006
-1.2806965112686157,1.3439388275146484,-0.2595529556274414,0.26000000000000006
-1.1226069927215576,0.05461597442626953,-3.1154847145080566,0.2700000000000001
-1.3222768306732178,-0.420623779296875,-4.688970565795898,0.2800000000000001
-1.5664461851119995,-0.4513359069824219,-5.318744659423828,0.2900000000000001
-1.4560706615447998,-0.19693946838378906,-5.382370948791504,0.3000000000000001
-1.0175693035125732,0.24469566345214844,-5.0873332023620605,0.3100000000000001
-0.25119268894195557,0.7916584014892578,-4.516165733337402,0.3200000000000001
0.6672225594520569,1.2779884338378906,-3.962801694869995,0.3300000000000001
1.7201170921325684,1.514296531677246,-3.563779354095459,0.34000000000000014
2.433063268661499,1.4364137649536133,-3.579044818878174,0.35000000000000014
2.7417917251586914,0.9903116226196289,-3.8676669597625732,0.36000000000000015
2.779428482055664,0.26818180084228516,-4.294620037078857,0.37000000000000016
2.584042549133301,-0.6473617553710938,-4.744722843170166,0.38000000000000017
2.2051427364349365,-1.3436508178710938,-5.113214015960693,0.3900000000000002
1.8235856294631958,-1.690826416015625,-5.082630634307861,0.4000000000000002
1.417529821395874,-1.8297677040100098,-4.849557399749756,0.4100000000000002
1.0106391906738281,-1.6697883605957031,-4.413056373596191,0.4200000000000002
0.4309474229812622,-1.4601569175720215,-3.8426568508148193,0.4300000000000002
-0.12382739782333374,-1.2683277130126953,-3.1445538997650146,0.4400000000000002
-0.5899963974952698,-1.0709609985351562,-2.4606025218963623,0.45000000000000023
-0.8174357414245605,-1.1579408645629883,-1.9779225587844849,0.46000000000000024
-0.9166470766067505,-1.302032470703125,-1.8291903734207153,0.47000000000000025
-0.8424445390701294,-1.5221481323242188,-1.9808965921401978,0.48000000000000026
-0.6814988851547241,-1.676692008972168,-2.08250093460083,0.49000000000000027
-0.4773748517036438,-1.8777451515197754,-2.0492873191833496,0.5000000000000002
-0.2517802119255066,-2.09639835357666,-1.831943392753601,0.5100000000000002
-0.15581828355789185,-2.3804526329040527,-1.4953174591064453,0.5200000000000002
-0.08190256357192993,-2.739518642425537,-1.1778961420059204,0.5300000000000002
-0.09193503856658936,-3.0038089752197266,-0.9298926591873169,0.5400000000000003
-0.05134415626525879,-3.2046399116516113,-0.7727463245391846,0.5500000000000003
-0.07953202724456787,-3.332568645477295,-0.7184492349624634,0.5600000000000003
-0.0660938024520874,-3.177356719970703,-0.8386121988296509,0.5700000000000003
-0.2170497179031372,-2.844790458679199,-0.7183365821838379,0.5800000000000003
-0.30519163608551025,-2.729724884033203,-0.8619948625564575,0.5900000000000003
-0.2488030195236206,-2.5235962867736816,-1.0751581192016602,0.6000000000000003
-0.15762877464294434,-2.176457405090332,-1.2066338062286377,0.6100000000000003
-0.08206796646118164,-1.7340021133422852,-1.2200946807861328,0.6200000000000003
0.041895389556884766,-1.2394256591796875,-1.1939421892166138,0.6300000000000003
0.08426523208618164,-0.8003673553466797,-1.185018539428711,0.6400000000000003
0.31995952129364014,-0.5648622512817383,-1.1053507328033447,0.6500000000000004
0.5982215404510498,-0.5014324188232422,-0.8243117332458496,0.6600000000000004
0.7834187746047974,-0.4591856002807617,-0.45772916078567505,0.6700000000000004
0.5890734195709229,-0.6604070663452148,-0.3245229721069336,0.6800000000000004
0.410025954246521,-0.7317304611206055,-0.25740838050842285,0.6900000000000004
0.4647449254989624,-0.8456430435180664,-0.1533445119857788,0.7000000000000004
0.5919538736343384,-0.9544916152954102,-0.0699530839920044,0.7100000000000004
0.6554309129714966,-1.1898212432861328,-0.0576249361038208,0.7200000000000004
0.8459922075271606,-1.417414665222168,-0.198580801486969,0.7300000000000004
1.0508853197097778,-1.419656753540039,-0.34243541955947876,0.7400000000000004
1.1812032461166382,-1.3427200317382812,-0.46008002758026123,0.7500000000000004
1.2126500606536865,-1.2608699798583984,-0.6082433462142944,0.7600000000000005
1.24063241481781,-1.2076492309570312,-0.63055419921875,0.7700000000000005
1.2242753505706787,-1.1160926818847656,-0.6127797365188599,0.7800000000000005
1.215662956237793,-1.02923583984375,-0.4328654706478119,0.7900000000000005
1.2933624982833862,-0.8657321929931641,-0.17953306436538696,0.8000000000000005
1.32780921459198,-0.7643270492553711,0.10404253005981445,0.8100000000000005
1.383437991142273,-0.7751445770263672,0.35091716051101685,0.8200000000000005
1.3312227725982666,-0.7904586791992188,0.5729406476020813,0.8300000000000005
1.2383503913879395,-0.9752702713012695,0.7389789819717407,0.8400000000000005
1.0667635202407837,-1.1046295166015625,0.8180444836616516,0.8500000000000005
0.9461792707443237,-1.2073783874511719,0.9036497473716736,0.8600000000000005
0.8361281156539917,-1.2644681930541992,0.9505977630615234,0.8700000000000006
0.6531223058700562,-1.3166427612304688,0.968856692314148,0.8800000000000006
0.5576653480529785,-1.1654653549194336,0.9034489989280701,0.8900000000000006
0.4973636865615845,-1.0551204681396484,0.8383325338363647,0.9000000000000006
0.3551161289215088,-0.9640378952026367,0.6946296691894531,0.9100000000000006
0.2793782949447632,-0.7821922302246094,0.5510817766189575,0.9200000000000006
0.13358557224273682,-0.6459560394287109,0.36923253536224365,0.9300000000000006
0.08998334407806396,-0.47396183013916016,0.2949901819229126,0.9400000000000006
0.009714722633361816,-0.28536415100097656,0.19863975048065186,0.9500000000000006
-0.06415146589279175,-0.08017826080322266,0.09427100419998169,0.9600000000000006
-0.08640319108963013,0.01726245880126953,0.16848336160182953,0.9700000000000006
-0.21783554553985596,0.20560455322265625,0.09584976732730865,0.9800000000000006
-0.27472996711730957,0.2480611801147461,0.05378948897123337,0.9900000000000007
-0.25018638372421265,0.3313331604003906,0.10000615566968918,1.0000000000000007
-0.27338552474975586,0.4290599822998047,0.11229357868432999,1.0100000000000007
-0.2914179563522339,0.6033697128295898,0.12655551731586456,1.0200000000000007
-0.29968878626823425,0.8015737533569336,0.13793984055519104,1.0300000000000007
-0.11190974712371826,1.1192913055419922,0.19384123384952545,1.0400000000000007
0.21438032388687134,1.475041389465332,0.23864570260047913,1.0500000000000007
0.5857368111610413,1.8161487579345703,0.2311653196811676,1.0600000000000007
0.9061846137046814,1.9226360321044922,0.25009799003601074,1.0700000000000007
1.2879019975662231,1.9119653701782227,0.3769862949848175,1.0800000000000007
1.603935718536377,1.8321094512939453,0.624204158782959,1.0900000000000007
1.8854153156280518,1.7142362594604492,0.8078709840774536,1.1000000000000008
2.161120891571045,1.6874961853027344,0.9926292300224304,1.1100000000000008
2.553252696990967,1.696763038635254,1.1859322786331177,1.1200000000000008
2.925701141357422,1.471792221069336,1.5699595212936401,1.1300000000000008
2.892838716506958,1.7421598434448242,1.581852912902832,1.1400000000000008
3.2401483058929443,1.684661865234375,1.8342351913452148,1.1500000000000008
3.372138500213623,1.605748176574707,2.0039758682250977,1.1600000000000008
3.4541115760803223,1.498260498046875,2.1867644786834717,1.1700000000000008
3.4643611907958984,1.4698219299316406,2.2363526821136475,1.1800000000000008
3.634859085083008,1.3529176712036133,2.2431554794311523,1.1900000000000008
3.7303898334503174,1.589980125427246,1.9934531450271606,1.2000000000000008
3.932522773742676,1.8170795440673828,1.7882004976272583,1.2100000000000009
3.979858636856079,2.1537551879882812,1.4377708435058594,1.2200000000000009
4.010713577270508,2.444437026977539,1.1524646282196045,1.2300000000000009
3.9716570377349854,2.875687599182129,0.8338710069656372,1.2400000000000009
3.687178611755371,3.4329891204833984,0.5437440276145935,1.2500000000000009
3.508573055267334,4.106634140014648,0.47805747389793396,1.260000000000001
3.2343759536743164,4.831944465637207,0.3494519293308258,1.270000000000001
3.2332606315612793,4.970473289489746,0.34964340925216675,1.280000000000001
3.190110206604004,4.582751274108887,0.2081967294216156,1.290000000000001
3.1680073738098145,3.997030258178711,-0.15433993935585022,1.300000000000001
3.1265835762023926,3.3570632934570312,-0.5258195996284485,1.310000000000001
2.9939143657684326,2.9619035720825195,-0.8183239698410034,1.320000000000001
3.0530829429626465,2.7587451934814453,-1.13239324092865,1.330000000000001
2.7681989669799805,2.563370704650879,-1.6433674097061157,1.340000000000001
2.4433412551879883,2.445296287536621,-2.0614967346191406,1.350000000000001
1.9206948280334473,2.0340042114257812,-2.563553810119629,1.360000000000001
1.1744738817214966,1.7556695938110352,-3.058101177215576,1.370000000000001
0.387563019990921,1.399881362915039,-3.45188570022583,1.380000000000001
-0.3216918706893921,1.0864553451538086,-3.7424442768096924,1.390000000000001
-1.0381245613098145,0.7509050369262695,-3.773690700531006,1.400000000000001
-1.7434165477752686,0.5081310272216797,-3.6410515308380127,1.410000000000001
-2.5725691318511963,0.26720237731933594,-3.140239953994751,1.420000000000001
-3.2320477962493896,0.1116790771484375,-2.4628260135650635,1.430000000000001
-3.6754517555236816,-0.15721797943115234,-1.831233024597168,1.440000000000001
-3.9652509689331055,-0.25501441955566406,-1.2075170278549194,1.450000000000001
-4.105382919311523,-0.07692718505859375,-0.6902620792388916,1.460000000000001
-4.206557750701904,0.2688426971435547,-0.19347083568572998,1.470000000000001
-4.054322242736816,0.8391523361206055,0.24166083335876465,1.480000000000001
-3.7589774131774902,1.3895893096923828,0.5750908851623535,1.490000000000001
-3.3219244480133057,1.616633415222168,0.6876065731048584,1.500000000000001
-2.9062633514404297,1.843912124633789,0.5902100801467896,1.5100000000000011
-2.6651759147644043,2.021723747253418,0.5189454555511475,1.5200000000000011
-2.380685329437256,2.191168785095215,0.514732837677002,1.5300000000000011
-2.1070780754089355,2.1756086349487305,0.6312364339828491,1.5400000000000011
-1.9413728713989258,2.145183563232422,0.7125704288482666,1.5500000000000012
-1.9037683010101318,2.0377111434936523,0.7640993595123291,1.5600000000000012
-1.9116508960723877,1.9678430557250977,0.717782735824585,1.5700000000000012
-1.9922116994857788,1.8899478912353516,0.4811863899230957,1.5800000000000012
-2.0438525676727295,1.9425830841064453,0.038352012634277344,1.5900000000000012
-1.9184720516204834,1.8026342391967773,-0.5523673295974731,1.6000000000000012
-1.2782891988754272,1.5012235641479492,-1.2686505317687988,1.6100000000000012
-0.7758809924125671,1.2513675689697266,-2.172708034515381,1.6200000000000012
-0.4640350341796875,1.175206184387207,-3.0284132957458496,1.6300000000000012
-0.22183389961719513,0.8830947875976562,-3.678778648376465,1.6400000000000012
0.03894004225730896,0.4713897705078125,-4.0558624267578125,1.6500000000000012
0.22977271676063538,-0.1264190673828125,-4.009890079498291,1.6600000000000013
0.16131722927093506,-0.7668075561523438,-3.609767198562622,1.6700000000000013
0.23471415042877197,-1.2757043838500977,-3.1027309894561768,1.6800000000000013
0.18048590421676636,-1.8547229766845703,-2.477505683898926,1.6900000000000013
0.06871160864830017,-2.3108367919921875,-1.7896634340286255,1.7000000000000013
-0.0017512738704681396,-2.7309393882751465,-1.0951881408691406,1.7100000000000013
-0.08680026233196259,-2.9888534545898438,-0.8284056186676025,1.7200000000000013
-0.003943920135498047,-3.118828296661377,-0.8875601291656494,1.7300000000000013
-0.20253056287765503,-3.2622342109680176,-1.246171474456787,1.7400000000000013
-0.329924613237381,-3.514864444732666,-1.5835964679718018,1.7500000000000013
-0.3706737160682678,-3.5730319023132324,-1.8522741794586182,1.7600000000000013
-0.46065396070480347,-3.800321578979492,-2.136601209640503,1.7700000000000014
-0.4651874005794525,-3.9167017936706543,-2.3055248260498047,1.7800000000000014
-0.5250399112701416,-4.187734127044678,-2.3570637702941895,1.7900000000000014
-0.4072766602039337,-4.412428379058838,-2.212637186050415,1.8000000000000014
-0.39370033144950867,-4.66489315032959,-2.1263461112976074,1.8100000000000014
-0.4094478189945221,-4.911545753479004,-2.0673978328704834,1.8200000000000014
-0.4501499831676483,-5.336697578430176,-2.0907106399536133,1.8300000000000014
-0.6686797142028809,-5.502547740936279,-2.1461293697357178,1.8400000000000014
-0.7809736728668213,-5.3640360832214355,-2.0375068187713623,1.8500000000000014
-0.66765296459198,-5.060441017150879,-1.7958214282989502,1.8600000000000014
-0.7601755857467651,-4.647207736968994,-1.5786104202270508,1.8700000000000014
-0.8386691808700562,-4.107904434204102,-1.4262266159057617,1.8800000000000014
-0.8843479156494141,-3.705869674682617,-1.3359408378601074,1.8900000000000015
-0.9581779837608337,-3.3260483741760254,-1.2911021709442139,1.9000000000000015
-1.0419385433197021,-3.1238818168640137,-1.2628371715545654,1.9100000000000015
-1.093271017074585,-3.049032688140869,-1.255697250366211,1.9200000000000015
-1.1742368936538696,-3.103793144226074,-1.3054265975952148,1.9300000000000015
-1.220255970954895,-3.345485210418701,-1.308929443359375,1.9400000000000015
-1.3443015813827515,-3.5873193740844727,-1.280620813369751,1.9500000000000015
-1.2740963697433472,-3.800558090209961,-1.112926959991455,1.9600000000000015
-1.268424153327942,-4.049829959869385,-0.8871438503265381,1.9700000000000015
-1.341812014579773,-4.272961616516113,-0.6557261943817139,1.9800000000000015
-1.283855676651001,-4.462853908538818,-0.4471249580383301,1.9900000000000015
-1.350663661956787,-4.6887736320495605,-0.20872116088867188,2.0000000000000013
-1.3722541332244873,-4.76167106628418,0.07859611511230469,2.010000000000001
-1.4564015865325928,-4.765312194824219,0.4028654098510742,2.020000000000001
-1.5074398517608643,-4.649369239807129,0.7735123634338379,2.0300000000000007
-1.4558730125427246,-4.461551666259766,1.142439365386963,2.0400000000000005
-1.3039120435714722,-4.163249969482422,1.4492621421813965,2.0500000000000003
-1.0416945219039917,-3.816051483154297,1.6951828002929688,2.06
-0.8741785287857056,-3.278017044067383,1.7229671478271484,2.07
-0.6965253353118896,-2.6345248222351074,1.669339895248413,2.0799999999999996
-0.624378502368927,-1.904017448425293,1.6183202266693115,2.0899999999999994
-0.4404902756214142,-1.173999309539795,1.4547488689422607,2.099999999999999
-0.08177921175956726,-0.4311542510986328,0.9022717475891113,2.109999999999999
0.48049047589302063,0.5437812805175781,-0.0220029354095459,2.1199999999999988
0.9753482341766357,1.9004411697387695,-0.8422558307647705,2.1299999999999986
1.264601230621338,3.725621223449707,-0.837881326675415,2.1399999999999983
1.2914018630981445,6.203088760375977,0.47968435287475586,2.149999999999998
0.9843836426734924,9.130334854125977,3.5306220054626465,2.159999999999998
0.20823395252227783,11.805968284606934,8.03190803527832,2.1699999999999977
0.21071380376815796,12.686135292053223,11.903288841247559,2.1799999999999975
0.8006048202514648,11.99632453918457,13.389843940734863,2.1899999999999973
0.5757638216018677,10.454075813293457,12.899223327636719,2.199999999999997
0.6479849815368652,8.364992141723633,11.083259582519531,2.209999999999997
1.2701375484466553,5.35445499420166,9.306705474853516,2.2199999999999966
1.5481749773025513,0.881744384765625,7.975090026855469,2.2299999999999964
2.1664342880249023,-3.2714357376098633,6.049750328063965,2.239999999999996
2.2627272605895996,-4.824593544006348,3.0872318744659424,2.249999999999996
1.9027087688446045,-2.973367691040039,0.5758748054504395,2.259999999999996
0.5974971652030945,1.1826143264770508,-0.3177790641784668,2.2699999999999956
-0.08655494451522827,5.718921661376953,-2.264333724975586,2.2799999999999954
0.0855608582496643,9.688374519348145,-5.417068004608154,2.289999999999995
0.26715368032455444,12.27012825012207,-7.260561943054199,2.299999999999995
-0.7774477601051331,13.005517959594727,-7.366324424743652,2.3099999999999947
-2.0236146450042725,11.864216804504395,-7.085315704345703,2.3199999999999945
-3.693397045135498,9.627135276794434,-7.277224540710449,2.3299999999999943
-5.9143195152282715,7.657122611999512,-7.307286262512207,2.339999999999994
-7.2168288230896,6.2314252853393555,-6.832380294799805,2.349999999999994
-7.083672046661377,5.6149702072143555,-4.920223712921143,2.3599999999999937
-5.803606033325195,6.056073188781738,-0.95163893699646,2.3699999999999934
-4.617225170135498,5.522281646728516,1.875847339630127,2.3799999999999932
-2.850959300994873,3.1592702865600586,2.9605202674865723,2.389999999999993
-0.6431934833526611,0.5928859710693359,2.559314250946045,2.399999999999993
0.02841365337371826,-1.6551828384399414,0.02264547348022461,2.4099999999999926
-1.6963621377944946,-2.8260507583618164,-3.336735248565674,2.4199999999999924
-3.3045144081115723,-3.078885078430176,-5.462935447692871,2.429999999999992
-3.511709451675415,-3.143826961517334,-6.516660690307617,2.439999999999992
-4.020489692687988,-3.009786605834961,-6.518148422241211,2.4499999999999917
-4.096733093261719,-2.6850714683532715,-5.935800552368164,2.4599999999999915
-3.5507259368896484,-2.0458946228027344,-5.2696213722229,2.4699999999999913
-2.4989426136016846,-1.0591621398925781,-4.716136455535889,2.479999999999991
-0.8569169640541077,0.050721168518066406,-3.9300291538238525,2.489999999999991
0.8565282225608826,0.9701480865478516,-2.971193790435791,2.4999999999999907
1.9513556957244873,1.281062126159668,-2.4525818824768066,2.5099999999999905
2.147392749786377,0.99273681640625,-2.8050334453582764,2.5199999999999902
1.987647533416748,0.2254486083984375,-3.4144742488861084,2.52999999999999
1.1360673904418945,-0.4166603088378906,-3.8616909980773926,2.53999999999999
0.13900905847549438,-0.5019731521606445,-4.014186382293701,2.5499999999999896
-0.5876885652542114,-0.23058414459228516,-4.022857666015625,2.5599999999999894
-1.2030526399612427,0.11591625213623047,-3.8750100135803223,2.569999999999989
-1.7030850648880005,0.46346282958984375,-3.325732946395874,2.579999999999989
-1.8536043167114258,0.5557022094726562,-2.5129313468933105,2.5899999999999888
-1.651020884513855,0.3612508773803711,-1.712235450744629,2.5999999999999885
-1.2880923748016357,-0.1341075897216797,-1.240498423576355,2.6099999999999883
-0.8330779671669006,-0.8055801391601562,-0.9774430990219116,2.619999999999988
-0.4064787030220032,-1.6263785362243652,-0.987790584564209,2.629999999999988
-0.09886634349822998,-2.385601043701172,-1.2076177597045898,2.6399999999999877
0.22793996334075928,-3.161983013153076,-1.6287295818328857,2.6499999999999875
0.47102034091949463,-3.869141101837158,-2.210186004638672,2.6599999999999873
0.5314559936523438,-4.232138156890869,-2.513157844543457,2.669999999999987
0.3546963930130005,-4.311363220214844,-2.7507336139678955,2.679999999999987
0.21058952808380127,-4.073835849761963,-2.8771426677703857,2.6899999999999866
0.20102059841156006,-3.6253719329833984,-2.791081428527832,2.6999999999999864
0.13809549808502197,-2.9616494178771973,-2.783212184906006,2.709999999999986
0.12356531620025635,-2.2744088172912598,-2.7085328102111816,2.719999999999986
0.1085580587387085,-1.685678482055664,-2.6451539993286133,2.7299999999999858
0.02772533893585205,-1.235945701599121,-2.5543646812438965,2.7399999999999856
-0.13580834865570068,-1.0660505294799805,-2.5031938552856445,2.7499999999999853
-0.04914450645446777,-1.0967731475830078,-2.2213492393493652,2.759999999999985
-0.42762088775634766,-0.9787139892578125,-2.1204464435577393,2.769999999999985
-0.49295687675476074,-0.9130115509033203,-1.8795446157455444,2.7799999999999847
-0.7432469129562378,-1.210378646850586,-1.733055830001831,2.7899999999999845
-0.656846821308136,-1.5139217376708984,-1.5528101921081543,2.7999999999999843
-0.4120061993598938,-1.7805628776550293,-1.2927052974700928,2.809999999999984
-0.5148999094963074,-1.9817228317260742,-0.8125405311584473,2.819999999999984
-0.5969705581665039,-1.9071216583251953,-0.313323974609375,2.8299999999999836
-0.31633079051971436,-1.521286964416504,-0.08917236328125,2.8399999999999834
-0.05611622333526611,-1.1737079620361328,-0.09699141979217529,2.849999999999983
0.10963165760040283,-0.6898155212402344,-0.181321918964386,2.859999999999983
0.11390841007232666,-0.3328256607055664,-0.01446688175201416,2.869999999999983
0.1839975118637085,-0.0022153854370117188,0.2696341276168823,2.8799999999999826
0.4348520040512085,0.1752452850341797,0.4818897247314453,2.8899999999999824
0.5437617301940918,0.13273143768310547,0.643636167049408,2.899999999999982
0.7025318145751953,0.0019464492797851562,0.8457415103912354,2.909999999999982
0.9803736209869385,-0.11421394348144531,0.9112715125083923,2.9199999999999817
1.3145476579666138,-0.2372894287109375,0.824042022228241,2.9299999999999815
1.4987682104110718,-0.43419742584228516,0.5872274041175842,2.9399999999999813
1.6788039207458496,-0.6211662292480469,0.33072537183761597,2.949999999999981
1.8234577178955078,-0.927342414855957,0.04306921362876892,2.959999999999981
1.9113109111785889,-1.151759147644043,-0.2201014757156372,2.9699999999999807
1.9350491762161255,-1.2419042587280273,-0.4175920784473419,2.9799999999999804
1.9615392684936523,-1.2911767959594727,-0.5753520131111145,2.9899999999999802
2.0266213417053223,-1.282872200012207,-0.7028641700744629,2.99999999999998
2.0108184814453125,-1.2792253494262695,-0.7548026442527771,3.00999999999998
2.0052132606506348,-1.2873954772949219,-0.7840812802314758,3.0199999999999796
1.8691595792770386,-1.2332763671875,-0.7889037728309631,3.0299999999999794
1.7181512117385864,-1.0237483978271484,-0.6719365119934082,3.039999999999979
1.512073278427124,-0.8862237930297852,-0.5609548687934875,3.049999999999979
1.2919259071350098,-0.6747951507568359,-0.39193716645240784,3.0599999999999787
1.0363012552261353,-0.4493589401245117,-0.1890231966972351,3.0699999999999785
0.7406020164489746,-0.2625598907470703,0.06459072232246399,3.0799999999999783
0.5507971048355103,-0.08327674865722656,0.27576273679733276,3.089999999999978
0.30399763584136963,0.12438678741455078,0.3823641538619995,3.099999999999978
0.18449795246124268,0.1595449447631836,0.554604172706604,3.1099999999999777
0.05082058906555176,0.11092376708984375,0.634719967842102,3.1199999999999775
-0.0066564083099365234,-0.04520988464355469,0.5918422341346741,3.1299999999999772
-0.05801045894622803,-0.22733688354492188,0.5507696866989136,3.139999999999977
-0.0012961030006408691,-0.28945446014404297,0.5166977047920227,3.149999999999977
0.1865190863609314,-0.3153085708618164,0.5690125823020935,3.1599999999999766
0.28200483322143555,-0.19964313507080078,0.695884108543396,3.1699999999999764
0.33947092294692993,-0.00235748291015625,0.8420702219009399,3.179999999999976
0.4972690939903259,0.45577335357666016,1.1075701713562012,3.189999999999976
0.6956603527069092,1.0261297225952148,1.3749854564666748,3.1999999999999758
0.9087258577346802,1.3116025924682617,1.5799566507339478,3.2099999999999755
1.0581083297729492,1.4272594451904297,1.7130212783813477,3.2199999999999753
1.2999722957611084,1.4186477661132812,1.658929705619812,3.229999999999975
1.460143804550171,1.4268932342529297,1.5605902671813965,3.239999999999975
1.7160918712615967,1.4208126068115234,1.529962182044983,3.2499999999999747
1.8289520740509033,1.4697189331054688,1.547736406326294,3.2599999999999745
1.9931750297546387,1.6213035583496094,1.5778565406799316,3.2699999999999743
2.1515183448791504,1.4856843948364258,1.7544455528259277,3.279999999999974
2.0233075618743896,1.9359464645385742,1.5909394025802612,3.289999999999974
2.022043228149414,2.268366813659668,1.635082721710205,3.2999999999999736
2.1209850311279297,2.4854936599731445,1.6524314880371094,3.3099999999999734
2.1167006492614746,2.59466552734375,1.6816877126693726,3.319999999999973
2.0664448738098145,2.5816659927368164,1.6605899333953857,3.329999999999973
2.0635643005371094,2.4274892807006836,1.6249622106552124,3.3399999999999728
2.101016044616699,2.2398929595947266,1.7350244522094727,3.3499999999999726
2.054506540298462,1.963942527770996,1.9789962768554688,3.3599999999999723
1.957543969154358,1.5256452560424805,2.3450138568878174,3.369999999999972
1.9273624420166016,1.3077306747436523,2.468985080718994,3.379999999999972
2.184192180633545,1.0994653701782227,2.6426281929016113,3.3899999999999717
2.315955400466919,0.9199066162109375,2.573349952697754,3.3999999999999715
2.520336866378784,0.9076642990112305,2.327615737915039,3.4099999999999713
2.6743133068084717,0.9955215454101562,1.9142494201660156,3.419999999999971
2.9351437091827393,1.4128990173339844,1.5148676633834839,3.429999999999971
3.201906204223633,2.068547248840332,1.1748805046081543,3.4399999999999706
2.9470138549804688,2.9000368118286133,0.7479910254478455,3.4499999999999704
2.7566022872924805,3.6059608459472656,0.5265555381774902,3.45999999999997
2.585346221923828,3.880476951599121,0.292896032333374,3.46999999999997
2.601546049118042,3.5687360763549805,-0.1659681797027588,3.47999999999997
2.8352227210998535,3.0182008743286133,-0.7712277770042419,3.4899999999999696
2.618724822998047,2.2268104553222656,-1.4115865230560303,3.4999999999999694
2.389850616455078,1.776052474975586,-1.7712880373001099,3.509999999999969
2.1341652870178223,1.6728200912475586,-2.128161907196045,3.519999999999969
2.0126805305480957,1.5223026275634766,-2.446125030517578,3.5299999999999687
1.4872727394104004,1.578202247619629,-2.7630677223205566,3.5399999999999685
0.6653400659561157,1.508112907409668,-3.04966139793396,3.5499999999999683
-0.07228446006774902,1.3769207000732422,-3.142679452896118,3.559999999999968
-0.9089820384979248,1.4335203170776367,-3.1093459129333496,3.569999999999968
-1.7116330862045288,1.409987449645996,-2.983812093734741,3.5799999999999677
-2.3925929069519043,1.5145893096923828,-2.75728178024292,3.5899999999999674
-2.9574272632598877,1.4938421249389648,-2.501553773880005,3.5999999999999672
-3.5243752002716064,1.4699459075927734,-2.019596815109253,3.609999999999967
-4.019778251647949,1.3735170364379883,-1.5461783409118652,3.619999999999967
-4.605816841125488,1.371908187866211,-0.985326886177063,3.6299999999999666
-5.0267109870910645,1.3978767395019531,-0.36116528511047363,3.6399999999999664
-5.350731372833252,1.5349111557006836,0.32307493686676025,3.649999999999966
-5.266362190246582,1.6629934310913086,0.9885519742965698,3.659999999999966
-4.848044395446777,2.044696807861328,1.3296771049499512,3.6699999999999657
-4.146029949188232,2.2848634719848633,1.2041124105453491,3.6799999999999655
-3.4989218711853027,2.438826560974121,0.700440526008606,3.6899999999999653
-2.9093170166015625,2.3995771408081055,0.1806849241256714,3.699999999999965
-2.252920150756836,2.2705440521240234,-0.15453064441680908,3.709999999999965
-1.544306993484497,2.0806474685668945,-0.38018500804901123,3.7199999999999647
-0.9674085974693298,1.9065313339233398,-0.6376755237579346,3.7299999999999645
-0.45872142910957336,1.781707763671875,-0.905793309211731,3.7399999999999642
-0.0811498761177063,1.730158805847168,-1.2067492008209229,3.749999999999964
0.07318732142448425,1.7114343643188477,-1.536880612373352,3.759999999999964
-0.11486411094665527,1.795130729675293,-1.8778252601623535,3.7699999999999636
-0.2743105888366699,2.0052871704101562,-2.163069009780884,3.7799999999999634
-0.41921234130859375,2.021554946899414,-2.2135682106018066,3.789999999999963
-0.45051926374435425,1.9037704467773438,-2.0378785133361816,3.799999999999963
-0.3130016624927521,1.7111806869506836,-1.7504202127456665,3.8099999999999627
-0.15815645456314087,1.4407873153686523,-1.649969458580017,3.8199999999999625
-0.17336499691009521,0.8917274475097656,-1.8053737878799438,3.8299999999999623
-0.008013114333152771,0.27485084533691406,-1.7671778202056885,3.839999999999962
0.1090121865272522,-0.3045835494995117,-1.7818788290023804,3.849999999999962
0.3557847738265991,-0.7989597320556641,-1.6147513389587402,3.8599999999999617
0.42642471194267273,-1.1581611633300781,-1.4455387592315674,3.8699999999999615
0.42211127281188965,-1.4208502769470215,-1.156623125076294,3.8799999999999613
0.5266461372375488,-1.8459978103637695,-0.6463994979858398,3.889999999999961
0.300217866897583,-2.379023551940918,-0.42563772201538086,3.899999999999961
0.15777471661567688,-2.728555202484131,-0.5051908493041992,3.9099999999999606
-0.026425182819366455,-2.9644064903259277,-0.8463277816772461,3.9199999999999604
-0.1504496932029724,-3.220761775970459,-1.2001724243164062,3.92999999999996
-0.13884881138801575,-3.445006847381592,-1.5431859493255615,3.93999999999996
-0.2181221842765808,-3.8139376640319824,-1.9407157897949219,3.9499999999999598
-0.20819538831710815,-3.9971890449523926,-2.2452056407928467,3.9599999999999596
-0.26467517018318176,-4.20521879196167,-2.5363028049468994,3.9699999999999593
-0.12153373658657074,-4.497734546661377,-2.651698112487793,3.979999999999959
-0.10558280348777771,-4.788597583770752,-2.692117929458618,3.989999999999959
-0.19709739089012146,-5.073080062866211,-2.648130416870117,3.9999999999999587
-0.4388110637664795,-5.181535720825195,-2.5699462890625,4.009999999999959
-0.6076991558074951,-5.222048759460449,-2.4428412914276123,4.019999999999959
-0.7825132012367249,-5.041792869567871,-2.3432655334472656,4.0299999999999585
-0.8918662667274475,-4.605401039123535,-2.093884229660034,4.039999999999958
-0.9651140570640564,-4.183732509613037,-1.8090486526489258,4.049999999999958
-1.1326591968536377,-3.817728042602539,-1.5958523750305176,4.059999999999958
-1.1109728813171387,-3.5146608352661133,-1.5256726741790771,4.069999999999958
-1.0132708549499512,-3.296036720275879,-1.461989402770996,4.079999999999957
-0.9884387254714966,-3.2669081687927246,-1.46712064743042,4.089999999999957
-1.0132919549942017,-3.3456497192382812,-1.409677505493164,4.099999999999957
-0.9732765555381775,-3.6827964782714844,-1.311229944229126,4.109999999999957
-1.0092780590057373,-4.139289379119873,-1.248443603515625,4.119999999999957
-0.9850460290908813,-4.571534633636475,-1.0849151611328125,4.129999999999956
-0.9749746918678284,-4.991491317749023,-0.9522905349731445,4.139999999999956
-0.9648324251174927,-5.286808967590332,-0.7619574069976807,4.149999999999956
-1.0121214389801025,-5.503105163574219,-0.5712132453918457,4.159999999999956
-1.0046979188919067,-5.492278099060059,-0.3152756690979004,4.1699999999999555
-0.9811818599700928,-5.388489246368408,-0.03236055374145508,4.179999999999955
-0.9417282938957214,-5.210953235626221,0.28241682052612305,4.189999999999955
-0.9939601421356201,-5.01933479309082,0.6001491546630859,4.199999999999955
-0.9987325668334961,-4.760752201080322,0.8296146392822266,4.209999999999955
-1.0493838787078857,-4.406185626983643,1.1066226959228516,4.2199999999999545
-0.9230352640151978,-4.0175251960754395,1.365954875946045,4.229999999999954
-0.8054782748222351,-3.6539816856384277,1.5036895275115967,4.239999999999954
-0.654884934425354,-3.3410754203796387,1.4466910362243652,4.249999999999954
-0.4888869822025299,-2.953376293182373,1.166520595550537,4.259999999999954
-0.4251962900161743,-2.377732753753662,1.0318479537963867,4.269999999999953
-0.17956581711769104,-1.7378997802734375,0.9732122421264648,4.279999999999953
0.1344185620546341,-0.9990406036376953,0.5250048637390137,4.289999999999953
0.4402998089790344,-0.09482955932617188,-0.3199448585510254,4.299999999999953
0.9792338609695435,1.5570335388183594,-0.6471796035766602,4.3099999999999525
1.4183100461959839,4.094876289367676,-0.016666650772094727,4.319999999999952
1.3012546300888062,7.014982223510742,1.7249445915222168,4.329999999999952
0.7811884880065918,9.963644027709961,4.495176315307617,4.339999999999952
0.0082329660654068,10.867928504943848,7.179797172546387,4.349999999999952
0.2527843713760376,9.768929481506348,8.933188438415527,4.3599999999999515
0.1548948884010315,8.405924797058105,9.781902313232422,4.369999999999951
0.11793327331542969,7.082226753234863,9.953178405761719,4.379999999999951
0.5251295566558838,5.386407852172852,9.784736633300781,4.389999999999951
0.7725573778152466,2.584840774536133,9.477582931518555,4.399999999999951
1.0420522689819336,-0.9528074264526367,8.412271499633789,4.40999999999995
1.5041329860687256,-4.499067783355713,6.858098983764648,4.41999999999995
1.4945529699325562,-7.083420753479004,4.49324893951416,4.42999999999995
1.2774080038070679,-7.23643684387207,1.7295832633972168,4.43999999999995
0.535369873046875,-4.863041400909424,-0.36605405807495117,4.4499999999999496
-0.013369381427764893,-1.3418211936950684,-1.4558167457580566,4.459999999999949
0.22680321335792542,2.417194366455078,-2.7529749870300293,4.469999999999949
0.035154104232788086,6.369511604309082,-5.079850196838379,4.479999999999949
-0.5206042528152466,9.789143562316895,-7.622223854064941,4.489999999999949
-1.697230577468872,12.51503849029541,-8.310693740844727,4.4999999999999485
-3.51883602142334,14.545860290527344,-6.982944488525391,4.509999999999948
-5.547501087188721,15.551806449890137,-5.751400947570801,4.519999999999948
-6.732883930206299,14.971869468688965,-5.47588586807251,4.529999999999948
-6.286864757537842,12.481138229370117,-5.212669849395752,4.539999999999948
-4.443657398223877,8.651874542236328,-4.1972808837890625,4.549999999999947
-3.083211660385132,5.68400764465332,-2.9052798748016357,4.559999999999947
-3.3854563236236572,4.531694412231445,-1.9212822914123535,4.569999999999947
-3.7494964599609375,3.525212287902832,-0.5863692760467529,4.579999999999947
-3.5879006385803223,2.239687919616699,1.071958065032959,4.589999999999947
-3.447444200515747,0.5947360992431641,1.4813556671142578,4.599999999999946
-3.8408641815185547,-1.3036751747131348,-0.04061007499694824,4.609999999999946
-4.303038120269775,-3.292553424835205,-1.5844132900238037,4.619999999999946
-4.146578311920166,-4.709055423736572,-2.7719321250915527,4.629999999999946
-3.8333027362823486,-4.789068698883057,-3.6449227333068848,4.6399999999999455
-3.630917549133301,-3.8642525672912598,-3.834447145462036,4.649999999999945
-2.842710018157959,-2.6236705780029297,-3.384690999984741,4.659999999999945
-1.491285800933838,-1.1532135009765625,-2.617908000946045,4.669999999999945
0.09509801864624023,0.38280487060546875,-1.9012564420700073,4.679999999999945
1.8252840042114258,1.7191600799560547,-1.4398064613342285,4.689999999999944
3.2013156414031982,2.607954978942871,-1.544154167175293,4.699999999999944
3.7206830978393555,2.8211851119995117,-2.0208263397216797,4.709999999999944
3.969046115875244,2.227423667907715,-2.6399316787719727,4.719999999999944
3.8734583854675293,1.1698389053344727,-3.6622812747955322,4.729999999999944
3.270326852798462,0.16395854949951172,-4.893409729003906,4.739999999999943
2.5753304958343506,-0.7581081390380859,-5.541890621185303,4.749999999999943
2.0053646564483643,-1.1196918487548828,-5.613458633422852,4.759999999999943
1.3687310218811035,-1.090682029724121,-5.24953556060791,4.769999999999943
0.637909471988678,-0.9081802368164062,-4.515913963317871,4.7799999999999425
-0.015142381191253662,-0.7136411666870117,-3.6517457962036133,4.789999999999942
-0.49847331643104553,-0.5095548629760742,-2.7333078384399414,4.799999999999942
-0.720604658126831,-0.3914937973022461,-2.0618982315063477,4.809999999999942
-0.7480118870735168,-0.38550472259521484,-1.6229581832885742,4.819999999999942
-0.6564956903457642,-0.2927131652832031,-1.5099890232086182,4.8299999999999415
-0.4207771420478821,-0.34979248046875,-1.4909485578536987,4.839999999999941
-0.2662520408630371,-0.4272928237915039,-1.4943931102752686,4.849999999999941
-0.030327975749969482,-0.5706386566162109,-1.4987355470657349,4.859999999999941
0.0048043131828308105,-0.8371486663818359,-1.5111445188522339,4.869999999999941
-0.028559088706970215,-1.2363224029541016,-1.5362844467163086,4.87999999999994
-0.17504501342773438,-1.6700291633605957,-1.4952601194381714,4.88999999999994
-0.30430471897125244,-2.176608085632324,-1.464653730392456,4.89999999999994
-0.4805915951728821,-2.581468105316162,-1.4373033046722412,4.90999999999994
-0.9794850945472717,-2.858306407928467,-1.5785577297210693,4.9199999999999395
-1.0805559158325195,-3.0503668785095215,-1.4793941974639893,4.929999999999939
-1.1809686422348022,-3.1220173835754395,-1.2665185928344727,4.939999999999939
-1.237721562385559,-3.059168815612793,-1.1620312929153442,4.949999999999939
-1.1071891784667969,-2.833393096923828,-1.0124872922897339,4.959999999999939
-1.0359035730361938,-2.461698532104492,-0.9013201594352722,4.9699999999999385
-0.8564276695251465,-1.975390911102295,-0.8115754127502441,4.979999999999938
-0.786736786365509,-1.4535331726074219,-0.8457971811294556,4.989999999999938
-0.6666838526725769,-0.7719602584838867,-0.6227744817733765,4.999999999999938
-0.6086196303367615,-0.2608785629272461,-0.7976993322372437,5.009999999999938
-0.3564760684967041,-0.017961502075195312,-1.0624395608901978,5.019999999999937
-0.08669209480285645,-0.01877117156982422,-1.100578784942627,5.029999999999937
0.04627048969268799,-0.1457843780517578,-0.8443766236305237,5.039999999999937
-0.06244242191314697,-0.31755733489990234,-0.4931447505950928,5.049999999999937
0.1355189085006714,-0.4982566833496094,-0.27200794219970703,5.0599999999999365
0.3438436985015869,-0.6019163131713867,-0.20721220970153809,5.069999999999936
0.4908304214477539,-0.6980104446411133,-0.16721057891845703,5.079999999999936
0.6339954137802124,-0.8224878311157227,-0.18540078401565552,5.089999999999936
0.8472530841827393,-0.9825315475463867,-0.1203848123550415,5.099999999999936
1.0655808448791504,-1.0657472610473633,-0.19664841890335083,5.1099999999999355
1.2383852005004883,-1.1607437133789062,-0.29390519857406616,5.119999999999935
1.4013315439224243,-1.3321027755737305,-0.39489251375198364,5.129999999999935
1.4989960193634033,-1.464951515197754,-0.5231223702430725,5.139999999999935
1.626807689666748,-1.6478300094604492,-0.5560901165008545,5.149999999999935
1.6911311149597168,-1.782681941986084,-0.4619276225566864,5.159999999999934
1.7588467597961426,-1.7141742706298828,-0.4171411991119385,5.169999999999934
1.8225767612457275,-1.6912603378295898,-0.29896050691604614,5.179999999999934
1.7599767446517944,-1.5799436569213867,-0.25057631731033325,5.189999999999934
1.7718267440795898,-1.5189800262451172,-0.15926378965377808,5.199999999999934
1.7264232635498047,-1.3863134384155273,-0.07058095932006836,5.209999999999933
1.6285500526428223,-1.2584848403930664,-0.008773982524871826,5.219999999999933
1.5093005895614624,-1.1402225494384766,0.18617194890975952,5.229999999999933
1.4237176179885864,-1.0027790069580078,0.3941851854324341,5.239999999999933
1.233303427696228,-0.8126964569091797,0.715522050857544,5.2499999999999325
1.1345224380493164,-0.6441526412963867,0.9654318690299988,5.259999999999932
1.029559850692749,-0.49710559844970703,1.04033362865448,5.269999999999932
0.9734626412391663,-0.3547649383544922,0.9899047613143921,5.279999999999932
0.8633835315704346,-0.23146533966064453,0.8855191469192505,5.289999999999932
0.7713749408721924,-0.07700157165527344,0.7293703556060791,5.299999999999931
0.7000758647918701,0.036818504333496094,0.5452763438224792,5.309999999999931
0.5756182074546814,0.179351806640625,0.35226964950561523,5.319999999999931
0.46506887674331665,0.33141517639160156,0.2795942425727844,5.329999999999931
0.32770413160324097,0.43082714080810547,0.19807864725589752,5.339999999999931
0.330954372882843,0.43938541412353516,0.16054849326610565,5.34999999999993
0.34515511989593506,0.43852806091308594,0.1553812325000763,5.35999999999993
0.4009177088737488,0.40917491912841797,0.09903828054666519,5.36999999999993
0.5193436741828918,0.3848590850830078,0.09459155797958374,5.37999999999993
0.6810451149940491,0.4444894790649414,0.15164080262184143,5.3899999999999295
0.8545922040939331,0.47559356689453125,0.3321458697319031,5.399999999999929
1.025303602218628,0.5571174621582031,0.5497176051139832,5.409999999999929
1.2216410636901855,0.6913795471191406,0.8302004337310791,5.419999999999929
1.414810061454773,0.8902444839477539,1.075106143951416,5.429999999999929
1.611830234527588,1.0651369094848633,1.229210615158081,5.4399999999999284
1.860317349433899,1.1252079010009766,1.3452837467193604,5.449999999999928
2.093006134033203,1.135148048400879,1.4496731758117676,5.459999999999928
2.3049428462982178,1.2647666931152344,1.3701597452163696,5.469999999999928
2.467419385910034,1.401510238647461,1.3151103258132935,5.479999999999928
2.5471537113189697,1.6529560089111328,1.3039969205856323,5.489999999999927
2.5585312843322754,1.9520025253295898,1.2341604232788086,5.499999999999927
2.4513721466064453,2.248350143432617,1.2680583000183105,5.509999999999927
2.4723057746887207,2.56827449798584,1.3885372877120972,5.519999999999927
2.521108388900757,2.8208436965942383,1.506665825843811,5.5299999999999265
2.5118889808654785,2.8482961654663086,1.6364891529083252,5.539999999999926
2.4636380672454834,2.8326148986816406,1.7250021696090698,5.549999999999926
2.481785297393799,2.702094078063965,1.9153692722320557,5.559999999999926
2.5064473152160645,2.521416664123535,2.0206375122070312,5.569999999999926
2.7050533294677734,2.2762794494628906,2.152925968170166,5.5799999999999255
2.8810923099517822,2.153240203857422,2.012521743774414,5.589999999999925
3.1849069595336914,1.9727869033813477,1.7469244003295898,5.599999999999925
3.398022174835205,2.012331008911133,1.1538996696472168,5.609999999999925
3.4690322875976562,2.0468521118164062,0.6155179738998413,5.619999999999925
3.2843308448791504,2.437480926513672,0.15754304826259613,5.629999999999924
3.0465662479400635,3.0380373001098633,0.03410348296165466,5.639999999999924
2.84399676322937,3.5925674438476562,0.29712194204330444,5.649999999999924
2.7748544216156006,3.5967254638671875,0.30177122354507446,5.659999999999924
2.7677910327911377,3.2282304763793945,-0.17665167152881622,5.6699999999999235
2.710568904876709,2.6335134506225586,-0.9976910352706909,5.679999999999923
2.4841606616973877,1.858428955078125,-1.8437665700912476,5.689999999999923
2.23360276222229,1.0253076553344727,-2.5624635219573975,5.699999999999923
1.9677175283432007,0.17743968963623047,-3.0468320846557617,5.709999999999923
1.5948543548583984,-0.37891197204589844,-3.2469987869262695,5.7199999999999225
1.081046462059021,-0.8902082443237305,-3.3284788131713867,5.729999999999922
0.40689337253570557,-1.330002784729004,-3.408828020095825,5.739999999999922
-0.48615866899490356,-1.399277687072754,-3.236693859100342,5.749999999999922
-1.3026504516601562,-1.354248046875,-2.669398546218872,5.759999999999922
-2.315049409866333,-0.9607276916503906,-1.9655096530914307,5.769999999999921
-3.0708210468292236,-0.4248542785644531,-1.2258999347686768,5.779999999999921
-3.4030659198760986,0.2459878921508789,-0.5307839512825012,5.789999999999921
-3.6435434818267822,1.0109596252441406,0.08737444877624512,5.799999999999921
-3.57951021194458,1.9486732482910156,0.757211446762085,5.809999999999921
-3.513835906982422,2.9963903427124023,1.4427804946899414,5.81999999999992
-3.1101810932159424,3.8857669830322266,1.9473203420639038,5.82999999999992
-2.5741782188415527,4.286696434020996,2.190415143966675,5.83999999999992
-1.9615767002105713,4.414961814880371,2.0205917358398438,5.84999999999992
-1.4208736419677734,4.5604400634765625,1.732872724533081,5.8599999999999195
-1.1503466367721558,4.689923286437988,1.402078628540039,5.869999999999919
-0.8274720907211304,4.688867568969727,1.1202397346496582,5.879999999999919
-0.6866662502288818,4.574252128601074,0.841310977935791,5.889999999999919
-0.9695187211036682,4.24800968170166,0.5825166702270508,5.899999999999919
-1.6068556308746338,3.9301109313964844,0.11746549606323242,5.909999999999918
-2.392268657684326,3.610898017883301,-0.4602625370025635,5.919999999999918
-3.0239181518554688,3.2451906204223633,-1.0966354608535767,5.929999999999918
-2.976626396179199,2.7640066146850586,-1.5561091899871826,5.939999999999918
-2.505225658416748,2.308839797973633,-1.8542554378509521,5.949999999999918
-1.779457926750183,1.8103656768798828,-1.9123610258102417,5.959999999999917
-1.1425811052322388,1.3378362655639648,-1.9547173976898193,5.969999999999917
-0.5600937008857727,0.8719768524169922,-2.1074252128601074,5.979999999999917
-0.09068284928798676,0.3051128387451172,-2.236034393310547,5.989999999999917
0.2527322769165039,-0.22442245483398438,-2.1813344955444336,5.9999999999999165
0.42876020073890686,-0.7866535186767578,-2.1714720726013184,6.009999999999916
0.6785798668861389,-1.0040931701660156,-2.1650586128234863,6.019999999999916
0.7071869373321533,-1.2189350128173828,-2.255995273590088,6.029999999999916
0.5514287948608398,-1.497840404510498,-2.1222097873687744,6.039999999999916
0.5018813610076904,-1.5800347328186035,-1.7881360054016113,6.0499999999999154
0.4769456684589386,-1.6671342849731445,-1.3821115493774414,6.059999999999915
0.44585955142974854,-1.9058847427368164,-0.9718031883239746,6.069999999999915
0.48827964067459106,-2.1604299545288086,-0.8694286346435547,6.079999999999915
0.37804916501045227,-2.555466651916504,-1.0789759159088135,6.089999999999915
0.3025638461112976,-2.7777743339538574,-1.442225456237793,6.099999999999914
0.16177864372730255,-3.0928778648376465,-1.9164924621582031,6.109999999999914
0.08039242029190063,-3.411952495574951,-2.4019739627838135,6.119999999999914
-0.02761237323284149,-3.7729010581970215,-2.8660895824432373,6.129999999999914
-0.16912367939949036,-4.266269207000732,-3.1589157581329346,6.1399999999999135
-0.026987016201019287,-4.832019805908203,-3.194958448410034,6.149999999999913
-0.10970678180456161,-5.300230026245117,-3.108726739883423,6.159999999999913
-0.3479052186012268,-5.66634464263916,-2.7974352836608887,6.169999999999913
-0.5096741318702698,-5.954585552215576,-2.55757737159729,6.179999999999913
-0.6281497478485107,-6.119892597198486,-2.3527932167053223,6.1899999999999125
-0.9016209244728088,-6.071586608886719,-2.1950345039367676,6.199999999999912
-0.89472895860672,-5.82447624206543,-2.0074288845062256,6.209999999999912
-0.9359043836593628,-5.4626617431640625,-1.832793951034546,6.219999999999912
-0.8322876691818237,-4.984049320220947,-1.6325898170471191,6.229999999999912
-0.8167189955711365,-4.560899257659912,-1.5647614002227783,6.239999999999911
-0.8637996912002563,-4.061462879180908,-1.471635103225708,6.249999999999911
-0.8761588335037231,-3.6868114471435547,-1.3960638046264648,6.259999999999911
-0.8826531171798706,-3.46572208404541,-1.3782541751861572,6.269999999999911
-0.9811933040618896,-3.2977404594421387,-1.42740797996521,6.2799999999999105
-1.0306068658828735,-3.1995058059692383,-1.493267297744751,6.28999999999991
-1.1122015714645386,-3.2187604904174805,-1.580545425415039,6.29999999999991
-1.1016273498535156,-3.3769311904907227,-1.6412324905395508,6.30999999999991
-1.128121018409729,-3.649949550628662,-1.6824238300323486,6.31999999999991
-1.0915027856826782,-3.946812152862549,-1.615553855895996,6.3299999999999095
-1.0158748626708984,-4.2484517097473145,-1.50740647315979,6.339999999999909
-0.997078001499176,-4.519012928009033,-1.3721754550933838,6.349999999999909
-1.02083158493042,-4.686847686767578,-1.135481834411621,6.359999999999909
-1.0776927471160889,-4.792690277099609,-0.8785867691040039,6.369999999999909
-1.1629631519317627,-4.838939666748047,-0.5344176292419434,6.379999999999908
-1.3820632696151733,-4.8614115715026855,-0.11735677719116211,6.389999999999908
-1.6010886430740356,-4.778593063354492,0.33411312103271484,6.399999999999908
-1.6117554903030396,-4.650108814239502,0.8077797889709473,6.409999999999908
-1.7491207122802734,-4.365553855895996,1.2551836967468262,6.419999999999908
-1.6947627067565918,-3.9843993186950684,1.721064567565918,6.429999999999907
-1.5585678815841675,-3.6543188095092773,2.1252541542053223,6.439999999999907
-1.4882620573043823,-3.0850062370300293,2.3009233474731445,6.449999999999907
-1.1957992315292358,-2.4334535598754883,2.350904941558838,6.459999999999907
-0.514344334602356,-1.671865463256836,2.0343778133392334,6.4699999999999065
0.24124276638031006,-0.8128643035888672,1.387098789215088,6.479999999999906
1.0837137699127197,0.27437591552734375,0.47553086280822754,6.489999999999906
1.7812738418579102,1.5647144317626953,-0.07360339164733887,6.499999999999906
2.618429183959961,3.6253585815429688,0.33412718772888184,6.509999999999906
3.1978073120117188,6.404990196228027,1.8101263046264648,6.519999999999905
3.043687343597412,9.83658504486084,4.807556629180908,6.529999999999905
1.3822029829025269,12.520069122314453,8.4870023727417,6.539999999999905
0.5051738619804382,12.46110725402832,11.049615859985352,6.549999999999905
1.0844730138778687,10.92285442352295,11.609100341796875,6.559999999999905
1.2342883348464966,9.417720794677734,10.067843437194824,6.569999999999904
1.0849213600158691,7.815255165100098,7.978568077087402,6.579999999999904
0.6899488568305969,4.82646369934082,6.443115234375,6.589999999999904
1.0107178688049316,1.0368881225585938,4.904013633728027,6.599999999999904
2.0375680923461914,-2.7634754180908203,3.1909024715423584,6.6099999999999035
3.084848403930664,-4.544344902038574,2.1600606441497803,6.619999999999903
2.095911741256714,-2.1265506744384766,1.683717966079712,6.629999999999903
0.5813218355178833,2.457798957824707,0.24114465713500977,6.639999999999903
-0.33601802587509155,6.803698539733887,-2.579928159713745,6.649999999999903
-0.8331085443496704,10.049141883850098,-5.140921592712402,6.659999999999902
-1.4707634449005127,11.78633975982666,-5.877826690673828,6.669999999999902
-2.4762122631073,11.9479398727417,-5.523175239562988,6.679999999999902
-3.732086658477783,10.816422462463379,-5.507758140563965,6.689999999999902
-5.348818778991699,8.81865119934082,-5.64849328994751,6.699999999999902
-6.590228080749512,6.314386367797852,-4.998827934265137,6.709999999999901
-6.6864166259765625,4.018921852111816,-3.5200610160827637,6.719999999999901
-6.186619281768799,2.2885608673095703,-1.7438182830810547,6.729999999999901
-5.893408298492432,1.9919872283935547,0.22739934921264648,6.739999999999901
-5.272968769073486,2.183833122253418,1.5444588661193848,6.7499999999999005
-3.8294074535369873,2.023261070251465,2.3408682346343994,6.7599999999999
-2.1429550647735596,1.3030729293823242,2.0814640522003174,6.7699999999999
-2.1370887756347656,0.07767200469970703,0.33937978744506836,6.7799999999999
-2.789332151412964,-1.1913723945617676,-2.0596280097961426,6.7899999999999
-3.070361375808716,-2.23382568359375,-3.583151340484619,6.7999999999998995
-3.117116928100586,-2.5464677810668945,-4.143474578857422,6.809999999999899
-3.3093819618225098,-2.070552349090576,-4.176219940185547,6.819999999999899
-3.082785129547119,-1.1459722518920898,-3.9117417335510254,6.829999999999899
-2.483320474624634,0.12213420867919922,-3.619288682937622,6.839999999999899
-1.450777292251587,1.5316333770751953,-3.4611048698425293,6.849999999999898
0.2820407748222351,2.8225364685058594,-3.1791374683380127,6.859999999999898
1.6104106903076172,3.6588964462280273,-3.1881511211395264,6.869999999999898
2.3737735748291016,3.78424072265625,-3.3383703231811523,6.879999999999898
2.411674976348877,3.2201919555664062,-3.8041040897369385,6.8899999999998975
2.227308511734009,2.0939369201660156,-4.215522289276123,6.899999999999897
1.6832318305969238,0.8226356506347656,-4.817483425140381,6.909999999999897
1.1411497592926025,-0.3125925064086914,-5.213384628295898,6.919999999999897
0.6872891783714294,-0.9352130889892578,-5.332968711853027,6.929999999999897
0.1872662901878357,-0.9633760452270508,-5.1706671714782715,6.9399999999998965
-0.38645991683006287,-0.6841697692871094,-4.633296489715576,6.949999999999896
-0.8763657808303833,-0.32514381408691406,-3.8984622955322266,6.959999999999896
-1.223863124847412,-0.07095146179199219,-2.9627039432525635,6.969999999999896
-1.2464909553527832,0.03279399871826172,-2.1646132469177246,6.979999999999896
-1.0514774322509766,-0.12630653381347656,-1.4790806770324707,6.989999999999895
-0.7244243621826172,-0.44269466400146484,-1.056199312210083,6.999999999999895
-0.33866462111473083,-0.6457920074462891,-0.8814423084259033,7.009999999999895
0.0712849497795105,-0.8884515762329102,-0.8954458236694336,7.019999999999895
0.3472168445587158,-1.1154680252075195,-0.9931471347808838,7.0299999999998946
0.45871609449386597,-1.434443473815918,-1.0597879886627197,7.039999999999894
0.47406256198883057,-1.7975196838378906,-1.2340946197509766,7.049999999999894
0.3615882992744446,-2.195216178894043,-1.4274687767028809,7.059999999999894
0.2281179428100586,-2.5654091835021973,-1.7261815071105957,7.069999999999894
0.13750725984573364,-2.8341751098632812,-1.996247410774231,7.0799999999998935
0.18592333793640137,-3.061403274536133,-2.1520843505859375,7.089999999999893
-0.2037469744682312,-3.036524772644043,-2.4552624225616455,7.099999999999893
-0.1368246078491211,-2.900944709777832,-2.250532627105713,7.109999999999893
-0.07565754652023315,-2.683551788330078,-2.0811312198638916,7.119999999999893
0.08000051975250244,-2.3773488998413086,-1.886979341506958,7.129999999999892
0.10531902313232422,-2.099727153778076,-1.6246895790100098,7.139999999999892
-0.04024064540863037,-1.7574896812438965,-1.530694842338562,7.149999999999892
-0.10282576084136963,-1.4321088790893555,-1.3342864513397217,7.159999999999892
-0.0751335620880127,-1.1882352828979492,-1.1666871309280396,7.169999999999892
-0.005416154861450195,-1.0210227966308594,-1.0872166156768799,7.179999999999891
0.11763715744018555,-0.8777275085449219,-1.0166583061218262,7.189999999999891
0.27202022075653076,-0.7128124237060547,-0.8283489942550659,7.199999999999891
0.5012726783752441,-0.8441905975341797,-0.7867854833602905,7.209999999999891
0.6839903593063354,-1.0299148559570312,-0.5223850011825562,7.2199999999998905
0.6604272127151489,-1.2006683349609375,-0.1669405698776245,7.22999999999989
0.6007826328277588,-1.2752513885498047,-0.03128063678741455,7.23999999999989
0.6197483539581299,-1.4450874328613281,-0.017139792442321777,7.24999999999989
0.7966848611831665,-1.494950294494629,-0.06705772876739502,7.25999999999989
0.7917575836181641,-1.3939447402954102,-0.18074560165405273,7.269999999999889
0.6814001798629761,-1.2475214004516602,-0.29529786109924316,7.279999999999889
0.7288488149642944,-1.282979965209961,-0.3048473596572876,7.289999999999889
0.8242239952087402,-1.373438835144043,-0.19239294528961182,7.299999999999889
0.9342234134674072,-1.523606300354004,-0.10900378227233887,7.309999999999889
1.053978443145752,-1.4272727966308594,-0.08886784315109253,7.319999999999888
1.0991090536117554,-1.3261241912841797,-0.19703924655914307,7.329999999999888
1.1719032526016235,-1.215357780456543,-0.2774882912635803,7.339999999999888
1.242980718612671,-0.9754352569580078,-0.25749140977859497,7.349999999999888
1.2306303977966309,-0.8838977813720703,-0.10987517237663269,7.3599999999998875
1.222982406616211,-0.9118270874023438,0.10106974840164185,7.369999999999887
1.2006393671035767,-0.9298992156982422,0.26744478940963745,7.379999999999887
1.237596035003662,-0.9189481735229492,0.3984532654285431,7.389999999999887
1.2237364053726196,-0.9411497116088867,0.4435325860977173,7.399999999999887
1.2167115211486816,-0.9534292221069336,0.4574619233608246,7.4099999999998865
1.2192617654800415,-1.0156145095825195,0.4546148478984833,7.419999999999886
1.155411958694458,-1.0535764694213867,0.41591742634773254,7.429999999999886
1.0424861907958984,-1.0458688735961914,0.3868682384490967,7.439999999999886
0.9286783337593079,-1.037999153137207,0.33373698592185974,7.449999999999886
0.7999101281166077,-0.9295568466186523,0.284882128238678,7.459999999999885
0.6588466167449951,-0.773284912109375,0.3307051956653595,7.469999999999885
0.49855685234069824,-0.6792573928833008,0.42494121193885803,7.479999999999885
0.3955147862434387,-0.5278425216674805,0.6386566162109375,7.489999999999885
0.333052396774292,-0.35022449493408203,0.8472002744674683,7.4999999999998845
0.34934747219085693,-0.20622539520263672,0.9953757524490356,7.509999999999884
0.31250113248825073,-0.04558277130126953,1.006676435470581,7.519999999999884
0.25548458099365234,0.08150577545166016,0.8503203392028809,7.529999999999884
0.2663915753364563,0.2779245376586914,0.6371365785598755,7.539999999999884
0.17937308549880981,0.4527854919433594,0.4373197555541992,7.5499999999998835
0.0944247841835022,0.6659402847290039,0.27566540241241455,7.559999999999883
0.04433232545852661,0.848048210144043,0.2436549961566925,7.569999999999883
-0.02881738543510437,1.1617584228515625,0.14973942935466766,7.579999999999883
0.06138253211975098,1.5184097290039062,0.14423918724060059,7.589999999999883
0.1400204598903656,1.786428451538086,0.2317936271429062,7.599999999999882
0.2930673062801361,1.908498764038086,0.3664237856864929,7.609999999999882
0.5133883953094482,1.848891258239746,0.4639132022857666,7.619999999999882
0.7964818477630615,1.7464570999145508,0.5263683795928955,7.629999999999882
1.120976448059082,1.675339698791504,0.5919753313064575,7.6399999999998816
1.4346116781234741,1.611551284790039,0.6607267260551453,7.649999999999881
1.7570288181304932,1.6076593399047852,0.8259652853012085,7.659999999999881
2.0766441822052,1.680318832397461,1.042421817779541,7.669999999999881
2.2809414863586426,1.7959632873535156,1.2743232250213623,7.679999999999881
2.4680471420288086,1.9784555435180664,1.5290687084197998,7.6899999999998805
2.714677333831787,2.194239616394043,1.7231241464614868,7.69999999999988
2.9277446269989014,2.2734928131103516,1.8039275407791138,7.70999999999988
3.1242289543151855,2.230710029602051,1.8431117534637451,7.71999999999988
3.3666110038757324,2.0564565658569336,1.802225112915039,7.72999999999988
3.4204540252685547,1.891953468322754,1.7504405975341797,7.739999999999879
3.4843780994415283,1.6582670211791992,1.831038475036621,7.749999999999879
3.488816738128662,1.5563068389892578,1.83060884475708,7.759999999999879
3.5002284049987793,1.5882558822631836,1.7391047477722168,7.769999999999879
3.556344985961914,1.6726064682006836,1.5943787097930908,7.779999999999879
3.5560500621795654,1.8116741180419922,1.5374715328216553,7.789999999999878
3.544320821762085,2.053171157836914,1.4219970703125,7.799999999999878
3.6932499408721924,2.4041099548339844,1.3528738021850586,7.809999999999878
3.638756036758423,2.754354476928711,1.320432424545288,7.819999999999878
3.519137144088745,3.1039018630981445,1.2312641143798828,7.8299999999998775
3.460965156555176,3.4264392852783203,1.1497082710266113,7.839999999999877
3.4164576530456543,3.511580467224121,1.0348095893859863,7.849999999999877
3.3499560356140137,3.4887619018554688,0.8003202676773071,7.859999999999877
3.594538450241089,3.3605451583862305,0.5706031918525696,7.869999999999877
3.47705078125,3.031447410583496,0.3811896741390228,7.879999999999876
3.6554646492004395,2.8796262741088867,0.6178981065750122,7.889999999999876
3.6560075283050537,2.6586380004882812,0.6297290921211243,7.899999999999876
3.620677947998047,2.669875144958496,0.18371708691120148,7.909999999999876
3.4069743156433105,2.207700729370117,-0.6021827459335327,7.919999999999876
3.030205726623535,1.700821876525879,-1.4493358135223389,7.929999999999875
2.4624710083007812,1.214045524597168,-2.138071060180664,7.939999999999875
1.8506979942321777,0.5395536422729492,-2.672950029373169,7.949999999999875
1.1434812545776367,0.10821342468261719,-2.859100341796875,7.959999999999875
0.15027686953544617,-0.3239622116088867,-2.8437399864196777,7.9699999999998745
-0.8699289560317993,-0.5176982879638672,-2.594325065612793,7.979999999999874
-1.804343342781067,-0.6668462753295898,-2.3156661987304688,7.989999999999874
