AccX,AccY,AccZ,SampleRate
-0.4276684522628784,0.23987579345703125,1.452998399734497,0
-0.11161541938781738,1.409353256225586,1.630784511566162,0.01
0.22360849380493164,2.792928695678711,1.9628722667694092,0.02
0.4146369695663452,4.289450645446777,2.4556596279144287,0.03
0.4330900311470032,5.630115509033203,3.1188879013061523,0.04
0.40900999307632446,6.536665916442871,3.885821580886841,0.05
0.4259095788002014,6.925156593322754,4.595519542694092,0.060000000000000005
0.46794527769088745,6.812351226806641,5.124750137329102,0.07
0.5115141272544861,6.269933700561523,5.4485931396484375,0.08
0.5287648439407349,5.290717124938965,5.6281843185424805,0.09
0.5592423677444458,3.872547149658203,5.690451145172119,0.09999999999999999
0.5782793164253235,2.130704879760742,5.637681007385254,0.10999999999999999
0.5455243587493896,0.3455619812011719,5.409753322601318,0.11999999999999998
0.5134801864624023,-1.025886058807373,4.920815467834473,0.12999999999999998
0.47413480281829834,-1.5943450927734375,4.169301509857178,0.13999999999999999
0.4778255224227905,-1.43255615234375,3.215333938598633,0.15
0.4292150139808655,-0.6201171875,2.228451728820801,0.16
0.3152574300765991,0.7353572845458984,1.1215777397155762,0.17
0.15339583158493042,2.505438804626465,-0.11372852325439453,0.18000000000000002
-0.022165119647979736,4.462477684020996,-1.2061619758605957,0.19000000000000003
-0.21697640419006348,6.372041702270508,-1.8839561939239502,0.20000000000000004
-0.5995964407920837,7.830287933349609,-2.2014901638031006,0.21000000000000005
-1.1890370845794678,8.542326927185059,-2.392918586730957,0.22000000000000006
-1.904010534286499,8.546835899353027,-2.628451108932495,0.23000000000000007
-2.6648783683776855,8.208490371704102,-3.02608585357666,0.24000000000000007
-3.4246108531951904,7.93365478515625,-3.4075608253479004,0.25000000000000006
-3.9269232749938965,7.706489562988281,-3.4072728157043457,0.26000000000000006
-3.984605073928833,7.285417556762695,-2.7962965965270996,0.2700000000000001
-3.7215771675109863,6.482663154602051,-1.7983355522155762,0.2800000000000001
-3.079799175262451,5.272522926330566,-0.7673311233520508,0.2900000000000001
-2.236687660217285,3.8094043731689453,-0.2756233215332031,0.3000000000000001
-1.8646653890609741,2.3489990234375,-0.6279876232147217,0.3100000000000001
-2.0771265029907227,1.1037168502807617,-1.5348248481750488,0.3200000000000001
-2.347121238708496,0.07291316986083984,-2.6300792694091797,0.3300000000000001
-2.5610904693603516,-0.6953144073486328,-3.615086793899536,0.34000000000000014
-2.772148609161377,-1.200209140777588,-4.267838954925537,0.35000000000000014
-2.900111198425293,-1.4964160919189453,-4.593530178070068,0.36000000000000015
-2.850919246673584,-1.635441780090332,-4.715723991394043,0.37000000000000016
-2.598301410675049,-1.6680049896240234,-4.657035827636719,0.38000000000000017
-2.2206807136535645,-1.569676399230957,-4.381278991699219,0.3900000000000002
-1.7278560400009155,-1.283033847808838,-3.909472703933716,0.4000000000000002
-1.1424534320831299,-0.8265676498413086,-3.3635857105255127,0.4100000000000002
-0.5417206287384033,-0.29192638397216797,-2.8874127864837646,0.4200000000000002
-0.10944163799285889,0.24187374114990234,-2.5468642711639404,0.4300000000000002
0.14873230457305908,0.7005653381347656,-2.3312840461730957,0.4400000000000002
0.22071874141693115,1.0534400939941406,-2.3033180236816406,0.45000000000000023
0.15534913539886475,1.342188835144043,-2.4630026817321777,0.46000000000000024
0.03759205341339111,1.5895299911499023,-2.7278873920440674,0.47000000000000025
-0.06107175350189209,1.7631120681762695,-2.9990859031677246,0.48000000000000026
-0.12579023838043213,1.7942161560058594,-3.159693479537964,0.49000000000000027
-0.1546245813369751,1.6161222457885742,-3.165724754333496,0.5000000000000002
-0.15352344512939453,1.2527618408203125,-3.0248701572418213,0.5100000000000002
-0.1529906988143921,0.7903366088867188,-2.8095524311065674,0.5200000000000002
-0.14583563804626465,0.2674121856689453,-2.6048381328582764,0.5300000000000002
-0.12239396572113037,-0.2869291305541992,-2.467669725418091,0.5400000000000003
-0.0511934757232666,-0.8461875915527344,-2.3877813816070557,0.5500000000000003
6.471872329711914E-4,-1.4007492065429688,-2.3518762588500977,0.5600000000000003
0.04953348636627197,-1.9077396392822266,-2.352820873260498,0.5700000000000003
0.087821364402771,-2.3413314819335938,-2.341499090194702,0.5800000000000003
0.08361995220184326,-2.649528980255127,-2.298970937728882,0.5900000000000003
0.01901090145111084,-2.85426664352417,-2.2570149898529053,0.6000000000000003
-0.09310853481292725,-2.9533987045288086,-2.206923007965088,0.6100000000000003
-0.22082924842834473,-2.93276309967041,-2.123298406600952,0.6200000000000003
-0.32179439067840576,-2.821229934692383,-2.048499822616577,0.6300000000000003
-0.4154592752456665,-2.6595516204833984,-1.991796612739563,0.6400000000000003
-0.5066375732421875,-2.4478349685668945,-1.9337034225463867,0.6500000000000004
-0.6145511865615845,-2.205195426940918,-1.8959194421768188,0.6600000000000004
-0.7079154253005981,-1.9411988258361816,-1.9001948833465576,0.6700000000000004
-0.7962658405303955,-1.6821999549865723,-1.8864930868148804,0.6800000000000004
-0.8412476778030396,-1.4519987106323242,-1.8601982593536377,0.6900000000000004
-0.82806795835495,-1.2624187469482422,-1.808022141456604,0.7000000000000004
-0.8073430061340332,-1.1037302017211914,-1.6921542882919312,0.7100000000000004
-0.7816680669784546,-0.9878473281860352,-1.5101951360702515,0.7200000000000004
-0.7367228269577026,-0.9123525619506836,-1.297974705696106,0.7300000000000004
-0.6991004943847656,-0.8269205093383789,-1.0892301797866821,0.7400000000000004
-0.6499558687210083,-0.7291402816772461,-0.8791826963424683,0.7500000000000004
-0.582249641418457,-0.6286172866821289,-0.6772086024284363,0.7600000000000005
-0.49109208583831787,-0.5349245071411133,-0.5098317861557007,0.7700000000000005
-0.41482293605804443,-0.4312925338745117,-0.38922274112701416,0.7800000000000005
-0.32684528827667236,-0.3393573760986328,-0.2910803556442261,0.7900000000000005
-0.22432184219360352,-0.2855243682861328,-0.1959449052810669,0.8000000000000005
-0.11886799335479736,-0.2721881866455078,-0.12064743041992188,0.8100000000000005
-0.003070831298828125,-0.3088798522949219,-0.07508629560470581,0.8200000000000005
0.12090885639190674,-0.36206626892089844,-0.05968809127807617,0.8300000000000005
0.23392844200134277,-0.43175697326660156,-0.04557192325592041,0.8400000000000005
0.32864105701446533,-0.5131692886352539,-0.013190031051635742,0.8500000000000005
0.4098464250564575,-0.5919885635375977,0.028355717658996582,0.8600000000000005
0.4825085401535034,-0.6682682037353516,0.07702630758285522,0.8700000000000006
0.5467252731323242,-0.7372598648071289,0.12352001667022705,0.8800000000000006
0.5954376459121704,-0.7822513580322266,0.16327553987503052,0.8900000000000006
0.6429173946380615,-0.8176031112670898,0.21553975343704224,0.9000000000000006
0.6913666725158691,-0.8528347015380859,0.25370335578918457,0.9100000000000006
0.7527166604995728,-0.8831377029418945,0.28473761677742004,0.9200000000000006
0.8173642158508301,-0.901331901550293,0.3061806559562683,0.9300000000000006
0.8830243349075317,-0.9026556015014648,0.31549718976020813,0.9400000000000006
0.9448963403701782,-0.9038610458374023,0.3318922519683838,0.9500000000000006
0.9935224056243896,-0.8953962326049805,0.36022651195526123,0.9600000000000006
1.0409915447235107,-0.8390178680419922,0.3955979645252228,0.9700000000000006
1.0824601650238037,-0.7491092681884766,0.4184409976005554,0.9800000000000006
1.1274949312210083,-0.6209201812744141,0.44262129068374634,0.9900000000000007
1.1545253992080688,-0.4831838607788086,0.4870128631591797,1.0000000000000007
1.1536438465118408,-0.37413692474365234,0.5539125204086304,1.0100000000000007
1.1391332149505615,-0.2889556884765625,0.6384371519088745,1.0200000000000007
1.091876745223999,-0.23001575469970703,0.7092331647872925,1.0300000000000007
1.035618782043457,-0.18053627014160156,0.7345869541168213,1.0400000000000007
0.9652601480484009,-0.1381053924560547,0.7333148121833801,1.0500000000000007
0.8925058841705322,-0.10509681701660156,0.7345640659332275,1.0600000000000007
0.8171241879463196,-0.07192516326904297,0.7508269548416138,1.0700000000000007
0.7389684915542603,-0.03380870819091797,0.7728474736213684,1.0800000000000007
0.6674512028694153,0.014033317565917969,0.7984981536865234,1.0900000000000007
0.6097009181976318,0.06680488586425781,0.847408652305603,1.1000000000000008
0.5705268979072571,0.10536575317382812,0.9247429966926575,1.1100000000000008
0.5618481636047363,0.14407634735107422,1.0114246606826782,1.1200000000000008
0.595721423625946,0.1757497787475586,1.107642412185669,1.1300000000000008
0.6529572010040283,0.21234703063964844,1.201400637626648,1.1400000000000008
0.7453488707542419,0.25864696502685547,1.2710766792297363,1.1500000000000008
0.8631916642189026,0.31702232360839844,1.3237059116363525,1.1600000000000008
1.0088704824447632,0.38984203338623047,1.3641083240509033,1.1700000000000008
1.175330638885498,0.46271610260009766,1.3897645473480225,1.1800000000000008
1.3530064821243286,0.5427970886230469,1.4051895141601562,1.1900000000000008
1.5420801639556885,0.6109237670898438,1.4223074913024902,1.2000000000000008
1.7139902114868164,0.6670780181884766,1.4264230728149414,1.2100000000000009
1.8713710308074951,0.7231969833374023,1.4268414974212646,1.2200000000000009
2.014519214630127,0.7744693756103516,1.4450745582580566,1.2300000000000009
2.1411795616149902,0.8304481506347656,1.4833829402923584,1.2400000000000009
2.261174440383911,0.8934860229492188,1.5270791053771973,1.2500000000000009
2.36246395111084,0.9539976119995117,1.5855159759521484,1.260000000000001
2.4449868202209473,1.0048036575317383,1.665682315826416,1.270000000000001
2.5181925296783447,1.0243844985961914,1.7553513050079346,1.280000000000001
2.591327667236328,1.0342741012573242,1.8371585607528687,1.290000000000001
2.661635398864746,1.0464048385620117,1.8959507942199707,1.300000000000001
2.716646194458008,1.055964469909668,1.926248550415039,1.310000000000001
2.7607972621917725,1.0868282318115234,1.9032812118530273,1.320000000000001
2.81776762008667,1.1461410522460938,1.8435389995574951,1.330000000000001
2.8558905124664307,1.2410650253295898,1.7134664058685303,1.340000000000001
2.830751895904541,1.3644475936889648,1.4962623119354248,1.350000000000001
2.7745554447174072,1.5737476348876953,1.2285857200622559,1.360000000000001
2.6745142936706543,1.8115472793579102,0.9371718168258667,1.370000000000001
2.54475474357605,2.120903968811035,0.6388111114501953,1.380000000000001
2.4581387042999268,2.4061145782470703,0.3622960150241852,1.390000000000001
2.38236927986145,2.550046920776367,0.07085311412811279,1.400000000000001
2.3157668113708496,2.569655418395996,-0.29178565740585327,1.410000000000001
2.222761631011963,2.4532337188720703,-0.7363719940185547,1.420000000000001
2.1110589504241943,2.263275146484375,-1.1958973407745361,1.430000000000001
1.935776710510254,2.05502986907959,-1.6390926837921143,1.440000000000001
1.7305108308792114,1.8478574752807617,-2.0262844562530518,1.450000000000001
1.495811939239502,1.6276378631591797,-2.3361082077026367,1.460000000000001
1.1870551109313965,1.4735002517700195,-2.5339736938476562,1.470000000000001
0.8152621984481812,1.4022445678710938,-2.669156312942505,1.480000000000001
0.39147627353668213,1.3804073333740234,-2.740987777709961,1.490000000000001
-0.02524399757385254,1.367354393005371,-2.7535791397094727,1.500000000000001
-0.4458503723144531,1.3558940887451172,-2.6501076221466064,1.5100000000000011
-0.8360822200775146,1.3219776153564453,-2.437788248062134,1.5200000000000011
-1.212853193283081,1.2774744033813477,-2.148592472076416,1.5300000000000011
-1.5510776042938232,1.2342767715454102,-1.8077330589294434,1.5400000000000011
-1.8264124393463135,1.2543449401855469,-1.4371576309204102,1.5500000000000012
-2.010146379470825,1.3276786804199219,-1.0702788829803467,1.5600000000000012
-2.0805764198303223,1.4633378982543945,-0.7551803588867188,1.5700000000000012
-2.04832124710083,1.6251554489135742,-0.5301645994186401,1.5800000000000012
-1.9640552997589111,1.8181047439575195,-0.41938841342926025,1.5900000000000012
-1.8732624053955078,2.040102005004883,-0.4064284563064575,1.6000000000000012
-1.7272623777389526,2.2723188400268555,-0.46008288860321045,1.6100000000000012
-1.5733673572540283,2.4792823791503906,-0.5442115068435669,1.6200000000000012
-1.4634785652160645,2.635021209716797,-0.6265851259231567,1.6300000000000012
-1.4326766729354858,2.732410430908203,-0.6661858558654785,1.6400000000000012
-1.5021718740463257,2.7593231201171875,-0.6664314270019531,1.6500000000000012
-1.628138780593872,2.7276248931884766,-0.6600383520126343,1.6600000000000013
-1.7485240697860718,2.692410469055176,-0.7287060022354126,1.6700000000000013
-1.803769826889038,2.649087905883789,-0.8636989593505859,1.6800000000000013
-1.7979850769042969,2.583756446838379,-1.0591448545455933,1.6900000000000013
-1.7395553588867188,2.463376998901367,-1.2654763460159302,1.7000000000000013
-1.662804365158081,2.304812431335449,-1.4627177715301514,1.7100000000000013
-1.578311562538147,2.14599609375,-1.6464492082595825,1.7200000000000013
-1.4352226257324219,1.9769678115844727,-1.8318990468978882,1.7300000000000013
-1.245371699333191,1.7757091522216797,-2.0009055137634277,1.7400000000000013
-1.0553779602050781,1.5484743118286133,-2.1032962799072266,1.7500000000000013
-0.8995850682258606,1.318608283996582,-2.178729295730591,1.7600000000000013
-0.7928500175476074,1.0596933364868164,-2.1938862800598145,1.7700000000000014
-0.7663819193840027,0.7334184646606445,-2.112977981567383,1.7800000000000014
-0.7161898016929626,0.33480072021484375,-1.8879082202911377,1.7900000000000014
-0.6430706977844238,-0.08344841003417969,-1.6100950241088867,1.8000000000000014
-0.5786591172218323,-0.4971895217895508,-1.3664500713348389,1.8100000000000014
-0.5265607833862305,-0.892216682434082,-1.2023487091064453,1.8200000000000014
-0.4867672324180603,-1.252089500427246,-1.1772563457489014,1.8300000000000014
-0.4977252781391144,-1.5891027450561523,-1.2740232944488525,1.8400000000000014
-0.5334623456001282,-1.9154343605041504,-1.4829442501068115,1.8500000000000014
-0.5738155841827393,-2.243077278137207,-1.775498867034912,1.8600000000000014
-0.596750020980835,-2.586291790008545,-2.104231595993042,1.8700000000000014
-0.6061978936195374,-2.9783825874328613,-2.4075374603271484,1.8800000000000014
-0.6111181378364563,-3.4145002365112305,-2.6378650665283203,1.8900000000000015
-0.6306589841842651,-3.875491142272949,-2.8025527000427246,1.9000000000000015
-0.6574834585189819,-4.337492942810059,-2.904036045074463,1.9100000000000015
-0.7014239430427551,-4.771912574768066,-2.970946788787842,1.9200000000000015
-0.749262809753418,-5.099946022033691,-2.9959826469421387,1.9300000000000015
-0.817135214805603,-5.286144256591797,-2.9618072509765625,1.9400000000000015
-0.867372453212738,-5.309377193450928,-2.880054473876953,1.9500000000000015
-0.9340115785598755,-5.2467169761657715,-2.781217575073242,1.9600000000000015
-0.996619701385498,-5.12502908706665,-2.6739792823791504,1.9700000000000015
-1.053691029548645,-4.999358177185059,-2.5823025703430176,1.9800000000000015
-1.1204495429992676,-4.860058784484863,-2.4895758628845215,1.9900000000000015
-1.18263840675354,-4.733486652374268,-2.3837714195251465,2.0000000000000013
-1.2634837627410889,-4.641214370727539,-2.260017156600952,2.010000000000001
-1.3738548755645752,-4.635745525360107,-2.1280243396759033,2.020000000000001
-1.4506371021270752,-4.6139678955078125,-1.9640653133392334,2.0300000000000007
-1.499374270439148,-4.580599308013916,-1.7777400016784668,2.0400000000000005
-1.5388342142105103,-4.552252769470215,-1.5811901092529297,2.0500000000000003
-1.554229497909546,-4.526477336883545,-1.3600380420684814,2.06
-1.5738389492034912,-4.486395835876465,-1.1239848136901855,2.07
-1.6190698146820068,-4.434242248535156,-0.875582218170166,2.0799999999999996
-1.6874150037765503,-4.362671375274658,-0.6126012802124023,2.0899999999999994
-1.7450642585754395,-4.2642340660095215,-0.34024477005004883,2.099999999999999
-1.7895338535308838,-4.128969192504883,-0.07594799995422363,2.109999999999999
-1.801361322402954,-3.9516234397888184,0.17456698417663574,2.1199999999999988
-1.78013014793396,-3.72440767288208,0.4099252223968506,2.1299999999999986
-1.72575044631958,-3.437030792236328,0.6259913444519043,2.1399999999999983
-1.6668723821640015,-3.0817394256591797,0.8379292488098145,2.149999999999998
-1.5575296878814697,-2.670288562774658,1.1022462844848633,2.159999999999998
-1.368308424949646,-2.21658992767334,1.3814678192138672,2.1699999999999977
-1.069433569908142,-1.743879795074463,1.6565442085266113,2.1799999999999975
-0.6499314308166504,-1.2272601127624512,1.8859920501708984,2.1899999999999973
-0.1375456154346466,-0.6226091384887695,2.0303680896759033,2.199999999999997
0.4266052544116974,0.18123149871826172,2.1146676540374756,2.209999999999997
0.9155019521713257,1.232839584350586,2.2224490642547607,2.2199999999999966
1.1904364824295044,2.539030075073242,2.5266785621643066,2.2299999999999964
1.1997169256210327,3.8328857421875,3.165032386779785,2.239999999999996
1.1516523361206055,4.780096054077148,4.042241096496582,2.249999999999996
1.0264302492141724,5.381653785705566,4.959615707397461,2.259999999999996
0.7998260855674744,5.6874542236328125,5.679856300354004,2.2699999999999956
0.5787999629974365,5.774934768676758,6.091808795928955,2.2799999999999954
0.546062171459198,5.643526077270508,6.065117359161377,2.289999999999995
0.7597726583480835,5.352809906005859,5.612054824829102,2.299999999999995
1.0367435216903687,5.102618217468262,4.940692901611328,2.3099999999999947
1.0647976398468018,5.174835205078125,4.311012268066406,2.3199999999999945
0.8076090812683105,5.709216117858887,3.552511692047119,2.3299999999999943
0.4849686622619629,6.603268623352051,2.5514402389526367,2.339999999999994
0.19346678256988525,7.604153633117676,1.5581278800964355,2.349999999999994
-0.05616044998168945,8.357809066772461,0.6406974792480469,2.3599999999999937
-0.4267280697822571,8.281025886535645,-0.27940845489501953,2.3699999999999934
-0.8913159370422363,7.317291259765625,-1.2092974185943604,2.3799999999999932
-1.331228494644165,5.9291181564331055,-1.950103998184204,2.389999999999993
-1.7844274044036865,4.582365036010742,-2.3454999923706055,2.399999999999993
-2.2478151321411133,3.371790885925293,-2.43863582611084,2.4099999999999926
-2.718916893005371,2.27309513092041,-2.357621192932129,2.4199999999999924
-3.260089874267578,1.363785743713379,-2.100402355194092,2.429999999999992
-3.548692226409912,0.6773796081542969,-1.8864552974700928,2.439999999999992
-3.4363136291503906,0.179718017578125,-1.7963953018188477,2.4499999999999917
-3.12644362449646,-0.1258373260498047,-1.8839852809906006,2.4599999999999915
-2.8488383293151855,-0.2977027893066406,-2.2031357288360596,2.4699999999999913
-2.6568822860717773,-0.44419097900390625,-2.706735134124756,2.479999999999991
-2.5366134643554688,-0.5488967895507812,-3.233588218688965,2.489999999999991
-2.485093116760254,-0.545985221862793,-3.610396146774292,2.4999999999999907
-2.402009963989258,-0.3780660629272461,-3.7361831665039062,2.5099999999999905
-2.141404867172241,0.05650138854980469,-3.532594919204712,2.5199999999999902
-1.6632882356643677,0.7424907684326172,-3.0278220176696777,2.52999999999999
-1.1233983039855957,1.5286903381347656,-2.3975393772125244,2.53999999999999
-0.5770323872566223,2.238368034362793,-1.8356730937957764,2.5499999999999896
-0.059450775384902954,2.7290449142456055,-1.544229507446289,2.5599999999999894
0.28111475706100464,2.9045934677124023,-1.4823949337005615,2.569999999999989
0.3981005549430847,2.773562431335449,-1.711512804031372,2.579999999999989
0.365730345249176,2.4168663024902344,-2.120154619216919,2.5899999999999888
0.2476460337638855,1.9392480850219727,-2.599905014038086,2.5999999999999885
0.10520726442337036,1.4499244689941406,-3.04710054397583,2.6099999999999883
-0.01905113458633423,1.009857177734375,-3.4006645679473877,2.619999999999988
-0.1035798192024231,0.6581525802612305,-3.63478946685791,2.629999999999988
-0.16842031478881836,0.42883968353271484,-3.749328374862671,2.6399999999999877
-0.2312767505645752,0.3266153335571289,-3.704324722290039,2.6499999999999875
-0.28309500217437744,0.293548583984375,-3.4777724742889404,2.6599999999999873
-0.3611378073692322,0.28827476501464844,-3.0871968269348145,2.669999999999987
-0.39988261461257935,0.25275707244873047,-2.5952870845794678,2.679999999999987
-0.39351099729537964,0.14601802825927734,-2.086749315261841,2.6899999999999866
-0.35941845178604126,-0.029592514038085938,-1.6350579261779785,2.6999999999999864
-0.29965782165527344,-0.27154064178466797,-1.2929964065551758,2.709999999999986
-0.26384007930755615,-0.5580387115478516,-1.0779837369918823,2.719999999999986
-0.23442578315734863,-0.8960847854614258,-0.9786765575408936,2.7299999999999858
-0.23211026191711426,-1.25933837890625,-0.9690059423446655,2.7399999999999856
-0.2468874454498291,-1.6193428039550781,-1.0243102312088013,2.7499999999999853
-0.31958985328674316,-1.9594945907592773,-1.117710828781128,2.759999999999985
-0.4022480249404907,-2.2726941108703613,-1.2705788612365723,2.769999999999985
-0.4487866163253784,-2.5135416984558105,-1.459322452545166,2.7799999999999847
-0.4467610716819763,-2.6629514694213867,-1.6509963274002075,2.7899999999999845
-0.41261929273605347,-2.6827077865600586,-1.8510208129882812,2.7999999999999843
-0.35161352157592773,-2.575336456298828,-1.9972549676895142,2.809999999999984
-0.3033040761947632,-2.355229377746582,-2.087238073348999,2.819999999999984
-0.2541656494140625,-2.075061321258545,-2.1329095363616943,2.8299999999999836
-0.2118016481399536,-1.7731513977050781,-2.1150946617126465,2.8399999999999834
-0.20029985904693604,-1.5165348052978516,-2.043142795562744,2.849999999999983
-0.19778478145599365,-1.321986198425293,-1.9504368305206299,2.859999999999983
-0.2181711196899414,-1.1800012588500977,-1.83429753780365,2.869999999999983
-0.22532522678375244,-1.097733497619629,-1.7114707231521606,2.8799999999999826
-0.22384536266326904,-1.0536689758300781,-1.593679428100586,2.8899999999999824
-0.24300158023834229,-1.0549163818359375,-1.485336422920227,2.899999999999982
-0.22349047660827637,-1.1156692504882812,-1.3769946098327637,2.909999999999982
-0.19673442840576172,-1.1950817108154297,-1.2452614307403564,2.9199999999999817
-0.16964292526245117,-1.2453174591064453,-1.078446388244629,2.9299999999999815
-0.1610393524169922,-1.2975006103515625,-0.9247957468032837,2.9399999999999813
-0.1637204885482788,-1.325265884399414,-0.8159438967704773,2.949999999999981
-0.17281806468963623,-1.3238697052001953,-0.7496405243873596,2.959999999999981
-0.17390942573547363,-1.2982397079467773,-0.6774880886077881,2.9699999999999807
-0.15971732139587402,-1.2412872314453125,-0.6017404198646545,2.9799999999999804
-0.13274931907653809,-1.198486328125,-0.529549241065979,2.9899999999999802
-0.08832800388336182,-1.1578741073608398,-0.45847368240356445,2.99999999999998
-0.026385188102722168,-1.1194610595703125,-0.3933967351913452,3.00999999999998
0.03861880302429199,-1.0880250930786133,-0.33198267221450806,3.0199999999999796
0.10658657550811768,-1.0659866333007812,-0.276252806186676,3.0299999999999794
0.17042255401611328,-1.0486040115356445,-0.24022352695465088,3.039999999999979
0.5101096630096436,-1.045496940612793,-0.233148455619812,3.049999999999979
0.5395163297653198,-1.192997932434082,-0.11573159694671631,3.0599999999999787
0.5939077138900757,-1.2972984313964844,0.0025260448455810547,3.0699999999999785
0.692481279373169,-1.3895759582519531,0.15563076734542847,3.0799999999999783
0.7107160091400146,-1.4459161758422852,0.2912425994873047,3.089999999999978
0.8088893890380859,-1.3156938552856445,0.4118495583534241,3.099999999999978
0.8361541032791138,-1.140176773071289,0.5892736315727234,3.1099999999999777
0.9311095476150513,-0.9217500686645508,0.8042365312576294,3.1199999999999775
1.024256944656372,-0.7130298614501953,1.0829331874847412,3.1299999999999772
1.1799700260162354,-0.4063405990600586,1.3294811248779297,3.139999999999977
1.2332732677459717,-0.12372112274169922,1.5460525751113892,3.149999999999977
1.3156591653823853,0.1277475357055664,1.5838756561279297,3.1599999999999766
1.4822534322738647,0.3720207214355469,1.627052664756775,3.1699999999999764
1.5110220909118652,0.4440765380859375,1.6854405403137207,3.179999999999976
1.4644544124603271,0.6023845672607422,1.5265485048294067,3.189999999999976
1.4290683269500732,0.7296590805053711,1.2813502550125122,3.1999999999999758
1.2474820613861084,0.8115577697753906,1.030303716659546,3.2099999999999755
1.044517993927002,0.8720054626464844,0.7942083477973938,3.2199999999999753
0.7819505929946899,0.9301376342773438,0.5268155336380005,3.229999999999975
0.6750667691230774,0.933323860168457,0.4142093062400818,3.239999999999975
0.5965726375579834,0.931854248046875,0.4561033248901367,3.2499999999999747
0.48118048906326294,0.9544544219970703,0.5517736673355103,3.2599999999999745
0.43595582246780396,1.0513248443603516,0.6963247656822205,3.2699999999999743
0.6229873895645142,1.1649961471557617,0.9211369156837463,3.279999999999974
0.7737258672714233,1.1663427352905273,1.18838369846344,3.289999999999974
1.0097897052764893,1.2085494995117188,1.390836477279663,3.2999999999999736
1.2495205402374268,1.2556934356689453,1.4714117050170898,3.3099999999999734
1.607743501663208,1.2814397811889648,1.5259733200073242,3.319999999999973
1.835415244102478,1.216461181640625,1.6239699125289917,3.329999999999973
2.1381263732910156,1.268876075744629,1.5881375074386597,3.3399999999999728
2.4510245323181152,1.362009048461914,1.605229377746582,3.3499999999999726
2.7763710021972656,1.4312400817871094,1.7064855098724365,3.3599999999999723
3.044498920440674,1.5268077850341797,1.743645429611206,3.369999999999972
3.228717803955078,1.6869277954101562,1.7476773262023926,3.379999999999972
3.5203258991241455,1.8421449661254883,1.7733800411224365,3.3899999999999717
3.66815185546875,1.882441520690918,1.772735357284546,3.3999999999999715
3.820702075958252,1.819880485534668,1.7886642217636108,3.4099999999999713
3.8777754306793213,1.6832447052001953,1.7897660732269287,3.419999999999971
3.906705379486084,1.5275583267211914,1.6941118240356445,3.429999999999971
3.8360214233398438,1.3527908325195312,1.4699901342391968,3.4399999999999706
3.710820198059082,1.2808780670166016,1.128493309020996,3.4499999999999704
3.5834054946899414,1.2231864929199219,0.6614792346954346,3.45999999999997
3.4004898071289062,1.356663703918457,0.14024776220321655,3.46999999999997
3.1422863006591797,1.4802732467651367,-0.3326987028121948,3.47999999999997
2.9205236434936523,1.7686939239501953,-0.5417059659957886,3.4899999999999696
2.852198600769043,2.415546417236328,-0.44009917974472046,3.4999999999999694
2.8220648765563965,2.839487075805664,-0.17259371280670166,3.509999999999969
2.7317636013031006,2.837649345397949,-0.09998413920402527,3.519999999999969
2.7013602256774902,2.721468925476074,-0.14058223366737366,3.5299999999999687
2.6316423416137695,2.1969804763793945,-0.36689409613609314,3.5399999999999685
2.452230215072632,1.4990215301513672,-0.634331464767456,3.5499999999999683
2.296060562133789,0.8430347442626953,-1.0163447856903076,3.559999999999968
1.953401803970337,0.3558053970336914,-1.4615839719772339,3.569999999999968
1.4082956314086914,-0.022481918334960938,-2.043135643005371,3.5799999999999677
0.8983866572380066,-0.2821941375732422,-2.5554111003875732,3.5899999999999674
0.5558348298072815,-0.3993377685546875,-2.7807607650756836,3.5999999999999672
-0.029721558094024658,-0.5915384292602539,-2.6435182094573975,3.609999999999967
-0.849432647228241,-0.5382814407348633,-2.224951982498169,3.619999999999967
-1.777585506439209,-0.3618602752685547,-1.8055262565612793,3.6299999999999666
-2.6864395141601562,-0.11508941650390625,-1.4078681468963623,3.6399999999999664
-3.352903127670288,0.03445720672607422,-0.9874669313430786,3.649999999999966
-3.767922878265381,0.2660560607910156,-0.5444954633712769,3.659999999999966
-3.9885337352752686,0.5100955963134766,-0.22250890731811523,3.6699999999999657
-3.7304024696350098,0.9457492828369141,-0.012620091438293457,3.6799999999999655
-3.266474485397339,1.4793787002563477,0.16035866737365723,3.6899999999999653
-2.8359735012054443,2.0701513290405273,0.27979016304016113,3.699999999999965
-2.351966381072998,2.555514335632324,0.33244943618774414,3.709999999999965
-1.9351353645324707,2.9334535598754883,0.35947275161743164,3.7199999999999647
-1.5927879810333252,3.2856931686401367,0.44729816913604736,3.7299999999999645
-1.5230244398117065,3.5551767349243164,0.5605472326278687,3.7399999999999642
-1.5809693336486816,3.7350778579711914,0.6021294593811035,3.749999999999964
-1.580265760421753,3.851834297180176,0.6362683773040771,3.759999999999964
-1.7149360179901123,3.8934335708618164,0.6872255802154541,3.7699999999999636
-2.0098650455474854,3.9291954040527344,0.650231122970581,3.7799999999999634
-2.2110648155212402,3.8252134323120117,0.42278265953063965,3.789999999999963
-2.2204103469848633,3.768291473388672,-0.0836477279663086,3.799999999999963
-1.7486555576324463,3.789714813232422,-0.7570939064025879,3.8099999999999627
-1.231489658355713,3.798898696899414,-1.49552583694458,3.8199999999999625
-0.687937319278717,3.6959333419799805,-2.1542577743530273,3.8299999999999623
-0.4842504858970642,3.2733802795410156,-2.6408467292785645,3.839999999999962
-0.5923671722412109,3.014540672302246,-2.779627799987793,3.849999999999962
-0.6068843007087708,2.9089460372924805,-2.7449796199798584,3.8599999999999617
-0.35865145921707153,2.776211738586426,-2.8475842475891113,3.8699999999999615
-0.014769136905670166,2.5674619674682617,-2.955404758453369,3.8799999999999613
0.2932724356651306,2.265456199645996,-3.131873369216919,3.889999999999961
0.1984207034111023,1.6406745910644531,-3.099623203277588,3.899999999999961
-0.10491126775741577,0.8635034561157227,-2.7185182571411133,3.9099999999999606
-0.42204737663269043,-0.207061767578125,-2.074930191040039,3.9199999999999604
-0.6315163969993591,-1.4614639282226562,-1.0743706226348877,3.92999999999996
-0.5390517711639404,-2.603736400604248,-0.21107053756713867,3.93999999999996
-0.5842077732086182,-3.2944936752319336,0.043521881103515625,3.9499999999999598
-0.8854977488517761,-3.692051410675049,0.01467132568359375,3.9599999999999596
-1.1902287006378174,-4.028775691986084,-0.35027503967285156,3.9699999999999593
-1.2363897562026978,-4.3312153816223145,-0.7665243148803711,3.979999999999959
-1.2695749998092651,-4.491875171661377,-1.3060641288757324,3.989999999999959
-1.231600046157837,-4.73563289642334,-1.813826084136963,3.9999999999999587
-1.1388943195343018,-5.088600158691406,-2.1755383014678955,4.009999999999959
-1.0754035711288452,-5.395061016082764,-2.4133713245391846,4.019999999999959
-1.0146267414093018,-5.588020324707031,-2.601975917816162,4.0299999999999585
-0.9584205150604248,-5.705843925476074,-2.736895799636841,4.039999999999958
-1.0020028352737427,-5.691344261169434,-2.6675217151641846,4.049999999999958
-1.0871844291687012,-5.700366020202637,-2.515756845474243,4.059999999999958
-1.33229398727417,-5.328899383544922,-2.3172783851623535,4.069999999999958
-1.2528198957443237,-4.90767765045166,-2.0906968116760254,4.079999999999957
-1.1106410026550293,-4.455989837646484,-1.8812754154205322,4.089999999999957
-1.0427607297897339,-4.064716815948486,-1.7033753395080566,4.099999999999957
-1.0901398658752441,-3.843923568725586,-1.5853917598724365,4.109999999999957
-1.1305919885635376,-3.843723773956299,-1.5438411235809326,4.119999999999957
-1.2117146253585815,-3.9874157905578613,-1.55938720703125,4.129999999999956
-1.3597421646118164,-4.234155178070068,-1.572216510772705,4.139999999999956
-1.5032213926315308,-4.53835916519165,-1.548841953277588,4.149999999999956
-1.5417282581329346,-4.7924652099609375,-1.3886513710021973,4.159999999999956
-1.4899147748947144,-5.0826873779296875,-1.2159435749053955,4.1699999999999555
-1.4150723218917847,-5.356393814086914,-1.0353760719299316,4.179999999999955
-1.3272581100463867,-5.606348514556885,-0.901953935623169,4.189999999999955
-1.2890160083770752,-5.83494758605957,-0.7676677703857422,4.199999999999955
-1.2457406520843506,-6.011139869689941,-0.5414395332336426,4.209999999999955
-1.2861676216125488,-6.09675407409668,-0.32354116439819336,4.2199999999999545
-1.219084620475769,-6.122833251953125,-0.16421222686767578,4.229999999999954
-0.9609559774398804,-6.017563819885254,0.07528209686279297,4.239999999999954
-0.9306004643440247,-5.869411468505859,0.32788705825805664,4.249999999999954
-0.871589183807373,-5.532303810119629,0.5072779655456543,4.259999999999954
-0.8430743217468262,-5.077765941619873,0.7420392036437988,4.269999999999953
-0.9021481275558472,-4.55076265335083,0.904383659362793,4.279999999999953
-0.9215019941329956,-3.996091842651367,1.2106549739837646,4.289999999999953
-0.7374223470687866,-3.403268337249756,1.4911885261535645,4.299999999999953
-0.5421737432479858,-2.548952579498291,1.650219440460205,4.3099999999999525
-0.40612998604774475,-1.429945468902588,1.493544101715088,4.319999999999952
-0.23045185208320618,-0.3946695327758789,1.2170488834381104,4.329999999999952
0.016446053981781006,0.6676826477050781,1.0432524681091309,4.339999999999952
0.38785022497177124,2.130732536315918,1.2231080532073975,4.349999999999952
0.7235317230224609,4.202939033508301,1.5905513763427734,4.3599999999999515
0.9899000525474548,7.384305953979492,2.374494791030884,4.369999999999951
0.7843799591064453,11.073460578918457,4.0956902503967285,4.379999999999951
-0.030961990356445312,14.362434387207031,6.5244598388671875,4.389999999999951
-0.5563503503799438,15.222439765930176,8.920324325561523,4.399999999999951
0.11691245436668396,13.435606002807617,9.792875289916992,4.40999999999995
0.30756911635398865,10.762373924255371,9.386526107788086,4.41999999999995
0.1593533158302307,7.987509727478027,8.688167572021484,4.42999999999995
0.418050616979599,5.05293083190918,8.097731590270996,4.43999999999995
1.036292552947998,2.1572771072387695,7.211071968078613,4.4499999999999496
1.5100164413452148,-0.74639892578125,5.416468620300293,4.459999999999949
1.482124924659729,-3.1763062477111816,2.4946563243865967,4.469999999999949
0.42576754093170166,-3.1532158851623535,-0.39556884765625,4.479999999999949
-0.6939147114753723,0.2934913635253906,-1.451890230178833,4.489999999999949
-1.552276611328125,4.900588035583496,-2.3437018394470215,4.4999999999999485
-2.0073177814483643,8.635235786437988,-4.2418694496154785,4.509999999999948
-2.5137839317321777,10.984121322631836,-5.793295383453369,4.519999999999948
-3.4303555488586426,11.880685806274414,-6.388691425323486,4.529999999999948
-4.203214168548584,11.295124053955078,-6.004983901977539,4.539999999999948
-3.5671639442443848,8.801146507263184,-5.045444011688232,4.549999999999947
-3.5904929637908936,5.8979339599609375,-3.3648033142089844,4.559999999999947
-4.003543853759766,3.267889976501465,-1.5145230293273926,4.569999999999947
-4.06096076965332,1.3010034561157227,-0.5793838500976562,4.579999999999947
-3.932556390762329,0.31863975524902344,-0.4741988182067871,4.589999999999947
-3.674682378768921,-0.11737728118896484,-0.5707497596740723,4.599999999999946
-2.528937816619873,-0.47762298583984375,0.07955360412597656,4.609999999999946
-0.6696348786354065,-0.8184146881103516,-0.19379711151123047,4.619999999999946
-0.451379656791687,-1.1733942031860352,-1.66147780418396,4.629999999999946
-1.1884880065917969,-1.5767359733581543,-3.1185073852539062,4.6399999999999455
-0.9934960603713989,-1.8132257461547852,-4.540389060974121,4.649999999999945
-0.7741074562072754,-1.2254548072814941,-4.755230903625488,4.659999999999945
-0.6423018574714661,-0.04998779296875,-3.6910693645477295,4.669999999999945
0.13419562578201294,1.4184608459472656,-2.611292600631714,4.679999999999945
1.471710443496704,2.9140281677246094,-1.7461011409759521,4.689999999999944
3.15224289894104,4.0966997146606445,-1.3298280239105225,4.699999999999944
4.3694562911987305,4.484375,-1.4360318183898926,4.709999999999944
4.629725456237793,4.187426567077637,-2.2818727493286133,4.719999999999944
4.2519378662109375,3.2044601440429688,-3.2609190940856934,4.729999999999944
3.5917720794677734,1.7233028411865234,-4.3521409034729,4.739999999999943
2.40651798248291,0.391448974609375,-5.416938781738281,4.749999999999943
1.4128128290176392,-0.6006460189819336,-6.093701362609863,4.759999999999943
0.3631361126899719,-1.2682695388793945,-6.201686859130859,4.769999999999943
-0.42595234513282776,-1.6341304779052734,-5.8759765625,4.7799999999999425
-1.09951651096344,-1.738356590270996,-5.1922783851623535,4.789999999999942
-1.6088634729385376,-1.7582406997680664,-4.094046115875244,4.799999999999942
-2.031100273132324,-1.7614459991455078,-2.931474208831787,4.809999999999942
-2.211247682571411,-1.681640625,-1.927324652671814,4.819999999999942
-2.237936019897461,-1.5122466087341309,-1.1130177974700928,4.8299999999999415
-2.0123884677886963,-1.351858139038086,-0.43881726264953613,4.839999999999941
-1.765587568283081,-1.2749013900756836,-0.058660030364990234,4.849999999999941
-1.455728530883789,-1.2599153518676758,0.1507558822631836,4.859999999999941
-1.2080878019332886,-1.1800870895385742,0.2665855884552002,4.869999999999941
-0.9969803094863892,-1.193282127380371,0.21998286247253418,4.87999999999994
-0.829328179359436,-1.2802467346191406,-0.014946937561035156,4.88999999999994
-0.6559276580810547,-1.4839191436767578,-0.2635829448699951,4.89999999999994
-0.4104004502296448,-1.825533390045166,-0.8568072319030762,4.90999999999994
-0.2848512530326843,-2.0920581817626953,-1.2640529870986938,4.9199999999999395
-0.24697601795196533,-2.3360233306884766,-1.6803131103515625,4.929999999999939
-0.11411595344543457,-2.468751907348633,-2.061584711074829,4.939999999999939
-0.18229210376739502,-2.4711246490478516,-2.3947017192840576,4.949999999999939
-0.1856933832168579,-2.505831718444824,-2.6087706089019775,4.959999999999939
-0.105338454246521,-2.5632505416870117,-2.659022808074951,4.9699999999999385
-0.07253336906433105,-2.555060863494873,-2.5000510215759277,4.979999999999938
-0.03462636470794678,-2.483917236328125,-2.368391513824463,4.989999999999938
-0.13311421871185303,-2.235276222229004,-2.09118390083313,4.999999999999938
-0.25860077142715454,-1.859696865081787,-1.9355065822601318,5.009999999999938
-0.33015549182891846,-1.491286277770996,-1.824354648590088,5.019999999999937
-0.12290298938751221,-1.4934358596801758,-1.662622332572937,5.029999999999937
-0.1443730592727661,-1.3061637878417969,-1.3882277011871338,5.039999999999937
-0.34229499101638794,-1.0923700332641602,-0.9384333491325378,5.049999999999937
-0.46793168783187866,-1.0410585403442383,-0.6310060024261475,5.0599999999999365
-0.32497256994247437,-1.030146598815918,-0.4633327126502991,5.069999999999936
-0.27013468742370605,-1.1695337295532227,-0.4641929864883423,5.079999999999936
-0.16933917999267578,-1.1410369873046875,-0.39910924434661865,5.089999999999936
-0.010309934616088867,-1.243870735168457,-0.23426669836044312,5.099999999999936
0.17145049571990967,-1.3368940353393555,-0.048456668853759766,5.1099999999999355
0.34759247303009033,-1.4727840423583984,0.050755858421325684,5.119999999999935
0.4416930675506592,-1.4123468399047852,-0.01823294162750244,5.129999999999935
0.5111347436904907,-1.2346868515014648,-0.13845252990722656,5.139999999999935
0.6201555728912354,-1.0068597793579102,-0.23099935054779053,5.149999999999935
0.7351105213165283,-0.9298553466796875,-0.2760322093963623,5.159999999999934
0.7169152498245239,-0.8719720840454102,-0.3257005214691162,5.169999999999934
0.7496271133422852,-0.7901458740234375,-0.3629213869571686,5.179999999999934
0.7491796016693115,-0.8206634521484375,-0.3229876756668091,5.189999999999934
0.7416770458221436,-0.8485689163208008,-0.3256251811981201,5.199999999999934
0.8013430833816528,-0.8690700531005859,-0.3016344904899597,5.209999999999933
0.760656476020813,-0.8917245864868164,-0.30137890577316284,5.219999999999933
0.6915038824081421,-0.9212942123413086,-0.2509515583515167,5.229999999999933
0.6560816764831543,-0.9147205352783203,-0.23666158318519592,5.239999999999933
0.6761990785598755,-0.9581823348999023,-0.16739115118980408,5.2499999999999325
0.6421345472335815,-0.9751529693603516,-0.08110424876213074,5.259999999999932
0.6068638563156128,-0.9035358428955078,-0.05658692121505737,5.269999999999932
0.6041042804718018,-0.8510513305664062,-0.20382489264011383,5.279999999999932
0.5884691476821899,-0.781804084777832,-0.3003244400024414,5.289999999999932
0.6583695411682129,-0.6838846206665039,-0.3533155620098114,5.299999999999931
0.5916180610656738,-0.6027679443359375,-0.4206211268901825,5.309999999999931
0.486713171005249,-0.5169239044189453,-0.38798028230667114,5.319999999999931
0.4635121822357178,-0.37854576110839844,-0.2296442836523056,5.329999999999931
0.4336167573928833,-0.23314380645751953,0.010681979358196259,5.339999999999931
0.3587791323661804,-0.12137222290039062,0.32561615109443665,5.34999999999993
0.2578045725822449,-0.10531806945800781,0.5930202007293701,5.35999999999993
0.19505369663238525,-0.046156883239746094,0.7029626369476318,5.36999999999993
0.14386022090911865,0.025007247924804688,0.8112839460372925,5.37999999999993
0.13488709926605225,0.06276607513427734,0.7649701833724976,5.3899999999999295
0.1483810544013977,0.24414443969726562,0.5544265508651733,5.399999999999929
0.2604129910469055,0.3753194808959961,0.5582505464553833,5.409999999999929
0.42966562509536743,0.561610221862793,0.6428758502006531,5.419999999999929
0.6218956708908081,0.7671241760253906,0.6600526571273804,5.429999999999929
0.8247876167297363,1.0157432556152344,0.5903832912445068,5.4399999999999284
0.9778763651847839,1.2285137176513672,0.5555552244186401,5.449999999999928
1.119070291519165,1.510676383972168,0.6534799337387085,5.459999999999928
1.2408696413040161,1.6732368469238281,0.8770043849945068,5.469999999999928
1.4080405235290527,1.6732711791992188,1.1305155754089355,5.479999999999928
1.637751817703247,1.6041860580444336,1.3231570720672607,5.489999999999927
1.8562672138214111,1.4899215698242188,1.406928539276123,5.499999999999927
2.0233356952667236,1.366347312927246,1.441408395767212,5.509999999999927
2.1869735717773438,1.3219146728515625,1.5149812698364258,5.519999999999927
2.4024786949157715,1.325413703918457,1.646772861480713,5.5299999999999265
2.605220317840576,1.3743782043457031,1.7338690757751465,5.539999999999926
2.8790321350097656,1.4328718185424805,1.8003816604614258,5.549999999999926
3.075381278991699,1.524785041809082,1.8055541515350342,5.559999999999926
3.251502513885498,1.5233144760131836,1.796895980834961,5.569999999999926
3.5339999198913574,1.6293840408325195,1.7069623470306396,5.5799999999999255
3.6665728092193604,1.6706790924072266,1.6934314966201782,5.589999999999925
3.7205698490142822,1.7429084777832031,1.7273139953613281,5.599999999999925
3.815509080886841,1.812535285949707,1.7892903089523315,5.609999999999925
4.047347068786621,1.9129867553710938,1.733008623123169,5.619999999999925
4.200747966766357,2.017857551574707,1.4597253799438477,5.629999999999924
4.18652868270874,2.1868762969970703,1.093174695968628,5.639999999999924
3.9871649742126465,2.446247100830078,0.6758396029472351,5.649999999999924
3.812530517578125,3.0015182495117188,0.3821859657764435,5.659999999999924
3.5615949630737305,3.5009031295776367,0.33688440918922424,5.6699999999999235
3.286691904067993,4.08323860168457,0.29861465096473694,5.679999999999923
3.2033591270446777,4.504616737365723,0.39472198486328125,5.689999999999923
3.180461883544922,4.695964813232422,0.5178355574607849,5.699999999999923
3.221039295196533,4.303704261779785,0.33250099420547485,5.709999999999923
3.2157466411590576,3.6872262954711914,-0.14095094799995422,5.7199999999999225
3.0335261821746826,3.1983537673950195,-0.5877425670623779,5.729999999999922
2.8710145950317383,2.5979270935058594,-0.9366720914840698,5.739999999999922
2.733311891555786,1.9053668975830078,-1.1735190153121948,5.749999999999922
2.597166061401367,1.2835283279418945,-1.5116450786590576,5.759999999999922
2.264988422393799,0.7348690032958984,-2.0736312866210938,5.769999999999921
1.7667663097381592,0.2451314926147461,-2.6418604850769043,5.779999999999921
1.0109100341796875,-0.26928234100341797,-2.9477593898773193,5.789999999999921
0.1685175895690918,-0.6025533676147461,-2.8467891216278076,5.799999999999921
-0.5753921866416931,-1.0130434036254883,-2.4285926818847656,5.809999999999921
-1.3917279243469238,-1.2496395111083984,-1.8101751804351807,5.81999999999992
-2.291189193725586,-1.2241544723510742,-1.4759571552276611,5.82999999999992
-3.1536455154418945,-1.051727294921875,-1.1020910739898682,5.83999999999992
-3.737520694732666,-0.6368923187255859,-0.8006922602653503,5.84999999999992
-4.235651016235352,-0.23329448699951172,-0.559784471988678,5.8599999999999195
-4.331878185272217,0.4484367370605469,-0.12480199337005615,5.869999999999919
-4.036282539367676,1.1998329162597656,0.3433011770248413,5.879999999999919
-3.593818187713623,2.070810317993164,0.779634952545166,5.889999999999919
-3.081484079360962,2.7262449264526367,1.0037485361099243,5.899999999999919
-2.381221294403076,3.1447200775146484,0.972948431968689,5.909999999999918
-1.8739216327667236,3.4197654724121094,0.743930459022522,5.919999999999918
-1.5234084129333496,3.6497039794921875,0.5234118700027466,5.929999999999918
-1.3215230703353882,3.7964954376220703,0.30503082275390625,5.939999999999918
-1.2759008407592773,3.748000144958496,0.08741819858551025,5.949999999999918
-1.310021162033081,3.5524415969848633,-0.14981722831726074,5.959999999999917
-1.7092723846435547,3.2460107803344727,-0.34772515296936035,5.969999999999917
-2.3480710983276367,3.039468765258789,-0.5621873140335083,5.979999999999917
-2.7400944232940674,2.8372926712036133,-0.8059700727462769,5.989999999999917
-2.7152323722839355,2.627643585205078,-1.127027153968811,5.9999999999999165
-2.374258518218994,2.544475555419922,-1.386310338973999,6.009999999999916
-1.8586742877960205,2.570850372314453,-1.580915093421936,6.019999999999916
-1.2215174436569214,2.515317916870117,-1.6195656061172485,6.029999999999916
-0.8296023607254028,2.3946638107299805,-1.676378846168518,6.039999999999916
-0.47118741273880005,2.0413827896118164,-1.6521929502487183,6.0499999999999154
-0.32467618584632874,1.7566070556640625,-1.6267518997192383,6.059999999999915
0.08071109652519226,1.5493078231811523,-1.7540152072906494,6.069999999999915
0.29872584342956543,1.3808202743530273,-2.047372341156006,6.079999999999915
0.6692291498184204,1.2578248977661133,-2.395742893218994,6.089999999999915
0.7696511745452881,0.9933805465698242,-2.8607215881347656,6.099999999999914
0.6702153086662292,0.4298267364501953,-3.158043622970581,6.109999999999914
0.3377046287059784,-0.10706329345703125,-3.3557376861572266,6.119999999999914
0.048135727643966675,-0.739384651184082,-3.126408100128174,6.129999999999914
-0.23911139369010925,-1.5987424850463867,-2.7022552490234375,6.1399999999999135
-0.3949490487575531,-2.525014877319336,-2.075719118118286,6.149999999999913
-0.41005727648735046,-3.262484550476074,-1.5026521682739258,6.159999999999913
-0.5886063575744629,-3.8833441734313965,-1.1811769008636475,6.169999999999913
-0.8590263724327087,-4.318596363067627,-1.1298799514770508,6.179999999999913
-1.1087379455566406,-4.788741588592529,-1.2356956005096436,6.1899999999999125
-1.2129197120666504,-5.308377265930176,-1.412034273147583,6.199999999999912
-1.1153665781021118,-5.789061546325684,-1.6279428005218506,6.209999999999912
-1.228696346282959,-6.3313398361206055,-1.8859930038452148,6.219999999999912
-1.3129632472991943,-6.722187042236328,-2.093426465988159,6.229999999999912
-1.3508960008621216,-6.923361778259277,-2.270007848739624,6.239999999999911
-1.4357470273971558,-6.8274149894714355,-2.217613935470581,6.249999999999911
-1.5989408493041992,-6.539938449859619,-2.089580774307251,6.259999999999911
-1.690086007118225,-6.070837020874023,-1.8523585796356201,6.269999999999911
-1.8174164295196533,-5.53270959854126,-1.6519572734832764,6.2799999999999105
-1.762502908706665,-4.698395729064941,-1.3042702674865723,6.28999999999991
-1.5171040296554565,-3.9269556999206543,-0.9552133083343506,6.29999999999991
-1.5263912677764893,-3.4692673683166504,-0.7771835327148438,6.30999999999991
-1.3646526336669922,-3.1503281593322754,-0.6552984714508057,6.31999999999991
-1.3113999366760254,-3.175570011138916,-0.5585157871246338,6.3299999999999095
-1.3663420677185059,-3.338898181915283,-0.5370759963989258,6.339999999999909
-1.3215582370758057,-3.6139559745788574,-0.5093073844909668,6.349999999999909
-1.2344446182250977,-3.998269557952881,-0.5611610412597656,6.359999999999909
-1.1216635704040527,-4.3698296546936035,-0.6110424995422363,6.369999999999909
-1.0503087043762207,-4.6952056884765625,-0.6444711685180664,6.379999999999908
-0.908281683921814,-4.95060920715332,-0.5727458000183105,6.389999999999908
-0.8705170154571533,-5.064460754394531,-0.41245293617248535,6.399999999999908
-0.8703880310058594,-5.12778377532959,-0.22811126708984375,6.409999999999908
-0.8770012855529785,-5.064090728759766,0.030578136444091797,6.419999999999908
-0.9022824168205261,-4.983509063720703,0.3541116714477539,6.429999999999907
-0.9246304035186768,-4.828523635864258,0.6107997894287109,6.439999999999907
-0.9129688739776611,-4.558248519897461,0.8241701126098633,6.449999999999907
-0.9415496587753296,-4.174741268157959,0.9910752773284912,6.459999999999907
-0.7926775217056274,-3.680065155029297,1.2135443687438965,6.4699999999999065
-0.6172323226928711,-3.145660877227783,1.4428768157958984,6.479999999999906
-0.31431499123573303,-2.5615577697753906,1.6685068607330322,6.489999999999906
-0.0048503875732421875,-1.8938674926757812,1.8485610485076904,6.499999999999906
0.3405204117298126,-1.2090764045715332,1.9433319568634033,6.509999999999906
0.48010653257369995,-0.6620874404907227,1.8868932723999023,6.519999999999905
0.7912842631340027,0.010672569274902344,1.950575590133667,6.529999999999905
1.0605310201644897,0.9027776718139648,2.060635566711426,6.539999999999905
1.1478025913238525,2.0052127838134766,2.2453320026397705,6.549999999999905
1.3516149520874023,3.8950557708740234,2.7475364208221436,6.559999999999905
1.3222410678863525,6.467347145080566,3.46065616607666,6.569999999999904
0.9881385564804077,9.334835052490234,4.669190406799316,6.579999999999904
0.2503829002380371,11.260748863220215,6.595996856689453,6.589999999999904
0.11459308862686157,10.82470989227295,8.359029769897461,6.599999999999904
-0.07762980461120605,8.874699592590332,9.137444496154785,6.6099999999999035
-0.384102463722229,6.224827766418457,8.662008285522461,6.619999999999903
-0.47926566004753113,3.4758033752441406,7.724127769470215,6.629999999999903
-0.11588549613952637,0.7447576522827148,6.6879096031188965,6.639999999999903
0.5151424407958984,-1.748331069946289,4.996003150939941,6.649999999999903
0.603871762752533,-3.2503085136413574,2.0940496921539307,6.659999999999902
-0.21368128061294556,-2.422069549560547,-0.15105605125427246,6.669999999999902
-0.7581510543823242,1.0468950271606445,-0.8045191764831543,6.679999999999902
-1.1967705488204956,4.957399368286133,-1.7184946537017822,6.689999999999902
-1.4640178680419922,8.27402114868164,-4.044867515563965,6.699999999999902
-1.653075933456421,10.959930419921875,-5.986547470092773,6.709999999999901
-2.2756876945495605,12.62355899810791,-6.677918434143066,6.719999999999901
-3.517941951751709,13.271559715270996,-6.562782287597656,6.729999999999901
-5.192690372467041,11.943626403808594,-6.198009490966797,6.739999999999901
-6.473877429962158,8.692550659179688,-5.251091003417969,6.7499999999999005
-6.608320236206055,4.651238441467285,-3.4570765495300293,6.7599999999999
-6.07304048538208,1.4867334365844727,-1.7939701080322266,6.7699999999999
-5.18404483795166,0.6055049896240234,-0.8074946403503418,6.7799999999999
-4.264557361602783,1.4365415573120117,-0.6513867378234863,6.7899999999999
-3.3766069412231445,2.5552492141723633,-0.5777370929718018,6.7999999999998995
-2.7534918785095215,2.756254196166992,-0.46036267280578613,6.809999999999899
-2.518501043319702,1.8472976684570312,-1.035494089126587,6.819999999999899
-2.2883949279785156,0.47727108001708984,-1.7827749252319336,6.829999999999899
-1.7979605197906494,-0.5221929550170898,-2.638535261154175,6.839999999999899
-1.282056212425232,-0.7947273254394531,-3.5568809509277344,6.849999999999898
-1.2029032707214355,-0.45351219177246094,-4.216097354888916,6.859999999999898
-1.0858079195022583,0.1863718032836914,-4.4762678146362305,6.869999999999898
-0.6717864871025085,0.9861030578613281,-4.366974830627441,6.879999999999898
0.020258605480194092,1.8539505004882812,-4.046669006347656,6.8899999999998975
0.8231530785560608,2.4660825729370117,-3.6895105838775635,6.899999999999897
1.4495429992675781,2.5995712280273438,-3.3884003162384033,6.909999999999897
1.8577638864517212,2.099217414855957,-3.313894271850586,6.919999999999897
1.9213835000991821,1.3532543182373047,-3.4414873123168945,6.929999999999897
1.767108678817749,0.24735164642333984,-3.7184033393859863,6.9399999999998965
1.410520315170288,-0.8421649932861328,-4.054379463195801,6.949999999999896
1.1044268608093262,-1.833205223083496,-4.200198650360107,6.959999999999896
0.7941543459892273,-2.4833130836486816,-4.305237770080566,6.969999999999896
0.4592708945274353,-2.71781587600708,-4.303890228271484,6.979999999999896
0.1381632685661316,-2.668397903442383,-3.985549211502075,6.989999999999895
-0.20222437381744385,-2.4909229278564453,-3.4561922550201416,6.999999999999895
-0.4578022360801697,-2.1501011848449707,-2.7507312297821045,7.009999999999895
-0.647447407245636,-1.7996273040771484,-1.9440346956253052,7.019999999999895
-0.5603155493736267,-1.4016227722167969,-1.39311683177948,7.0299999999998946
-0.27210748195648193,-0.9705572128295898,-1.05867338180542,7.039999999999894
0.07535231113433838,-0.7453842163085938,-1.0795152187347412,7.049999999999894
0.43627119064331055,-0.5700798034667969,-1.0521551370620728,7.059999999999894
0.7814732789993286,-0.5160188674926758,-0.9775842428207397,7.069999999999894
0.8906182050704956,-0.5636987686157227,-0.8949098587036133,7.0799999999998935
1.0274277925491333,-0.6460351943969727,-0.8571006059646606,7.089999999999893
1.031937837600708,-0.9973697662353516,-0.9119713306427002,7.099999999999893
0.9092347621917725,-1.3592185974121094,-0.9708008766174316,7.109999999999893
0.6788184642791748,-1.638333797454834,-1.069640040397644,7.119999999999893
0.5086053609848022,-1.9209299087524414,-1.2254503965377808,7.129999999999892
0.34173381328582764,-2.1019487380981445,-1.3375451564788818,7.139999999999892
0.09492290019989014,-2.2103629112243652,-1.5204520225524902,7.149999999999892
-0.06432473659515381,-2.236832618713379,-1.6086068153381348,7.159999999999892
-0.23674488067626953,-2.215066432952881,-1.6301212310791016,7.169999999999892
-0.33626240491867065,-2.1117262840270996,-1.6205780506134033,7.179999999999891
-0.37488776445388794,-1.9795141220092773,-1.5657503604888916,7.189999999999891
-0.4720965623855591,-1.8016948699951172,-1.434955358505249,7.199999999999891
-0.5872728228569031,-1.5209054946899414,-1.3552467823028564,7.209999999999891
-0.6344060301780701,-1.19232177734375,-1.2425717115402222,7.2199999999998905
-0.5110175013542175,-1.1029348373413086,-1.1350951194763184,7.22999999999989
-0.2963683605194092,-1.0658588409423828,-0.920913577079773,7.23999999999989
-0.10955071449279785,-1.0953054428100586,-0.663557231426239,7.24999999999989
-0.017273426055908203,-1.250931739807129,-0.37106043100357056,7.25999999999989
0.21518385410308838,-1.3173999786376953,-0.22094273567199707,7.269999999999889
0.3245447874069214,-1.1609106063842773,-0.3497866988182068,7.279999999999889
0.16459059715270996,-0.8033514022827148,-0.45027846097946167,7.289999999999889
0.3600846529006958,-0.5680656433105469,-0.12595981359481812,7.299999999999889
0.7511630058288574,-0.643986701965332,0.011237740516662598,7.309999999999889
1.0174245834350586,-0.7819995880126953,-0.09668391942977905,7.319999999999888
1.1493147611618042,-0.9723491668701172,-0.13484841585159302,7.329999999999888
1.3209195137023926,-1.2053422927856445,-0.12972593307495117,7.339999999999888
1.5366629362106323,-1.263413429260254,-0.14243078231811523,7.349999999999888
1.535597801208496,-1.2472953796386719,-0.17641979455947876,7.3599999999998875
1.5618391036987305,-1.269515037536621,-0.08736807107925415,7.369999999999887
1.5794235467910767,-1.387406349182129,0.012411534786224365,7.379999999999887
1.5738898515701294,-1.4405889511108398,-0.061537086963653564,7.389999999999887
1.5740292072296143,-1.443476676940918,-0.08433109521865845,7.399999999999887
1.5749820470809937,-1.5180788040161133,0.02083432674407959,7.4099999999998865
1.4690570831298828,-1.530390739440918,0.14643830060958862,7.419999999999886
1.406821370124817,-1.4445667266845703,0.17512571811676025,7.429999999999886
1.3641254901885986,-1.4256696701049805,0.23120731115341187,7.439999999999886
1.3718273639678955,-1.387495994567871,0.3026236593723297,7.449999999999886
1.326897144317627,-1.3826427459716797,0.34633398056030273,7.459999999999885
1.224560260772705,-1.427779197692871,0.38132643699645996,7.469999999999885
1.1199946403503418,-1.3865423202514648,0.4169919490814209,7.479999999999885
0.9346805810928345,-1.2877473831176758,0.400188148021698,7.489999999999885
0.8030169606208801,-1.1386632919311523,0.368820458650589,7.4999999999998845
0.7157289981842041,-1.0637264251708984,0.5502341389656067,7.509999999999884
0.6181289553642273,-0.9074497222900391,0.7576631903648376,7.519999999999884
0.5486800074577332,-0.7823238372802734,0.9310908913612366,7.529999999999884
0.6007409691810608,-0.6094112396240234,1.0607388019561768,7.539999999999884
0.6448274254798889,-0.4102621078491211,1.180105447769165,7.5499999999998835
0.7191082239151001,-0.2040252685546875,1.2605534791946411,7.559999999999883
0.8686997294425964,-0.019378662109375,1.211199402809143,7.569999999999883
0.9951722621917725,0.18677711486816406,1.1327348947525024,7.579999999999883
1.1461429595947266,0.44073963165283203,1.08769690990448,7.589999999999883
1.2829084396362305,0.7927055358886719,0.937535285949707,7.599999999999882
1.4244791269302368,1.0656232833862305,0.8546785116195679,7.609999999999882
1.4462192058563232,1.2859134674072266,0.716946005821228,7.619999999999882
1.5154705047607422,1.544499397277832,0.6101269125938416,7.629999999999882
1.5458807945251465,1.7217655181884766,0.5863384008407593,7.6399999999998816
1.4991841316223145,1.8871231079101562,0.6522403955459595,7.649999999999881
1.4281437397003174,2.0692338943481445,0.7786107063293457,7.659999999999881
1.3423652648925781,2.14129638671875,0.8906867504119873,7.669999999999881
1.234788179397583,2.208590507507324,1.0262820720672607,7.679999999999881
1.1914734840393066,2.1419496536254883,1.2136790752410889,7.6899999999998805
1.1214978694915771,2.053896903991699,1.3764197826385498,7.69999999999988
1.0799081325531006,1.9994287490844727,1.5744298696517944,7.70999999999988
1.1217424869537354,1.952188491821289,1.719398856163025,7.71999999999988
1.2612662315368652,1.9241085052490234,1.892822027206421,7.72999999999988
1.299533486366272,1.9438409805297852,1.9008705615997314,7.739999999999879
1.4827046394348145,1.9611263275146484,2.023871898651123,7.749999999999879
1.70973801612854,2.0429115295410156,2.020203113555908,7.759999999999879
1.980369210243225,2.155634880065918,2.0312185287475586,7.769999999999879
2.196115255355835,2.131856918334961,2.0304744243621826,7.779999999999879
2.4333951473236084,2.1008358001708984,1.984271764755249,7.789999999999878
2.692077159881592,2.0577621459960938,1.9904913902282715,7.799999999999878
2.814225673675537,2.012221336364746,1.975162386894226,7.809999999999878
2.974785327911377,2.0645980834960938,2.0048575401306152,7.819999999999878
3.1332926750183105,1.9946260452270508,1.7548093795776367,7.8299999999998775
3.1436188220977783,1.9817628860473633,1.5357906818389893,7.839999999999877
3.125072717666626,2.0618228912353516,1.1588693857192993,7.849999999999877
3.1418299674987793,2.2562055587768555,0.5855932831764221,7.859999999999877
3.02352237701416,2.701043128967285,-0.017240703105926514,7.869999999999877
2.759941339492798,3.3171310424804688,-0.6645763516426086,7.879999999999876
2.580955743789673,3.8389663696289062,-0.9299929738044739,7.889999999999876
2.4296913146972656,4.008563995361328,-0.9492311477661133,7.899999999999876
2.3881077766418457,3.905344009399414,-1.1721123456954956,7.909999999999876
2.296703815460205,3.4172792434692383,-1.590072512626648,7.919999999999876
2.1512610912323,2.812689781188965,-2.0992746353149414,7.929999999999875
1.9739333391189575,2.142024040222168,-2.636648416519165,7.939999999999875
1.7582770586013794,1.4390010833740234,-3.0790841579437256,7.949999999999875
1.4861751794815063,0.8091020584106445,-3.424896478652954,7.959999999999875
1.240248441696167,0.4629392623901367,-3.5008411407470703,7.9699999999998745
0.995574951171875,-0.008456230163574219,-3.3628854751586914,7.979999999999874
0.537729024887085,-0.46124744415283203,-2.9538722038269043,7.989999999999874
-0.23780480027198792,-0.6084136962890625,-2.488600730895996,7.999999999999874
