AccX,AccY,AccZ,SampleRate
2.8182859420776367,3.326807975769043,1.117333173751831,0
2.361755847930908,2.991241455078125,0.8611918091773987,0.01
1.8540518283843994,2.8182830810546875,0.4565529227256775,0.02
1.4037355184555054,3.022707939147949,-0.02521073818206787,0.03
0.9883439540863037,3.5130414962768555,-0.29301315546035767,0.04
0.5167819261550903,4.207587242126465,-0.21381297707557678,0.05
-0.2138744592666626,4.914856910705566,0.025394126772880554,0.060000000000000005
-1.045292854309082,5.218876838684082,0.013057038187980652,0.07
-1.5631623268127441,5.05811882019043,-0.4185250699520111,0.08
-1.9010252952575684,4.488311767578125,-1.1358593702316284,0.09
-1.9485039710998535,3.6846532821655273,-1.606224775314331,0.09999999999999999
-1.8940913677215576,2.7814884185791016,-1.6468207836151123,0.10999999999999999
-1.6603541374206543,2.0827770233154297,-1.2469027042388916,0.11999999999999998
-1.3134294748306274,1.578883171081543,-0.4208682179450989,0.12999999999999998
-0.9943391680717468,1.415513038635254,0.331958532333374,0.13999999999999999
-0.7348411679267883,1.55401611328125,0.49282968044281006,0.15
-0.7079980969429016,1.7716913223266602,-0.04767758399248123,0.16
-0.6245955228805542,1.8270673751831055,-0.82954341173172,0.17
-0.43628209829330444,1.7468338012695312,-1.6511260271072388,0.18000000000000002
-0.27137964963912964,1.5600242614746094,-2.2725467681884766,0.19000000000000003
-0.2558116316795349,1.49163818359375,-2.6429483890533447,0.20000000000000004
-0.37474796175956726,1.618086814880371,-2.8048155307769775,0.21000000000000005
-0.6062366962432861,1.989293098449707,-2.876295804977417,0.22000000000000006
-0.9187864661216736,2.4996423721313477,-2.8964314460754395,0.23000000000000007
-1.3717942237854004,2.914492607116699,-2.861266613006592,0.24000000000000007
-1.8573729991912842,3.209920883178711,-2.7508883476257324,0.25000000000000006
-2.4762556552886963,3.395536422729492,-2.5197644233703613,0.26000000000000006
-2.9630284309387207,3.41402530670166,-2.158607006072998,0.2700000000000001
-3.336932420730591,3.416196823120117,-1.6391587257385254,0.2800000000000001
-3.6410419940948486,3.464202880859375,-1.0431737899780273,0.2900000000000001
-3.8732235431671143,3.5268869400024414,-0.4404207468032837,0.3000000000000001
-4.08400297164917,3.566020965576172,0.0703577995300293,0.3100000000000001
-4.244794845581055,3.438234329223633,0.41451430320739746,0.3200000000000001
-4.336886405944824,3.196436882019043,0.6752369403839111,0.3300000000000001
-4.358371257781982,2.7834997177124023,0.8567665815353394,0.34000000000000014
-4.283145904541016,2.2356252670288086,0.8127647638320923,0.35000000000000014
-4.070612907409668,1.5195837020874023,0.6699749231338501,0.36000000000000015
-3.6797895431518555,0.757603645324707,0.2871302366256714,0.37000000000000016
-3.071643590927124,0.0501708984375,-0.24238157272338867,0.38000000000000017
-2.5229291915893555,-0.5884838104248047,-0.6241781711578369,0.3900000000000002
-2.020996332168579,-1.1823930740356445,-1.0019243955612183,0.4000000000000002
-1.5101613998413086,-1.793837547302246,-1.342119812965393,0.4100000000000002
-0.9727232456207275,-2.4205965995788574,-1.5079939365386963,0.4200000000000002
-0.4032631814479828,-3.0103182792663574,-1.513240098953247,0.4300000000000002
-0.03619581460952759,-3.450868606567383,-1.553454041481018,0.4400000000000002
0.05199992656707764,-3.778381824493408,-1.7336606979370117,0.45000000000000023
0.3257349133491516,-4.0552778244018555,-1.8479739427566528,0.46000000000000024
0.5265556573867798,-4.183679103851318,-1.901171326637268,0.47000000000000025
0.4962303638458252,-4.051392078399658,-2.0033767223358154,0.48000000000000026
0.380642294883728,-3.950408458709717,-2.130939245223999,0.49000000000000027
0.40449655055999756,-3.8926010131835938,-2.169339418411255,0.5000000000000002
0.522313117980957,-3.87320613861084,-2.018167734146118,0.5100000000000002
0.4829268455505371,-3.8277578353881836,-1.7657208442687988,0.5200000000000002
0.3314328193664551,-3.7348194122314453,-1.5194361209869385,0.5300000000000002
-0.06427311897277832,-3.623197078704834,-1.2239218950271606,0.5400000000000003
-0.5372430086135864,-3.593417167663574,-0.9696224927902222,0.5500000000000003
-0.6497964262962341,-3.71262788772583,-0.6121139526367188,0.5600000000000003
-0.8496849536895752,-3.770416259765625,-0.3087880611419678,0.5700000000000003
-0.9310869574546814,-3.8051071166992188,-0.32286739349365234,0.5800000000000003
-1.0134615898132324,-3.838207244873047,-0.43916869163513184,0.5900000000000003
-1.1110740900039673,-3.821878433227539,-0.6028203964233398,0.6000000000000003
-1.1928200721740723,-3.8064050674438477,-0.7421228885650635,0.6100000000000003
-1.1868609189987183,-3.8205552101135254,-0.8306992053985596,0.6200000000000003
-1.1529945135116577,-3.881100654602051,-0.8494019508361816,0.6300000000000003
-1.0077143907546997,-3.988049030303955,-0.7861757278442383,0.6400000000000003
-0.9089575409889221,-4.1653594970703125,-0.6791446208953857,0.6500000000000004
-0.8015040755271912,-4.288666725158691,-0.6000475883483887,0.6600000000000004
-0.6466779112815857,-4.405867099761963,-0.5658004283905029,0.6700000000000004
-0.45122963190078735,-4.5910820960998535,-0.54315185546875,0.6800000000000004
-0.1884220838546753,-4.7509541511535645,-0.5156259536743164,0.6900000000000004
-0.05669283866882324,-4.875982284545898,-0.40665650367736816,0.7000000000000004
-0.02498042583465576,-4.88726806640625,-0.29288220405578613,0.7100000000000004
-0.16788333654403687,-4.7873005867004395,-0.11918878555297852,0.7200000000000004
-0.25384092330932617,-4.671797275543213,0.06658387184143066,0.7300000000000004
-0.20425236225128174,-4.5167975425720215,0.23564577102661133,0.7400000000000004
-0.12700068950653076,-4.31501579284668,0.33260583877563477,0.7500000000000004
-0.02932429313659668,-4.095057487487793,0.43128180503845215,0.7600000000000005
0.0503925085067749,-3.8760948181152344,0.6465933322906494,0.7700000000000005
0.15716230869293213,-3.6892333030700684,0.8734657764434814,0.7800000000000005
0.2832476496696472,-3.515296459197998,0.956657886505127,0.7900000000000005
0.36367160081863403,-3.323002815246582,0.8170566558837891,0.8000000000000005
0.5440467000007629,-3.1431593894958496,0.5019454956054688,0.8100000000000005
0.8315792679786682,-2.9706521034240723,0.15874791145324707,0.8200000000000005
1.2170767784118652,-2.7287707328796387,-0.12956881523132324,0.8300000000000005
1.7200756072998047,-2.3791871070861816,-0.30875682830810547,0.8400000000000005
2.1301491260528564,-1.8525514602661133,-0.43205857276916504,0.8500000000000005
2.3871970176696777,-1.1943378448486328,-0.5167434215545654,0.8600000000000005
2.4883759021759033,-0.43802547454833984,-0.5178031921386719,0.8700000000000006
2.399731159210205,0.3949861526489258,-0.4359893798828125,0.8800000000000006
2.046231985092163,1.2738819122314453,-0.3584427833557129,0.8900000000000006
1.651658535003662,2.2013626098632812,-0.15934300422668457,0.9000000000000006
1.250162124633789,3.1368160247802734,0.32141876220703125,0.9100000000000006
0.8472896218299866,3.9196929931640625,1.1471264362335205,0.9200000000000006
0.4724694490432739,4.700484275817871,1.8615548610687256,0.9300000000000006
-0.027693510055541992,5.469414710998535,2.3694064617156982,0.9400000000000006
-0.5166959762573242,6.022899627685547,3.1216490268707275,0.9500000000000006
-0.7271443009376526,6.41092586517334,4.000134468078613,0.9600000000000006
-0.8887777924537659,6.568742752075195,4.728589057922363,0.9700000000000006
-0.8928995132446289,6.44379997253418,5.19050407409668,0.9800000000000006
-0.8985358476638794,5.818742752075195,5.47470760345459,0.9900000000000007
-0.8686857223510742,4.7180681228637695,5.597972869873047,1.0000000000000007
-0.8625739812850952,3.4270219802856445,5.447610855102539,1.0100000000000007
-0.7074152231216431,2.259418487548828,4.88164758682251,1.0200000000000007
-0.785412073135376,1.3694849014282227,3.2841572761535645,1.0300000000000007
-0.9931782484054565,0.9618253707885742,1.421114444732666,1.0400000000000007
-1.520082950592041,1.122511863708496,0.4271879196166992,1.0500000000000007
-2.429905414581299,2.044062614440918,-0.047977447509765625,1.0600000000000007
-3.2691712379455566,3.9207000732421875,-0.38666296005249023,1.0700000000000007
-3.446498394012451,6.548678398132324,0.05190157890319824,1.0800000000000007
-2.917975425720215,9.331780433654785,0.6439259052276611,1.0900000000000007
-2.063333511352539,11.54104995727539,-0.15794849395751953,1.1000000000000008
-1.4236674308776855,13.025334358215332,-1.919012427330017,1.1100000000000008
-0.8938229084014893,13.71025562286377,-3.211160898208618,1.1200000000000008
-1.1781344413757324,13.297626495361328,-3.750417470932007,1.1300000000000008
-3.0955662727355957,11.156573295593262,-4.035670757293701,1.1400000000000008
-5.803721904754639,7.607549667358398,-4.488846302032471,1.1500000000000008
-7.737062454223633,3.8333301544189453,-4.502742290496826,1.1600000000000008
-7.358056545257568,0.4084281921386719,-3.699050188064575,1.1700000000000008
-5.030521392822266,-2.161022186279297,-2.6809794902801514,1.1800000000000008
-3.4215474128723145,-3.701073169708252,-2.48770809173584,1.1900000000000008
-2.6306636333465576,-4.305511951446533,-2.663313388824463,1.2000000000000008
-2.018176555633545,-4.412888526916504,-2.2798190116882324,1.2100000000000009
-1.4443848133087158,-4.346921443939209,-1.5161277055740356,1.2200000000000009
-0.8359830379486084,-4.235020637512207,-0.9809240102767944,1.2300000000000009
-0.38901036977767944,-4.0586090087890625,-0.8565402030944824,1.2400000000000009
-0.06407040357589722,-3.877974510192871,-0.9739041328430176,1.2500000000000009
0.17851775884628296,-3.461325168609619,-1.2033369541168213,1.260000000000001
0.29000914096832275,-2.9188547134399414,-1.5763182640075684,1.270000000000001
0.4362978935241699,-2.284069538116455,-1.8540658950805664,1.280000000000001
0.4907916784286499,-1.7459769248962402,-2.1275572776794434,1.290000000000001
0.6095853447914124,-1.3811168670654297,-2.2767882347106934,1.300000000000001
1.1440129280090332,-1.1536731719970703,-2.499905824661255,1.310000000000001
1.70896315574646,-1.0519609451293945,-2.6356046199798584,1.320000000000001
2.124253034591675,-0.9638738632202148,-2.7184455394744873,1.330000000000001
2.343107223510742,-0.7989101409912109,-2.8019306659698486,1.340000000000001
2.2365074157714844,-0.6361513137817383,-2.8803112506866455,1.350000000000001
1.904757022857666,-0.4538297653198242,-3.0946803092956543,1.360000000000001
1.4404499530792236,-0.17482566833496094,-3.3865013122558594,1.370000000000001
0.6453057527542114,0.15381622314453125,-3.5452394485473633,1.380000000000001
-0.32822662591934204,0.4540433883666992,-3.499664068222046,1.390000000000001
-0.9979296922683716,0.6404457092285156,-3.1230573654174805,1.400000000000001
-1.4553580284118652,0.7253637313842773,-2.3809571266174316,1.410000000000001
-1.4222502708435059,0.6563205718994141,-1.5013704299926758,1.420000000000001
-1.1383087635040283,0.34249114990234375,-0.6158469915390015,1.430000000000001
-0.8346743583679199,-0.14668560028076172,0.09420585632324219,1.440000000000001
-0.5597924590110779,-0.7921113967895508,0.5626643896102905,1.450000000000001
-0.44302433729171753,-1.5483474731445312,0.6371521949768066,1.460000000000001
-0.5036439895629883,-2.248004913330078,0.3900299072265625,1.470000000000001
-0.6512062549591064,-2.9342517852783203,-0.07567489147186279,1.480000000000001
-0.7958604693412781,-3.4852075576782227,-0.5542052388191223,1.490000000000001
-0.9631962180137634,-3.860412120819092,-0.909424364566803,1.500000000000001
-1.0144236087799072,-4.026679992675781,-1.145923137664795,1.5100000000000011
-1.038569450378418,-4.02257776260376,-1.28255033493042,1.5200000000000011
-1.1947184801101685,-3.8483214378356934,-1.3621454238891602,1.5300000000000011
-1.661495566368103,-3.4371652603149414,-1.4082791805267334,1.5400000000000011
-1.6427586078643799,-3.0118155479431152,-1.358383297920227,1.5500000000000012
-1.109749436378479,-2.7086238861083984,-1.286434531211853,1.5600000000000012
-0.5167909860610962,-2.3504929542541504,-1.2881847620010376,1.5700000000000012
-0.06452195346355438,-1.9135513305664062,-1.1629269123077393,1.5800000000000012
0.22084076702594757,-1.3906898498535156,-1.0091285705566406,1.5900000000000012
0.564419686794281,-0.9493703842163086,-0.870134174823761,1.6000000000000012
0.9354905486106873,-0.6396913528442383,-0.7270475625991821,1.6100000000000012
1.2552698850631714,-0.4136466979980469,-0.5778207778930664,1.6200000000000012
1.2965295314788818,-0.27350807189941406,-0.4275466799736023,1.6300000000000012
1.133110523223877,-0.10439395904541016,-0.22374287247657776,1.6400000000000012
0.9537134170532227,-0.1311197280883789,-0.05968368053436279,1.6500000000000012
0.7198471426963806,-0.317596435546875,0.11026173830032349,1.6600000000000013
0.5368924140930176,-0.6373395919799805,0.20484024286270142,1.6700000000000013
0.45763465762138367,-0.9491176605224609,0.2910756468772888,1.6800000000000013
0.2907840311527252,-1.286433219909668,0.37624090909957886,1.6900000000000013
0.22321631014347076,-1.5846967697143555,0.4963477849960327,1.7000000000000013
0.2646169066429138,-1.8463587760925293,0.6182558536529541,1.7100000000000013
0.29548704624176025,-1.980595588684082,0.6847004294395447,1.7200000000000013
0.418844074010849,-2.0497164726257324,0.7528917789459229,1.7300000000000013
0.5701227188110352,-1.9701037406921387,0.8177184462547302,1.7400000000000013
0.7923644185066223,-1.7897577285766602,0.9146066904067993,1.7500000000000013
0.977910041809082,-1.4896726608276367,1.0241122245788574,1.7600000000000013
1.0933277606964111,-1.1608619689941406,1.1460562944412231,1.7700000000000014
1.1265170574188232,-0.8320674896240234,1.2468353509902954,1.7800000000000014
1.0677478313446045,-0.5989465713500977,1.3311662673950195,1.7900000000000014
1.0103226900100708,-0.4685649871826172,1.2866235971450806,1.8000000000000014
0.9445788264274597,-0.42406272888183594,1.1491737365722656,1.8100000000000014
0.8223398327827454,-0.38884449005126953,0.9188748598098755,1.8200000000000014
0.6236425042152405,-0.38687992095947266,0.7606850862503052,1.8300000000000014
0.39512014389038086,-0.17435073852539062,0.5763089656829834,1.8400000000000014
0.264465868473053,0.20767784118652344,0.3464747667312622,1.8500000000000014
0.251789391040802,0.7349271774291992,0.1812141388654709,1.8600000000000014
0.29408782720565796,1.2516632080078125,0.1377599984407425,1.8700000000000014
0.3988204002380371,1.6598186492919922,0.2828007936477661,1.8800000000000014
0.6794502139091492,1.8615407943725586,0.6542907953262329,1.8900000000000015
0.9939219355583191,1.9767494201660156,1.2735466957092285,1.9000000000000015
1.3051446676254272,2.039142608642578,1.9279810190200806,1.9100000000000015
1.6781498193740845,2.1564645767211914,2.343625783920288,1.9200000000000015
1.9907515048980713,2.247364044189453,2.265657424926758,1.9300000000000015
2.3284695148468018,2.347665786743164,1.7758214473724365,1.9400000000000015
2.6931798458099365,2.402266502380371,1.1869986057281494,1.9500000000000015
3.1850943565368652,2.4900550842285156,0.8952419757843018,1.9600000000000015
3.6632070541381836,2.534470558166504,0.9571601152420044,1.9700000000000015
4.123047351837158,2.530827522277832,1.193333387374878,1.9800000000000015
4.294373035430908,2.491166114807129,1.3771734237670898,1.9900000000000015
4.34451150894165,2.506387710571289,1.3638675212860107,2.0000000000000013
4.158071517944336,2.550069808959961,1.1593862771987915,2.010000000000001
3.8802132606506348,2.684250831604004,0.7525750398635864,2.020000000000001
3.617631673812866,2.9397783279418945,0.3612827658653259,2.0300000000000007
3.261551856994629,3.5243711471557617,-0.012545138597488403,2.0400000000000005
2.892268657684326,4.356172561645508,-0.3840121030807495,2.0500000000000003
2.686432361602783,5.152645111083984,-0.8382359743118286,2.06
2.452908992767334,5.665175437927246,-1.410122275352478,2.07
2.0628418922424316,5.755454063415527,-2.0269267559051514,2.0799999999999996
1.456938624382019,5.3834333419799805,-2.631997585296631,2.0899999999999994
0.7887941598892212,4.4947967529296875,-3.1516382694244385,2.099999999999999
0.1976766586303711,3.494405746459961,-3.4056429862976074,2.109999999999999
-0.44949257373809814,2.492572784423828,-3.101686477661133,2.1199999999999988
-0.8955498933792114,1.7143592834472656,-1.6510933637619019,2.1299999999999986
-1.2162067890167236,1.4586601257324219,0.21339552104473114,2.1399999999999983
-1.3776001930236816,1.7345638275146484,1.1460278034210205,2.149999999999998
-1.6498591899871826,2.1852521896362305,0.7431873679161072,2.159999999999998
-1.9251309633255005,2.5882654190063477,-0.40197092294692993,2.1699999999999977
-2.136148691177368,2.7645092010498047,-1.5365606546401978,2.1799999999999975
-2.3065590858459473,2.8172807693481445,-2.1510579586029053,2.1899999999999973
-2.584303855895996,2.8401403427124023,-2.2206223011016846,2.199999999999997
-2.9836034774780273,2.969442367553711,-1.9796912670135498,2.209999999999997
-3.4112563133239746,3.140383720397949,-1.7431714534759521,2.2199999999999966
-3.7720651626586914,3.343106269836426,-1.734886646270752,2.2299999999999964
-4.009134769439697,3.484039306640625,-1.961773157119751,2.239999999999996
-4.089140892028809,3.4936933517456055,-2.2145962715148926,2.249999999999996
-4.071842193603516,3.3218984603881836,-2.3047614097595215,2.259999999999996
-4.071794509887695,3.1243152618408203,-2.1527233123779297,2.2699999999999956
-3.995762825012207,2.979949951171875,-1.6624269485473633,2.2799999999999954
-3.970771551132202,2.9581899642944336,-1.0080370903015137,2.289999999999995
-3.9180908203125,3.016005516052246,-0.301424503326416,2.299999999999995
-3.7759721279144287,3.0052490234375,0.2955824136734009,2.3099999999999947
-3.6740317344665527,2.902308464050293,0.7818746566772461,2.3199999999999945
-3.4715545177459717,2.6907520294189453,1.164002537727356,2.3299999999999943
-3.199791669845581,2.3995189666748047,1.3656131029129028,2.339999999999994
-2.8918299674987793,2.00960636138916,1.346819281578064,2.349999999999994
-2.4895453453063965,1.571263313293457,1.0514891147613525,2.3599999999999937
-2.073376178741455,1.1489315032958984,0.5266155004501343,2.3699999999999934
-1.5798978805541992,0.7064762115478516,-0.015970945358276367,2.3799999999999932
-1.2306129932403564,0.2723836898803711,-0.5157585144042969,2.389999999999993
-0.8948737978935242,-0.27784252166748047,-1.1283146142959595,2.399999999999993
-0.37033185362815857,-1.0710649490356445,-1.2816740274429321,2.4099999999999926
-0.03208041191101074,-1.9158663749694824,-1.31589674949646,2.4199999999999924
0.12478935718536377,-2.6137304306030273,-1.4061856269836426,2.429999999999992
0.327888548374176,-3.1840128898620605,-1.5743777751922607,2.439999999999992
0.5774000287055969,-3.6891536712646484,-1.557364583015442,2.4499999999999917
0.48766785860061646,-4.024008750915527,-1.5755195617675781,2.4599999999999915
0.15097641944885254,-4.095371723175049,-1.7391753196716309,2.4699999999999913
-0.045664429664611816,-4.061252117156982,-1.9075212478637695,2.479999999999991
0.0077016353607177734,-4.172861576080322,-1.9563002586364746,2.489999999999991
0.12880373001098633,-4.157569408416748,-1.7320541143417358,2.4999999999999907
0.06345081329345703,-4.03480339050293,-1.4519776105880737,2.5099999999999905
-0.14067912101745605,-4.000964164733887,-1.1703566312789917,2.5199999999999902
-0.16340863704681396,-4.039434432983398,-0.8169997930526733,2.52999999999999
-0.1367911696434021,-4.138391494750977,-0.5275588035583496,2.53999999999999
-0.21920812129974365,-4.16388463973999,-0.36882615089416504,2.5499999999999896
-0.2723712921142578,-4.249804973602295,-0.372089147567749,2.5599999999999894
-0.550476610660553,-4.1997971534729,-0.5138416290283203,2.569999999999989
-0.6660276651382446,-4.128605365753174,-0.7205193042755127,2.579999999999989
-0.527603805065155,-4.124772071838379,-0.8320777416229248,2.5899999999999888
-0.6109817028045654,-4.061608791351318,-0.8843116760253906,2.5999999999999885
-0.6332610845565796,-4.0492844581604,-0.9513463973999023,2.6099999999999883
-0.4625721573829651,-4.073525428771973,-1.0042890310287476,2.619999999999988
-0.41954219341278076,-4.1631293296813965,-1.0427780151367188,2.629999999999988
-0.3820464015007019,-4.277490615844727,-0.9756879806518555,2.6399999999999877
-0.17024540901184082,-4.404745578765869,-0.9417252540588379,2.6499999999999875
0.1109156608581543,-4.576079845428467,-0.9096653461456299,2.6599999999999873
0.23417556285858154,-4.769951343536377,-0.7814157009124756,2.669999999999987
0.29031598567962646,-4.948120594024658,-0.5999586582183838,2.679999999999987
0.28141653537750244,-5.017310619354248,-0.4179959297180176,2.6899999999999866
0.3963205814361572,-5.11390495300293,-0.2643394470214844,2.6999999999999864
0.4312009811401367,-5.125357627868652,-0.07464385032653809,2.709999999999986
0.4168354272842407,-5.101991653442383,0.14161229133605957,2.719999999999986
0.2285427451133728,-4.8956098556518555,0.3917093276977539,2.7299999999999858
0.1388443112373352,-4.62362003326416,0.6111760139465332,2.7399999999999856
0.11882108449935913,-4.374560832977295,0.8072192668914795,2.7499999999999853
0.12290734052658081,-4.146062850952148,0.9848203659057617,2.759999999999985
0.124442458152771,-3.9644041061401367,1.1584722995758057,2.769999999999985
0.1638033390045166,-3.8080005645751953,1.3234853744506836,2.7799999999999847
0.2552218437194824,-3.6575865745544434,1.448535442352295,2.7899999999999845
0.3462880849838257,-3.41015625,1.4470317363739014,2.7999999999999843
0.5449829697608948,-3.1109447479248047,1.2822544574737549,2.809999999999984
0.7919129729270935,-2.7813167572021484,1.247750997543335,2.819999999999984
0.9941200613975525,-2.363740921020508,1.1801483631134033,2.8299999999999836
1.2904253005981445,-1.922670841217041,1.15773606300354,2.8399999999999834
1.55170476436615,-1.465158462524414,1.0986835956573486,2.849999999999983
1.8064203262329102,-0.9766988754272461,0.9762539863586426,2.859999999999983
1.975530982017517,-0.4763631820678711,0.723304033279419,2.869999999999983
2.020782470703125,0.08132362365722656,0.44980740547180176,2.8799999999999826
2.071561336517334,0.6581687927246094,0.21510887145996094,2.8899999999999824
2.0321366786956787,1.261702537536621,0.008373737335205078,2.899999999999982
1.6213507652282715,2.0191526412963867,-0.1861557960510254,2.909999999999982
1.1037355661392212,2.6625099182128906,0.29412245750427246,2.9199999999999817
0.6464958786964417,3.5551204681396484,1.1330204010009766,2.9299999999999815
-0.3277856111526489,4.376380920410156,1.930638074874878,2.9399999999999813
-1.3284831047058105,5.167111396789551,2.498385429382324,2.949999999999981
-2.297619342803955,6.020296096801758,3.2993266582489014,2.959999999999981
-2.853262424468994,6.827484130859375,4.297420978546143,2.9699999999999807
-2.7341363430023193,7.219826698303223,4.996917724609375,2.9799999999999804
-2.620936393737793,7.363000869750977,4.966943264007568,2.9899999999999802
-3.036684513092041,7.554778099060059,4.336826324462891,2.99999999999998
-3.644073247909546,7.870601654052734,3.4021413326263428,3.00999999999998
-4.348536968231201,8.454506874084473,2.5727500915527344,3.0199999999999796
-4.898085117340088,9.444771766662598,1.7417089939117432,3.0299999999999794
-5.279140949249268,10.861799240112305,0.927994966506958,3.039999999999979
-5.052828311920166,12.447810173034668,0.594780445098877,3.049999999999979
-4.4062347412109375,13.580780029296875,0.6550488471984863,3.0599999999999787
-3.607337713241577,13.80683708190918,0.21810626983642578,3.0699999999999785
-3.098698139190674,13.157145500183105,-0.8806126117706299,3.0799999999999783
-3.2271721363067627,11.465853691101074,-2.230804920196533,3.089999999999978
-3.9073314666748047,8.974297523498535,-3.0579285621643066,3.099999999999978
-5.006279468536377,5.885165214538574,-3.2384002208709717,3.1099999999999777
-5.705367088317871,2.4488525390625,-3.132133960723877,3.1199999999999775
-4.805886745452881,-1.039189338684082,-2.8547565937042236,3.1299999999999772
-3.3947315216064453,-3.9184842109680176,-2.510796546936035,3.139999999999977
-2.3824708461761475,-5.716108322143555,-2.2226531505584717,3.149999999999977
-1.8838798999786377,-6.523909568786621,-2.497549057006836,3.1599999999999766
-1.7839066982269287,-6.7349653244018555,-3.0218138694763184,3.1699999999999764
-1.3132843971252441,-6.6728997230529785,-3.201646566390991,3.179999999999976
-0.6455766558647156,-6.455471515655518,-3.1369388103485107,3.189999999999976
0.03519916534423828,-6.0831298828125,-3.0993707180023193,3.1999999999999758
0.7176955342292786,-5.377231597900391,-3.060678720474243,3.2099999999999755
1.4450840950012207,-4.4678635597229,-2.9664676189422607,3.2199999999999753
2.316676616668701,-3.3435916900634766,-2.8901445865631104,3.229999999999975
3.0394363403320312,-2.1168460845947266,-2.9926095008850098,3.239999999999975
3.4878478050231934,-0.7754726409912109,-3.0355489253997803,3.2499999999999747
3.876570224761963,0.6135244369506836,-2.9620277881622314,3.2599999999999745
4.2199249267578125,1.9041328430175781,-2.7864420413970947,3.2699999999999743
4.378734111785889,2.8453454971313477,-2.6570634841918945,3.279999999999974
4.2680983543396,3.552374839782715,-2.5975942611694336,3.289999999999974
3.734881639480591,3.6478137969970703,-2.619702100753784,3.2999999999999736
2.744823932647705,3.0322818756103516,-2.7354884147644043,3.3099999999999734
1.3353078365325928,1.709547996520996,-2.8622825145721436,3.319999999999973
0.10225892066955566,0.3289203643798828,-2.8006372451782227,3.329999999999973
-0.9515646696090698,-0.8605337142944336,-2.5807559490203857,3.3399999999999728
-1.9437205791473389,-1.6435246467590332,-2.232849597930908,3.3499999999999726
-2.564635992050171,-2.221096992492676,-1.8922573328018188,3.3599999999999723
-3.005913019180298,-2.4785051345825195,-1.4283866882324219,3.369999999999972
-3.0356388092041016,-2.626527786254883,-0.8559987545013428,3.379999999999972
-2.763218641281128,-2.741971969604492,-0.29913759231567383,3.3899999999999717
-2.4979333877563477,-2.839480400085449,0.20008766651153564,3.3999999999999715
-2.124603509902954,-2.9958767890930176,0.5018185377120972,3.4099999999999713
-1.919762372970581,-3.1849942207336426,0.5521429777145386,3.419999999999971
-1.7359099388122559,-3.430814743041992,0.4115496873855591,3.429999999999971
-1.4349523782730103,-3.6926698684692383,0.17603790760040283,3.4399999999999706
-1.1181970834732056,-3.9155092239379883,-0.13549649715423584,3.4499999999999704
-0.9761639833450317,-4.029980659484863,-0.5281627178192139,3.45999999999997
-0.9635056257247925,-4.021782875061035,-0.9378674030303955,3.46999999999997
-1.2848364114761353,-3.7188844680786133,-1.149453043937683,3.47999999999997
-1.3859823942184448,-3.2555766105651855,-1.349498987197876,3.4899999999999696
-1.0900659561157227,-2.8592381477355957,-1.621622085571289,3.4999999999999694
-0.7537736892700195,-2.536992073059082,-1.879446268081665,3.509999999999969
-0.5857413411140442,-2.0926952362060547,-2.017620086669922,3.519999999999969
-0.4595939517021179,-1.6269540786743164,-1.9643632173538208,3.5299999999999687
-0.1716615855693817,-1.273695945739746,-1.8945549726486206,3.5399999999999685
0.20684434473514557,-0.9634437561035156,-1.736454963684082,3.5499999999999683
0.4775409996509552,-0.7918071746826172,-1.4612164497375488,3.559999999999968
0.7291429042816162,-0.7012166976928711,-1.1432182788848877,3.569999999999968
0.7773172855377197,-0.705902099609375,-0.7231281995773315,3.5799999999999677
0.8878617882728577,-0.7913894653320312,-0.28504085540771484,3.5899999999999674
0.9605314135551453,-0.9025812149047852,0.032066136598587036,3.5999999999999672
0.9477837085723877,-0.9342269897460938,0.3018389642238617,3.609999999999967
0.9189937114715576,-0.9079551696777344,0.5740381479263306,3.619999999999967
0.7181988954544067,-0.8286714553833008,0.8653910160064697,3.6299999999999666
0.5962353348731995,-0.7299613952636719,1.1016473770141602,3.6399999999999664
0.6560233235359192,-0.7003488540649414,1.2658780813217163,3.649999999999966
0.8450849056243896,-0.7039031982421875,1.4126564264297485,3.659999999999966
0.955538809299469,-0.7525691986083984,1.460449457168579,3.6699999999999657
1.1478877067565918,-0.8152370452880859,1.3948700428009033,3.6799999999999655
1.3527154922485352,-0.8082342147827148,1.2973830699920654,3.6899999999999653
1.512493371963501,-0.7651596069335938,1.1466279029846191,3.699999999999965
1.6655941009521484,-0.6430368423461914,1.0388484001159668,3.709999999999965
1.7691352367401123,-0.4802217483520508,1.010814905166626,3.7199999999999647
1.794677734375,-0.2791318893432617,1.0541813373565674,3.7299999999999645
1.6804049015045166,-0.0995473861694336,1.1389938592910767,3.7399999999999642
1.5200830698013306,0.013189315795898438,1.1895287036895752,3.749999999999964
1.2467048168182373,0.0041866302490234375,1.3156445026397705,3.759999999999964
1.0636754035949707,-0.0929269790649414,1.2985618114471436,3.7699999999999636
1.023292064666748,-0.28765201568603516,1.046025276184082,3.7799999999999634
1.0174176692962646,-0.41257476806640625,0.7168370485305786,3.789999999999963
1.1148507595062256,-0.34354209899902344,0.4318135380744934,3.799999999999963
1.0971235036849976,-0.10720634460449219,0.25736308097839355,3.8099999999999627
1.0402462482452393,0.21484375,0.24859075248241425,3.8199999999999625
0.9509124755859375,0.7037563323974609,0.49934545159339905,3.8299999999999623
0.8526929020881653,1.3019037246704102,1.0076096057891846,3.839999999999962
0.6785436868667603,1.8608989715576172,1.6949453353881836,3.849999999999962
0.6271857619285583,2.3927536010742188,2.2841227054595947,3.8599999999999617
0.5910884737968445,2.902301788330078,2.667987585067749,3.8699999999999615
0.7906144857406616,3.2030982971191406,2.6126043796539307,3.8799999999999613
1.2691123485565186,3.3456735610961914,2.099482774734497,3.889999999999961
1.9954440593719482,3.2417774200439453,1.277381181716919,3.899999999999961
2.7943577766418457,3.0016326904296875,0.4736981987953186,3.9099999999999606
3.4064712524414062,2.790247917175293,0.010810047388076782,3.9199999999999604
3.9911677837371826,2.7006921768188477,0.05539435148239136,3.92999999999996
4.462025165557861,2.682546615600586,0.4706282317638397,3.93999999999996
4.804853439331055,2.6950836181640625,1.0198299884796143,3.9499999999999598
4.897721767425537,2.700014114379883,1.3304733037948608,3.9599999999999596
4.781296730041504,2.714059829711914,1.1784324645996094,3.9699999999999593
4.46480655670166,2.828005790710449,0.7199075818061829,3.979999999999959
3.8713088035583496,3.039252281188965,0.2086358219385147,3.989999999999959
3.277954578399658,3.519782066345215,-0.16389280557632446,3.9999999999999587
2.7417876720428467,4.343371391296387,-0.3449535369873047,4.009999999999959
2.3995070457458496,5.05534553527832,-0.5288584232330322,4.019999999999959
2.177640914916992,5.416823387145996,-1.0992250442504883,4.0299999999999585
1.8901290893554688,5.162876129150391,-2.0189383029937744,4.039999999999958
1.4247238636016846,4.461650848388672,-3.092996120452881,4.049999999999958
0.9250344634056091,3.545651435852051,-3.9208409786224365,4.059999999999958
0.35775768756866455,2.515634536743164,-4.2027587890625,4.069999999999958
-0.27877867221832275,1.5225248336791992,-3.8448455333709717,4.079999999999957
-0.9094899892807007,0.7984294891357422,-2.8074679374694824,4.089999999999957
-1.51690673828125,0.29068470001220703,-0.482780396938324,4.099999999999957
-2.0863871574401855,0.2622079849243164,1.53378427028656,4.109999999999957
-2.3808698654174805,0.5570611953735352,1.5841357707977295,4.119999999999957
-2.565227508544922,0.9597625732421875,0.20016637444496155,4.129999999999956
-2.7448320388793945,1.2336301803588867,-1.1889300346374512,4.139999999999956
-2.996480941772461,1.3287887573242188,-2.00172758102417,4.149999999999956
-3.0667014122009277,1.4225692749023438,-2.351911783218384,4.159999999999956
-3.139768123626709,1.5629100799560547,-2.436321973800659,4.1699999999999555
-3.2013230323791504,1.8741092681884766,-2.3078484535217285,4.179999999999955
-3.3208165168762207,2.3343467712402344,-2.0764706134796143,4.189999999999955
-3.4650540351867676,2.9790830612182617,-1.8279184103012085,4.199999999999955
-3.814168930053711,3.6308536529541016,-1.7273635864257812,4.209999999999955
-4.148940563201904,4.18895149230957,-1.6872667074203491,4.2199999999999545
-4.393452167510986,4.545726776123047,-1.6189197301864624,4.229999999999954
-4.516695976257324,4.663084030151367,-1.3240238428115845,4.239999999999954
-4.537578582763672,4.589094161987305,-0.8653337955474854,4.249999999999954
-4.486879348754883,4.374260902404785,-0.32531189918518066,4.259999999999954
-4.378653049468994,4.097816467285156,0.1461200714111328,4.269999999999953
-4.231836318969727,3.745716094970703,0.4299672842025757,4.279999999999953
-4.063070297241211,3.3326539993286133,0.5294493436813354,4.289999999999953
-3.6449766159057617,2.8063230514526367,0.4961022138595581,4.299999999999953
-3.221571445465088,2.133544921875,0.34373998641967773,4.3099999999999525
-2.6323366165161133,1.379115104675293,0.07494807243347168,4.319999999999952
-1.9987857341766357,0.595703125,-0.17812001705169678,4.329999999999952
-1.4061062335968018,-0.07568073272705078,-0.5224666595458984,4.339999999999952
-0.8029640316963196,-0.6065664291381836,-0.9123518466949463,4.349999999999952
-0.27624762058258057,-1.0617656707763672,-1.1924748420715332,4.3599999999999515
0.40564340353012085,-1.5803022384643555,-1.2047955989837646,4.369999999999951
0.8515434861183167,-2.083493232727051,-1.0685254335403442,4.379999999999951
0.9549785256385803,-2.6146116256713867,-1.264285683631897,4.389999999999951
1.2648314237594604,-3.334077835083008,-1.3825099468231201,4.399999999999951
1.2092221975326538,-3.935702323913574,-1.4591821432113647,4.40999999999995
0.9718273878097534,-4.314384460449219,-1.6978940963745117,4.41999999999995
0.7310694456100464,-4.429687976837158,-1.883401870727539,4.42999999999995
0.6012514233589172,-4.490046501159668,-1.9150302410125732,4.43999999999995
0.5982652306556702,-4.5864386558532715,-1.7544130086898804,4.4499999999999496
0.46503299474716187,-4.556221961975098,-1.5354259014129639,4.459999999999949
0.3061368465423584,-4.437769412994385,-1.3848545551300049,4.469999999999949
0.13279443979263306,-4.247934818267822,-1.213940978050232,4.479999999999949
0.021034955978393555,-4.087265968322754,-1.024887204170227,4.489999999999949
0.06864434480667114,-4.04431676864624,-0.8244929313659668,4.4999999999999485
0.11758297681808472,-4.009127140045166,-0.5094232559204102,4.509999999999948
-0.11239403486251831,-4.032044410705566,-0.28252673149108887,4.519999999999948
-0.4828597903251648,-3.9838266372680664,-0.26337218284606934,4.529999999999948
-0.8168524503707886,-3.885995864868164,-0.37558579444885254,4.539999999999948
-1.0236026048660278,-3.9250617027282715,-0.5571317672729492,4.549999999999947
-1.1390280723571777,-3.8736729621887207,-0.7029383182525635,4.559999999999947
-1.1628682613372803,-3.8993515968322754,-0.8801058530807495,4.569999999999947
-1.157517433166504,-3.9160399436950684,-0.9926064014434814,4.579999999999947
-1.1303526163101196,-3.8904004096984863,-0.9636214971542358,4.589999999999947
-1.0575292110443115,-3.9589414596557617,-0.9650536775588989,4.599999999999946
-0.9965263605117798,-4.088266849517822,-0.862419605255127,4.609999999999946
-0.9329069256782532,-4.2139892578125,-0.6456193923950195,4.619999999999946
-0.782820999622345,-4.486861705780029,-0.41980552673339844,4.629999999999946
-0.6896578073501587,-4.722604274749756,-0.26872992515563965,4.6399999999999455
-0.5790044069290161,-4.942683219909668,-0.1401216983795166,4.649999999999945
-0.4314284026622772,-5.139786243438721,-0.09911489486694336,4.659999999999945
-0.2967008352279663,-5.258861541748047,0.004639625549316406,4.669999999999945
-0.13376599550247192,-5.3765034675598145,0.058528900146484375,4.679999999999945
-0.1219359040260315,-5.392236232757568,0.10073661804199219,4.689999999999944
-0.3019680082798004,-5.2797980308532715,0.10960841178894043,4.699999999999944
-0.5018225908279419,-5.068009853363037,0.08763003349304199,4.709999999999944
-0.6189719438552856,-4.9076385498046875,0.17606592178344727,4.719999999999944
-0.6609214544296265,-4.729354381561279,0.3679618835449219,4.729999999999944
-0.6517930626869202,-4.494922161102295,0.5222258567810059,4.739999999999943
-0.5127127766609192,-4.297566890716553,0.5597684383392334,4.749999999999943
-0.2867937982082367,-4.055768013000488,0.5591466426849365,4.759999999999943
0.01635056734085083,-3.793234348297119,0.4431331157684326,4.769999999999943
0.33947962522506714,-3.4284138679504395,0.3281393051147461,4.7799999999999425
0.706587553024292,-2.8989973068237305,0.24918007850646973,4.789999999999942
1.0411176681518555,-2.283781051635742,0.17169976234436035,4.799999999999942
1.477210521697998,-1.4701781272888184,0.13286137580871582,4.809999999999942
1.8880833387374878,-0.4151020050048828,0.0550539493560791,4.819999999999942
2.1010355949401855,0.7739038467407227,-0.041322946548461914,4.8299999999999415
2.19844126701355,2.116166114807129,-0.08079171180725098,4.839999999999941
2.1497931480407715,3.4132614135742188,-0.0185854434967041,4.849999999999941
2.0131492614746094,4.564719200134277,0.408707857131958,4.859999999999941
1.6937768459320068,5.49867057800293,1.0870883464813232,4.869999999999941
1.1352633237838745,6.282025337219238,1.8787732124328613,4.87999999999994
0.4590117335319519,6.754467964172363,2.6747467517852783,4.88999999999994
-0.08573871850967407,6.916296005249023,3.4298338890075684,4.89999999999994
-0.5223807096481323,6.954405784606934,4.1751322746276855,4.90999999999994
-1.1019185781478882,7.055322647094727,5.097733974456787,4.9199999999999395
-1.5175219774246216,7.082513809204102,5.899144649505615,4.929999999999939
-1.8091957569122314,6.84214973449707,6.499076843261719,4.939999999999939
-2.105452537536621,6.250636100769043,6.958410739898682,4.949999999999939
-2.103909969329834,5.317791938781738,7.129631042480469,4.959999999999939
-1.7293035984039307,3.9149980545043945,6.737697601318359,4.9699999999999385
-1.3585090637207031,2.473512649536133,5.904141902923584,4.979999999999938
-1.3153666257858276,1.4679059982299805,4.06377649307251,4.989999999999938
-1.2598114013671875,0.7957992553710938,2.3091964721679688,4.999999999999938
-1.0469430685043335,0.4326639175415039,1.3842382431030273,5.009999999999938
-1.1604034900665283,0.8150358200073242,0.405381441116333,5.019999999999937
-1.1647019386291504,2.299898147583008,-0.6822836399078369,5.029999999999937
-1.109143853187561,4.557182312011719,-1.2012503147125244,5.039999999999937
-0.6813563108444214,6.792514801025391,-1.0488169193267822,5.049999999999937
-0.45719701051712036,8.664713859558105,-1.4622355699539185,5.0599999999999365
-0.4103739261627197,9.831085205078125,-2.382913589477539,5.069999999999936
-0.2470759153366089,10.51646614074707,-3.1370251178741455,5.079999999999936
-0.6419124603271484,10.645679473876953,-4.152836322784424,5.089999999999936
-2.2331275939941406,9.533332824707031,-5.410086631774902,5.099999999999936
-4.847065448760986,7.105227470397949,-6.291858196258545,5.1099999999999355
-7.135857582092285,4.43148136138916,-6.107531547546387,5.119999999999935
-6.7131757736206055,1.9977149963378906,-5.073176383972168,5.129999999999935
-4.446433067321777,-0.2001180648803711,-3.5422921180725098,5.139999999999935
-2.887627124786377,-1.606269359588623,-1.9160034656524658,5.149999999999935
-1.6796233654022217,-2.451542854309082,-0.7216291427612305,5.159999999999934
-0.7053093910217285,-2.9348254203796387,-0.1983180046081543,5.169999999999934
0.1296277940273285,-3.209446430206299,-0.15918946266174316,5.179999999999934
0.8134808540344238,-3.35003662109375,-0.3470926284790039,5.189999999999934
1.216080665588379,-3.469404697418213,-0.677344560623169,5.199999999999934
1.2434065341949463,-3.3716201782226562,-1.0370967388153076,5.209999999999933
1.232180118560791,-2.978001594543457,-1.3141613006591797,5.219999999999933
1.2228988409042358,-2.508890151977539,-1.4873473644256592,5.229999999999933
1.296753168106079,-2.1055545806884766,-1.6881639957427979,5.239999999999933
1.3225080966949463,-1.8877053260803223,-2.030806541442871,5.2499999999999325
1.5378637313842773,-1.9199132919311523,-2.490719795227051,5.259999999999932
1.698944091796875,-2.099196434020996,-2.9646506309509277,5.269999999999932
1.8030672073364258,-2.286745071411133,-3.3495688438415527,5.279999999999932
1.7199913263320923,-2.5518922805786133,-3.7098002433776855,5.289999999999932
1.5006359815597534,-2.636183738708496,-4.023588180541992,5.299999999999931
1.0824239253997803,-2.3362035751342773,-4.243680000305176,5.309999999999931
0.37460029125213623,-1.5871706008911133,-4.3286848068237305,5.319999999999931
-0.6891664862632751,-0.6231250762939453,-4.273962497711182,5.329999999999931
-1.8941781520843506,0.31241893768310547,-3.9646718502044678,5.339999999999931
-2.855842351913452,1.0929384231567383,-3.119729518890381,5.34999999999993
-3.467752695083618,1.4841432571411133,-2.076800584793091,5.35999999999993
-3.4420268535614014,1.4863128662109375,-1.101426124572754,5.36999999999993
-2.8952901363372803,1.0686616897583008,-0.32258081436157227,5.37999999999993
-2.1601765155792236,0.2961454391479492,0.17623674869537354,5.3899999999999295
-1.5373247861862183,-0.6467752456665039,0.3595468997955322,5.399999999999929
-1.217237114906311,-1.671478271484375,0.2516751289367676,5.409999999999929
-1.1565141677856445,-2.4622602462768555,0.013035297393798828,5.419999999999929
-1.1954736709594727,-3.129404067993164,-0.2846897840499878,5.429999999999929
-1.4749244451522827,-3.582242965698242,-0.5121734738349915,5.4399999999999284
-1.7368276119232178,-3.76133394241333,-0.6379616856575012,5.449999999999928
-1.9194834232330322,-3.7985968589782715,-0.8576710224151611,5.459999999999928
-1.98286771774292,-3.6679434776306152,-1.182787537574768,5.469999999999928
-1.8583238124847412,-3.4221839904785156,-1.539069414138794,5.479999999999928
-1.685638427734375,-2.9825620651245117,-1.8834673166275024,5.489999999999927
-1.477933406829834,-2.3924131393432617,-1.9095911979675293,5.499999999999927
-1.068155288696289,-1.8815350532531738,-1.7534527778625488,5.509999999999927
-0.5255978107452393,-1.4665822982788086,-1.5703397989273071,5.519999999999927
0.03518746793270111,-1.2502336502075195,-1.3554975986480713,5.5299999999999265
0.5429591536521912,-1.1126470565795898,-1.121185302734375,5.539999999999926
0.9481430053710938,-1.158884048461914,-0.8893706798553467,5.549999999999926
1.306236982345581,-1.276289939880371,-0.607984185218811,5.559999999999926
1.5218138694763184,-1.4073600769042969,-0.3758118152618408,5.569999999999926
1.5998114347457886,-1.5162086486816406,-0.15268254280090332,5.5799999999999255
1.6430119276046753,-1.5622310638427734,0.12079176306724548,5.589999999999925
1.5745813846588135,-1.5144596099853516,0.36545100808143616,5.599999999999925
1.5737797021865845,-1.4926061630249023,0.5929962396621704,5.609999999999925
1.6164536476135254,-1.4201622009277344,0.8270914554595947,5.619999999999925
1.7144854068756104,-1.2948379516601562,1.096190094947815,5.629999999999924
1.7936475276947021,-1.193253517150879,1.2569081783294678,5.639999999999924
1.9471321105957031,-1.0962915420532227,1.338139533996582,5.649999999999924
2.1006088256835938,-1.0087652206420898,1.2850618362426758,5.659999999999924
2.335374116897583,-0.9067764282226562,1.1791794300079346,5.6699999999999235
2.5794975757598877,-0.8142814636230469,1.0879592895507812,5.679999999999923
2.785034656524658,-0.7862796783447266,1.0720367431640625,5.689999999999923
2.8729097843170166,-0.7916088104248047,1.1180143356323242,5.699999999999923
2.9316654205322266,-0.8182611465454102,1.272251844406128,5.709999999999923
2.966278076171875,-0.780085563659668,1.5378129482269287,5.7199999999999225
2.8619132041931152,-0.7464923858642578,1.7309273481369019,5.729999999999922
2.750199794769287,-0.6218318939208984,1.8535823822021484,5.739999999999922
2.5448663234710693,-0.4875631332397461,1.9310880899429321,5.749999999999922
2.2647578716278076,-0.3509645462036133,1.923962116241455,5.759999999999922
2.0149741172790527,-0.1284332275390625,2.0034632682800293,5.769999999999921
1.8526238203048706,0.1655120849609375,2.1214091777801514,5.779999999999921
1.6699868440628052,0.6192302703857422,2.213423728942871,5.789999999999921
1.4743156433105469,1.1607885360717773,2.3253073692321777,5.799999999999921
1.3281655311584473,1.634659767150879,2.3803110122680664,5.809999999999921
1.0908668041229248,2.110269546508789,2.354041814804077,5.81999999999992
0.9300945997238159,2.508671760559082,2.296125650405884,5.82999999999992
0.7121597528457642,2.801243782043457,2.0816493034362793,5.83999999999992
0.673974871635437,2.9570064544677734,1.6482222080230713,5.84999999999992
0.865613579750061,2.9832820892333984,0.9982067346572876,5.8599999999999195
1.1068817377090454,2.9184017181396484,0.23937058448791504,5.869999999999919
1.377890706062317,2.8006372451782227,-0.3125458359718323,5.879999999999919
1.7213765382766724,2.7400074005126953,-0.3444463610649109,5.889999999999919
2.118116855621338,2.702975273132324,0.14322179555892944,5.899999999999919
2.424567699432373,2.6584529876708984,0.8465673923492432,5.909999999999918
2.6119637489318848,2.6542844772338867,1.4143226146697998,5.919999999999918
2.7255263328552246,2.5995731353759766,1.7233067750930786,5.929999999999918
2.719177722930908,2.582813262939453,1.5309298038482666,5.939999999999918
2.4508023262023926,2.7568588256835938,0.9556173086166382,5.949999999999918
1.988435983657837,3.262333869934082,0.25172626972198486,5.959999999999917
1.4864174127578735,4.115378379821777,-0.32705071568489075,5.969999999999917
1.0232200622558594,5.059639930725098,-0.7118078470230103,5.979999999999917
0.8530445694923401,5.748373985290527,-1.1717060804367065,5.989999999999917
0.6849108934402466,5.887917518615723,-1.8659327030181885,5.9999999999999165
0.42865657806396484,5.309281349182129,-2.6950483322143555,6.009999999999916
0.1562788486480713,4.29556941986084,-3.44215989112854,6.019999999999916
-0.18013465404510498,3.139096260070801,-3.904571771621704,6.029999999999916
-0.5422033071517944,2.136638641357422,-3.891817092895508,6.039999999999916
-0.8575921058654785,1.3336238861083984,-3.380737781524658,6.0499999999999154
-1.1252102851867676,0.7970619201660156,-1.9349231719970703,6.059999999999915
-1.2865651845932007,0.5340700149536133,-0.3420928120613098,6.069999999999915
-1.3146823644638062,0.620966911315918,0.022369258105754852,6.079999999999915
-1.2330782413482666,0.968937873840332,-0.5797483921051025,6.089999999999915
-1.46272611618042,1.4629878997802734,-1.3364804983139038,6.099999999999914
-1.9104015827178955,2.033719062805176,-1.7416367530822754,6.109999999999914
-2.4159867763519287,2.714670181274414,-1.7380483150482178,6.119999999999914
-2.907646894454956,3.4819726943969727,-1.470787763595581,6.129999999999914
-3.35624361038208,4.237610816955566,-1.0619120597839355,6.1399999999999135
-3.8256995677948,4.768810272216797,-0.7142893075942993,6.149999999999913
-4.246309757232666,5.044645309448242,-0.49195873737335205,6.159999999999913
-4.654014587402344,4.938479423522949,-0.5382283329963684,6.169999999999913
-4.9676032066345215,4.56532096862793,-0.7269890308380127,6.179999999999913
-5.038946628570557,3.9731006622314453,-0.8756132125854492,6.1899999999999125
-4.954548358917236,3.3818931579589844,-0.905060350894928,6.199999999999912
-4.7125325202941895,2.846590042114258,-0.7706630229949951,6.209999999999912
-4.399857521057129,2.465139389038086,-0.5144003033638,6.219999999999912
-3.935981035232544,2.177666664123535,-0.2624697685241699,6.229999999999912
-3.3551278114318848,1.9435539245605469,-0.004529833793640137,6.239999999999911
-2.801258087158203,1.7844209671020508,0.20314514636993408,6.249999999999911
-2.1789424419403076,1.6070709228515625,0.3358042240142822,6.259999999999911
-1.5838658809661865,1.3997087478637695,0.34762001037597656,6.269999999999911
-1.0443379878997803,1.1266155242919922,0.11889588832855225,6.2799999999999105
-0.4090478718280792,0.7329301834106445,-0.2232074737548828,6.28999999999991
0.1933850646018982,0.3455190658569336,-0.5896458029747009,6.29999999999991
0.9006261229515076,-0.07393646240234375,-0.9274081587791443,6.30999999999991
1.5607811212539673,-0.54217529296875,-1.16947340965271,6.31999999999991
2.0626676082611084,-1.0711650848388672,-1.2919846773147583,6.3299999999999095
2.5972182750701904,-1.806889533996582,-1.3161792755126953,6.339999999999909
2.8715250492095947,-2.5365681648254395,-1.1816093921661377,6.349999999999909
2.5414490699768066,-3.138404369354248,-1.27801513671875,6.359999999999909
2.296959400177002,-3.875735282897949,-1.3850674629211426,6.369999999999909
1.867750644683838,-4.464051723480225,-1.3564273118972778,6.379999999999908
1.3035101890563965,-4.824677467346191,-1.3453236818313599,6.389999999999908
0.9076739549636841,-5.0894551277160645,-1.3756909370422363,6.399999999999908
0.7012626528739929,-5.306434631347656,-1.2822188138961792,6.409999999999908
0.42995500564575195,-5.406404495239258,-1.1174358129501343,6.419999999999908
0.14811766147613525,-5.506744861602783,-0.9289569854736328,6.429999999999907
-0.2840363383293152,-5.3946332931518555,-0.795651912689209,6.439999999999907
-0.7022516131401062,-5.230534553527832,-0.6815040111541748,6.449999999999907
-1.0307122468948364,-5.036099433898926,-0.5287938117980957,6.459999999999907
-1.272204875946045,-4.8472676277160645,-0.4427165985107422,6.4699999999999065
-1.494093418121338,-4.742959022521973,-0.3586106300354004,6.479999999999906
-1.6343878507614136,-4.560489654541016,-0.32909703254699707,6.489999999999906
-1.6811482906341553,-4.484151840209961,-0.2893989086151123,6.499999999999906
-1.7182081937789917,-4.427801609039307,-0.24655914306640625,6.509999999999906
-1.767076849937439,-4.2958550453186035,-0.20278668403625488,6.519999999999905
-1.7249584197998047,-4.248641490936279,-0.21065974235534668,6.529999999999905
-1.740293264389038,-4.190402507781982,-0.26781630516052246,6.539999999999905
-1.5903244018554688,-4.147494316101074,-0.27139997482299805,6.549999999999905
-1.4927635192871094,-4.189253807067871,-0.2406322956085205,6.559999999999905
-1.3711498975753784,-4.2007365226745605,-0.23080182075500488,6.569999999999904
-1.3020216226577759,-4.2034125328063965,-0.29721665382385254,6.579999999999904
-1.2516558170318604,-4.223455905914307,-0.3877377510070801,6.589999999999904
-1.0785173177719116,-4.246387481689453,-0.4574306011199951,6.599999999999904
-0.7965741753578186,-4.310497760772705,-0.38440585136413574,6.6099999999999035
-0.4196603298187256,-4.480497360229492,-0.18027353286743164,6.619999999999903
-0.023783206939697266,-4.675110816955566,0.02843928337097168,6.629999999999903
0.3441123962402344,-4.832218647003174,0.18917107582092285,6.639999999999903
0.5340129137039185,-4.8561906814575195,0.29696130752563477,6.649999999999903
0.6036506295204163,-4.7805962562561035,0.4090442657470703,6.659999999999902
0.7467160224914551,-4.603054046630859,0.517967939376831,6.669999999999902
0.9005944728851318,-4.457489013671875,0.6426999568939209,6.679999999999902
1.1678186655044556,-4.305568695068359,0.7259061336517334,6.689999999999902
1.4353045225143433,-4.0922160148620605,0.7054243087768555,6.699999999999902
1.6039494276046753,-3.8244376182556152,0.45893216133117676,6.709999999999901
1.7205345630645752,-3.458949089050293,0.062430620193481445,6.719999999999901
1.8199565410614014,-3.0362462997436523,-0.28858256340026855,6.729999999999901
1.889560580253601,-2.4869284629821777,-0.4510512351989746,6.739999999999901
1.931296944618225,-1.8900537490844727,-0.4658527374267578,6.7499999999999005
1.9689862728118896,-1.1691665649414062,-0.4145047664642334,6.7599999999999
1.9355719089508057,-0.38652706146240234,-0.40021276473999023,6.7699999999999
1.950371265411377,0.4675741195678711,-0.44532477855682373,6.7799999999999
1.7951505184173584,1.3239965438842773,-0.46244311332702637,6.7899999999999
1.4787712097167969,2.3169994354248047,-0.33101844787597656,6.7999999999998995
1.1080753803253174,3.3270435333251953,0.11544346809387207,6.809999999999899
0.6151909828186035,4.280046463012695,0.919398307800293,6.819999999999899
-0.08372810482978821,5.133286476135254,1.6658034324645996,6.829999999999899
-0.8376495838165283,5.975586891174316,2.4375927448272705,6.839999999999899
-1.4480549097061157,6.730179786682129,3.6496098041534424,6.849999999999898
-1.45327627658844,7.286581039428711,4.96662712097168,6.859999999999898
-1.267208218574524,7.749506950378418,6.075794219970703,6.869999999999898
-1.0873968601226807,8.022673606872559,6.922698974609375,6.879999999999898
-1.0055712461471558,7.704079627990723,7.3300275802612305,6.8899999999998975
-1.202441692352295,6.650918006896973,7.27690315246582,6.899999999999897
-1.0887726545333862,4.924441337585449,6.501062393188477,6.909999999999897
-0.8100671172142029,2.9782333374023438,5.488119125366211,6.919999999999897
-0.8582240343093872,1.4401912689208984,3.9400875568389893,6.929999999999897
-1.3276067972183228,0.5481204986572266,2.103156805038452,6.9399999999998965
-1.7768940925598145,7.905960083007812E-4,0.6971228122711182,6.949999999999896
-2.577786445617676,0.1200714111328125,-0.034484148025512695,6.959999999999896
-3.7124617099761963,1.700240135192871,-0.7764639854431152,6.969999999999896
-4.156314849853516,4.364694595336914,-1.1356515884399414,6.979999999999896
-3.3399837017059326,7.514460563659668,-1.1829376220703125,6.989999999999895
-2.6419262886047363,10.44629955291748,-1.6141388416290283,6.999999999999895
-1.8749644756317139,12.68039608001709,-2.584606885910034,7.009999999999895
-0.9931249618530273,13.964812278747559,-3.6213459968566895,7.019999999999895
-1.069061040878296,14.006284713745117,-4.479946136474609,7.0299999999998946
-3.1560635566711426,12.007415771484375,-5.119704723358154,7.039999999999894
-6.583052158355713,8.160720825195312,-5.390909194946289,7.049999999999894
-9.460803985595703,4.391228675842285,-4.875007629394531,7.059999999999894
-9.570837020874023,1.1300086975097656,-4.213810920715332,7.069999999999894
-6.1115641593933105,-1.0768747329711914,-3.066108465194702,7.0799999999998935
-3.5178680419921875,-2.4274230003356934,-2.0501062870025635,7.089999999999893
-1.7892565727233887,-3.2120003700256348,-1.5099811553955078,7.099999999999893
-0.6510368585586548,-3.6273860931396484,-0.9931603670120239,7.109999999999893
0.2728179097175598,-3.868072509765625,-0.6180620193481445,7.119999999999893
1.1785410642623901,-4.106906414031982,-0.6221177577972412,7.129999999999892
2.104046583175659,-4.2316975593566895,-0.8487633466720581,7.139999999999892
2.6646149158477783,-4.02227258682251,-1.1241850852966309,7.149999999999892
2.592940330505371,-3.3925294876098633,-1.3875519037246704,7.159999999999892
2.4883322715759277,-2.517456531524658,-1.5651406049728394,7.169999999999892
2.4617204666137695,-1.67010498046875,-1.7762789726257324,7.179999999999891
2.522784471511841,-0.9940280914306641,-2.1331253051757812,7.189999999999891
2.575516700744629,-0.5201816558837891,-2.4608898162841797,7.199999999999891
2.6911566257476807,-0.36098194122314453,-2.483780860900879,7.209999999999891
2.8138017654418945,-0.46625804901123047,-2.4133670330047607,7.2199999999998905
2.748640775680542,-0.7593393325805664,-2.571682929992676,7.22999999999989
2.4082846641540527,-1.189610481262207,-2.982501745223999,7.23999999999989
1.8744087219238281,-1.5891151428222656,-3.433560848236084,7.24999999999989
0.9708232283592224,-1.7443652153015137,-3.809537172317505,7.25999999999989
-0.27499473094940186,-1.5018997192382812,-3.875844955444336,7.269999999999889
-1.5397846698760986,-1.0720577239990234,-3.56778621673584,7.279999999999889
-2.4168457984924316,-0.5839204788208008,-2.9730966091156006,7.289999999999889
-3.0611352920532227,-0.13088417053222656,-2.17830491065979,7.299999999999889
-3.3512580394744873,0.10273170471191406,-1.2477229833602905,7.309999999999889
-3.2215805053710938,0.12884044647216797,-0.3192633390426636,7.319999999999888
-2.8366658687591553,-0.1457986831665039,0.4046570062637329,7.329999999999888
-2.1580634117126465,-0.7591791152954102,0.7573322057723999,7.339999999999888
-1.5957622528076172,-1.5363521575927734,0.7536875009536743,7.349999999999888
-1.2751173973083496,-2.3671083450317383,0.5017383098602295,7.3599999999998875
-1.1765626668930054,-3.0648298263549805,0.1426527500152588,7.369999999999887
-1.1954840421676636,-3.577038288116455,-0.3188794255256653,7.379999999999887
-1.2643882036209106,-3.829789161682129,-0.8543238639831543,7.389999999999887
-1.3718719482421875,-3.9166173934936523,-1.2940788269042969,7.399999999999887
-1.420997142791748,-3.892697811126709,-1.5954267978668213,7.4099999999998865
-1.5882960557937622,-3.6267080307006836,-1.727128267288208,7.419999999999886
-1.4468666315078735,-3.2744622230529785,-1.6049281358718872,7.429999999999886
-1.1338142156600952,-2.9556493759155273,-1.522984504699707,7.439999999999886
-0.6542425155639648,-2.7204298973083496,-1.4502050876617432,7.449999999999886
-0.12291109561920166,-2.4108643531799316,-1.3365519046783447,7.459999999999885
0.3409944176673889,-2.175253391265869,-1.2351038455963135,7.469999999999885
0.6471104621887207,-1.9656600952148438,-1.0959556102752686,7.479999999999885
0.7887356281280518,-1.7892098426818848,-0.933792233467102,7.489999999999885
0.8045540452003479,-1.6888933181762695,-0.6986914277076721,7.4999999999998845
0.7737228870391846,-1.7004899978637695,-0.49365875124931335,7.509999999999884
0.7345123887062073,-1.6947450637817383,-0.285592645406723,7.519999999999884
0.6748787760734558,-1.6597461700439453,-0.057987138628959656,7.529999999999884
0.5897852778434753,-1.5883960723876953,0.18929153680801392,7.539999999999884
0.5744022727012634,-1.471221923828125,0.408419668674469,7.5499999999998835
0.5252218246459961,-1.2270374298095703,0.46298664808273315,7.559999999999883
0.5089423060417175,-0.9253931045532227,0.398073673248291,7.569999999999883
0.4943370819091797,-0.6548805236816406,0.35437384247779846,7.579999999999883
0.5844539999961853,-0.4991922378540039,0.3409433364868164,7.589999999999883
0.7295349836349487,-0.4103889465332031,0.4172733724117279,7.599999999999882
0.937384843826294,-0.4123048782348633,0.5377337336540222,7.609999999999882
1.132035732269287,-0.4904813766479492,0.6521397829055786,7.619999999999882
1.2733728885650635,-0.534825325012207,0.7391242980957031,7.629999999999882
1.3878756761550903,-0.5119009017944336,0.8684531450271606,7.6399999999998816
1.4084619283676147,-0.4098348617553711,1.012097716331482,7.649999999999881
1.3755955696105957,-0.22154903411865234,1.2066642045974731,7.659999999999881
1.2890069484710693,-0.009321212768554688,1.3952637910842896,7.669999999999881
1.2798879146575928,0.14073657989501953,1.5569665431976318,7.679999999999881
1.302213191986084,0.1832427978515625,1.7325990200042725,7.6899999999998805
1.4344992637634277,0.1756887435913086,1.9221749305725098,7.69999999999988
1.5974528789520264,0.1946086883544922,1.9818390607833862,7.70999999999988
1.8553657531738281,0.23513507843017578,1.9424521923065186,7.71999999999988
2.1626510620117188,0.2876462936401367,1.8110322952270508,7.72999999999988
2.3350892066955566,0.3449220657348633,1.625760793685913,7.739999999999879
2.408632755279541,0.4547433853149414,1.5299925804138184,7.749999999999879
2.361886978149414,0.7293949127197266,1.4659733772277832,7.759999999999879
2.230788230895996,1.1375408172607422,1.4859477281570435,7.769999999999879
2.1423051357269287,1.6837806701660156,1.5035121440887451,7.779999999999879
2.2307076454162598,2.157543182373047,1.3725457191467285,7.789999999999878
2.249575614929199,2.9774017333984375,1.220571517944336,7.799999999999878
2.3129560947418213,3.2485485076904297,0.7799922227859497,7.809999999999878
2.259093999862671,3.29422664642334,0.32321181893348694,7.819999999999878
2.3742618560791016,3.1958513259887695,0.10566407442092896,7.8299999999998775
2.650986671447754,3.025271415710449,0.26055601239204407,7.839999999999877
2.9935715198516846,2.823235511779785,0.6848061084747314,7.849999999999877
3.2153334617614746,2.6639299392700195,1.1731823682785034,7.859999999999877
3.249112606048584,2.5162200927734375,1.5520679950714111,7.869999999999877
3.221529960632324,2.571382522583008,1.7316741943359375,7.879999999999876
3.1226906776428223,2.709589958190918,1.5551319122314453,7.889999999999876
2.923482656478882,3.0263071060180664,1.1042447090148926,7.899999999999876
2.6472549438476562,3.6814212799072266,0.5299333333969116,7.909999999999876
2.379849910736084,4.528586387634277,0.08297950029373169,7.919999999999876
2.138315200805664,5.464756011962891,-0.3357985019683838,7.929999999999875
1.8898594379425049,6.157491683959961,-0.8356204628944397,7.939999999999875
1.3909413814544678,6.260366439819336,-1.4541821479797363,7.949999999999875
0.7132799625396729,5.771658897399902,-2.254953145980835,7.959999999999875
0.06496191024780273,4.84039306640625,-3.065983533859253,7.9699999999998745
-0.19940221309661865,3.725541114807129,-3.701059341430664,7.979999999999874
-0.3472707271575928,2.630735397338867,-3.8385868072509766,7.989999999999874
