AccX,AccY,AccZ,SampleRate
-1.2669641971588135,0.35729408264160156,1.795945167541504,0
-2.0858662128448486,1.097219467163086,0.24583125114440918,0.01
-2.4753732681274414,2.800952911376953,-0.5021345615386963,0.02
-1.8606098890304565,5.124332427978516,-0.9796919822692871,0.03
-1.1358474493026733,7.692510604858398,-1.6053766012191772,0.04
-0.7085943222045898,10.10927963256836,-2.430582046508789,0.05
0.27501070499420166,12.001786231994629,-3.4834389686584473,0.060000000000000005
0.7666049003601074,13.984732627868652,-4.1364827156066895,0.07
0.10154271125793457,15.098677635192871,-5.064523220062256,0.08
-2.6560781002044678,14.154939651489258,-6.587854862213135,0.09
-6.594120979309082,10.809859275817871,-7.779341697692871,0.09999999999999999
-10.014449119567871,6.855838775634766,-7.7354044914245605,0.10999999999999999
-12.069975852966309,2.946566581726074,-6.076931953430176,0.11999999999999998
-10.309173583984375,-0.4343557357788086,-3.774846076965332,0.12999999999999998
-6.756296634674072,-2.8612070083618164,-1.9069401025772095,0.13999999999999999
-4.4245734214782715,-4.510420322418213,-0.47489047050476074,0.15
-2.9463393688201904,-5.82558012008667,0.4686572551727295,0.16
-1.8776144981384277,-6.771252632141113,0.9873337745666504,0.17
-1.0866721868515015,-7.3239240646362305,1.1150929927825928,0.18000000000000002
-0.42594361305236816,-7.256797790527344,0.6338379383087158,0.19000000000000003
-0.31442755460739136,-6.453301429748535,-0.2250351905822754,0.20000000000000004
0.01380908489227295,-5.478754997253418,-0.9380733966827393,0.21000000000000005
0.6496380567550659,-4.5894904136657715,-1.5175807476043701,0.22000000000000006
1.2744771242141724,-3.8382720947265625,-1.9565246105194092,0.23000000000000007
1.7611366510391235,-3.09605073928833,-2.2382583618164062,0.24000000000000007
2.164306163787842,-2.382235527038574,-2.434361457824707,0.25000000000000006
2.6194987297058105,-1.866833209991455,-2.580188512802124,0.26000000000000006
2.892157554626465,-1.117182731628418,-2.818354606628418,0.2700000000000001
2.9023513793945312,-0.40392398834228516,-3.217182159423828,0.2800000000000001
2.608821392059326,0.4454002380371094,-3.6420695781707764,0.2900000000000001
1.992307424545288,1.5436887741088867,-4.05271053314209,0.3000000000000001
0.8884878158569336,2.7433815002441406,-4.347746849060059,0.3100000000000001
-0.5094512701034546,3.6102466583251953,-4.321352005004883,0.3200000000000001
-1.7166554927825928,3.8561201095581055,-3.9157943725585938,0.3300000000000001
-2.4381299018859863,3.489156723022461,-2.9743447303771973,0.34000000000000014
-2.3741376399993896,2.5888233184814453,-1.7700512409210205,0.35000000000000014
-1.8063650131225586,1.3347492218017578,-0.5443168878555298,0.36000000000000015
-1.134719729423523,-0.057778358459472656,0.49280309677124023,0.37000000000000016
-0.6672149896621704,-1.4429779052734375,1.0306506156921387,0.38000000000000017
-0.43896085023880005,-2.5603814125061035,1.0981260538101196,0.3900000000000002
-0.3633997142314911,-3.5180435180664062,0.7576210498809814,0.4000000000000002
-0.3379405736923218,-4.1728196144104,0.2822389602661133,0.4100000000000002
-0.5576657056808472,-4.589723110198975,-0.10771465301513672,0.4200000000000002
-0.7734512090682983,-4.795425891876221,-0.41414380073547363,0.4300000000000002
-1.035839319229126,-4.809335231781006,-0.6893505454063416,0.4400000000000002
-1.2498193979263306,-4.631653308868408,-0.9523205757141113,0.45000000000000023
-1.3973244428634644,-4.322385787963867,-1.1834475994110107,0.46000000000000024
-1.4964287281036377,-3.8266687393188477,-1.3322367668151855,0.47000000000000025
-1.3952192068099976,-3.316908359527588,-1.3312269449234009,0.48000000000000026
-1.1780872344970703,-2.7692313194274902,-1.2757614850997925,0.49000000000000027
-0.8281898498535156,-2.248232364654541,-1.1587227582931519,0.5000000000000002
-0.4406810700893402,-1.7275028228759766,-1.04306960105896,0.5100000000000002
-0.0221715047955513,-1.242844581604004,-0.8937143087387085,0.5200000000000002
0.250893771648407,-0.8156871795654297,-0.7734689116477966,0.5300000000000002
0.43415117263793945,-0.4913492202758789,-0.5872994065284729,0.5400000000000003
0.5351763367652893,-0.3462200164794922,-0.3640179932117462,0.5500000000000003
0.58760005235672,-0.3609447479248047,-0.15389540791511536,0.5600000000000003
0.5526691675186157,-0.4133758544921875,0.031082063913345337,0.5700000000000003
0.45839372277259827,-0.5656442642211914,0.11914703249931335,0.5800000000000003
0.3710349202156067,-0.7626409530639648,0.16040325164794922,0.5900000000000003
0.357097327709198,-0.9780282974243164,0.09225866198539734,0.6000000000000003
0.3971940875053406,-1.1926794052124023,-0.016382694244384766,0.6100000000000003
0.41958892345428467,-1.3372859954833984,-0.14454659819602966,0.6200000000000003
0.46744969487190247,-1.4693670272827148,-0.24233698844909668,0.6300000000000003
0.5315699577331543,-1.5148468017578125,-0.2549755275249481,0.6400000000000003
0.6532444953918457,-1.5049448013305664,-0.21604515612125397,0.6500000000000004
0.7538871765136719,-1.5210504531860352,-0.0942811369895935,0.6600000000000004
0.8459503650665283,-1.4459733963012695,0.12495340406894684,0.6700000000000004
0.8842145204544067,-1.2822227478027344,0.4015202522277832,0.6800000000000004
0.8354694247245789,-1.0538110733032227,0.6430043578147888,0.6900000000000004
0.7713790535926819,-0.7010374069213867,0.8241537809371948,0.7000000000000004
0.7252076864242554,-0.38425445556640625,0.8115547299385071,0.7100000000000004
0.8884095549583435,-0.23490238189697266,0.6126495003700256,0.7200000000000004
0.9778569340705872,0.23976707458496094,0.5072952508926392,0.7300000000000004
0.7721545696258545,0.5466747283935547,0.34935083985328674,0.7400000000000004
0.998261570930481,0.6596784591674805,0.31515735387802124,0.7500000000000004
1.2373759746551514,0.7415943145751953,0.44697973132133484,0.7600000000000005
1.3841177225112915,0.9095830917358398,0.7420798540115356,0.7700000000000005
1.3593850135803223,1.1108770370483398,1.0951330661773682,0.7800000000000005
1.110414743423462,1.2879934310913086,1.427288293838501,0.7900000000000005
0.7686312198638916,1.601099967956543,1.7361953258514404,0.8000000000000005
0.41546720266342163,1.7821846008300781,1.8565714359283447,0.8100000000000005
0.2376667857170105,1.9294281005859375,1.8934648036956787,0.8200000000000005
0.2592439651489258,2.088298797607422,1.7725719213485718,0.8300000000000005
0.45372605323791504,2.273099899291992,1.4171165227890015,0.8400000000000005
0.7822171449661255,2.3976240158081055,0.9629814624786377,0.8500000000000005
1.23209547996521,2.502492904663086,0.6224503517150879,0.8600000000000005
1.757758378982544,2.559006690979004,0.5601181983947754,0.8700000000000006
2.399960994720459,2.514651298522949,0.8121074438095093,0.8800000000000006
2.9698195457458496,2.470022201538086,1.1660914421081543,0.8900000000000006
3.4192798137664795,2.441852569580078,1.4054372310638428,0.9000000000000006
3.638170003890991,2.6142311096191406,1.4476935863494873,0.9100000000000006
3.765321969985962,2.977349281311035,1.0691999197006226,0.9200000000000006
3.796044111251831,3.3899011611938477,0.48631206154823303,0.9300000000000006
3.7662277221679688,3.7944326400756836,0.008086591958999634,0.9400000000000006
3.6974539756774902,4.315275192260742,-0.3804752826690674,0.9500000000000006
3.515583038330078,4.916356086730957,-0.7532880306243896,0.9600000000000006
2.9448347091674805,5.501765251159668,-1.2495620250701904,0.9700000000000006
2.130610466003418,5.801191329956055,-1.802141785621643,0.9800000000000006
1.1898771524429321,5.590227127075195,-2.339956045150757,0.9900000000000007
0.6046696901321411,4.6258544921875,-2.8004825115203857,1.0000000000000007
-0.05528891086578369,4.011488914489746,-3.178130626678467,1.0100000000000007
-1.1692025661468506,3.297116279602051,-3.193119525909424,1.0200000000000007
-1.9981083869934082,2.578587532043457,-2.911250591278076,1.0300000000000007
-2.513072967529297,2.162200927734375,-2.3167896270751953,1.0400000000000007
-2.684735059738159,1.9570074081420898,-1.5622119903564453,1.0500000000000007
-2.689314365386963,1.9940595626831055,-0.11803839355707169,1.0600000000000007
-2.7151072025299072,2.196619987487793,1.2946875095367432,1.0700000000000007
-2.824347972869873,2.5692596435546875,1.1555142402648926,1.0800000000000007
-3.0839972496032715,2.784280776977539,-0.23752814531326294,1.0900000000000007
-3.252138376235962,2.865985870361328,-1.7715201377868652,1.1000000000000008
-3.524669647216797,2.946218490600586,-2.665236711502075,1.1100000000000008
-3.781618118286133,2.9341821670532227,-2.925215005874634,1.1200000000000008
-3.9748411178588867,2.8107566833496094,-2.7259442806243896,1.1300000000000008
-4.006040096282959,2.551947593688965,-2.3467183113098145,1.1400000000000008
-3.8413519859313965,2.2103023529052734,-2.1155123710632324,1.1500000000000008
-3.6191723346710205,1.804957389831543,-2.18992280960083,1.1600000000000008
-3.4614243507385254,1.4937849044799805,-2.259701728820801,1.1700000000000008
-3.361283779144287,1.2623529434204102,-2.089400291442871,1.1800000000000008
-3.369554281234741,1.1512184143066406,-1.6082336902618408,1.1900000000000008
-3.400961399078369,1.1650314331054688,-1.0250300168991089,1.2000000000000008
-3.4111320972442627,1.2893638610839844,-0.574817955493927,1.2100000000000009
-3.3339285850524902,1.4166345596313477,-0.3444517254829407,1.2200000000000009
-3.2700862884521484,1.5470142364501953,-0.17185521125793457,1.2300000000000009
-3.104658603668213,1.620819091796875,-0.021195173263549805,1.2400000000000009
-2.851409435272217,1.6190195083618164,0.2369539737701416,1.2500000000000009
-2.564521551132202,1.4029808044433594,0.485851526260376,1.260000000000001
-2.2816944122314453,1.082876205444336,0.644875168800354,1.270000000000001
-1.9808406829833984,0.7855052947998047,0.6020476818084717,1.280000000000001
-1.5221612453460693,0.4724740982055664,0.460644006729126,1.290000000000001
-0.9999929666519165,0.06476402282714844,0.25175929069519043,1.300000000000001
-0.6185163855552673,-0.42084407806396484,-0.08499455451965332,1.310000000000001
-0.19674605131149292,-1.0011787414550781,-0.2699570655822754,1.320000000000001
-0.03549075126647949,-1.5996971130371094,-0.4257158041000366,1.330000000000001
-0.04850208759307861,-2.1399049758911133,-0.5884964466094971,1.340000000000001
-0.04407060146331787,-2.681790828704834,-0.6578137874603271,1.350000000000001
0.008812904357910156,-3.1370015144348145,-0.6336550712585449,1.360000000000001
-0.1248253583908081,-3.3718175888061523,-0.6043413877487183,1.370000000000001
-0.3619353771209717,-3.4343481063842773,-0.5792361497879028,1.380000000000001
-0.576373279094696,-3.4348206520080566,-0.5365513563156128,1.390000000000001
-0.6587654948234558,-3.3374738693237305,-0.45216047763824463,1.400000000000001
-0.7799867391586304,-3.0897035598754883,-0.48169469833374023,1.410000000000001
-0.9549602270126343,-2.7800111770629883,-0.7163153886795044,1.420000000000001
-0.9469748735427856,-2.508739471435547,-0.9676220417022705,1.430000000000001
-0.9427396059036255,-2.2925071716308594,-1.137905240058899,1.440000000000001
-0.8894339799880981,-2.155214309692383,-1.1674202680587769,1.450000000000001
-0.8563311696052551,-2.106480121612549,-1.0797299146652222,1.460000000000001
-0.8096354007720947,-2.1774826049804688,-0.9246053695678711,1.470000000000001
-0.7250170707702637,-2.2319798469543457,-0.8260598182678223,1.480000000000001
-0.7337664365768433,-2.363321304321289,-0.8533741235733032,1.490000000000001
-0.7925937175750732,-2.5761709213256836,-0.9756202697753906,1.500000000000001
-0.6714779138565063,-2.8537912368774414,-1.0252978801727295,1.5100000000000011
-0.6091684103012085,-3.1245126724243164,-1.0598483085632324,1.5200000000000011
-0.4303624629974365,-3.460296154022217,-1.01687753200531,1.5300000000000011
-0.3642617464065552,-3.779973030090332,-0.9774603843688965,1.5400000000000011
-0.1664106845855713,-4.1244072914123535,-0.9269306659698486,1.5500000000000012
-0.004095196723937988,-4.433948040008545,-0.8147870302200317,1.5600000000000012
0.024525761604309082,-4.6201863288879395,-0.7725178003311157,1.5700000000000012
0.1541498899459839,-4.860291004180908,-0.7497265338897705,1.5800000000000012
0.3967021703720093,-5.001175403594971,-0.7201160192489624,1.5900000000000012
0.27814650535583496,-5.042963027954102,-0.6188116073608398,1.6000000000000012
0.360500693321228,-5.153287887573242,-0.36150240898132324,1.6100000000000012
0.3657127618789673,-5.210221767425537,-0.002710580825805664,1.6200000000000012
-0.05398738384246826,-5.156241416931152,0.2279512882232666,1.6300000000000012
-0.3872697353363037,-5.043830871582031,0.36859893798828125,1.6400000000000012
-0.48887836933135986,-4.867997169494629,0.37331056594848633,1.6500000000000012
-0.5627711415290833,-4.654799938201904,0.3586232662200928,1.6600000000000013
-0.6048135757446289,-4.411189556121826,0.3742530345916748,1.6700000000000013
-0.6276549696922302,-4.139399528503418,0.47245240211486816,1.6800000000000013
-0.6079162955284119,-3.8178486824035645,0.5932784080505371,1.6900000000000013
-0.5601311326026917,-3.5016374588012695,0.710578441619873,1.7000000000000013
-0.5467414855957031,-3.195603847503662,0.793565034866333,1.7100000000000013
-0.5247080326080322,-2.880723476409912,0.8594024181365967,1.7200000000000013
-0.4511612057685852,-2.5689644813537598,0.8603377342224121,1.7300000000000013
-0.40764886140823364,-2.3318710327148438,0.702631950378418,1.7400000000000013
-0.25575190782546997,-2.106935501098633,0.5005166530609131,1.7500000000000013
0.035410284996032715,-1.8795170783996582,0.3176407814025879,1.7600000000000013
0.21461176872253418,-1.601463794708252,0.08103704452514648,1.7700000000000014
0.48525410890579224,-1.2199077606201172,-0.17934036254882812,1.7800000000000014
0.7184412479400635,-0.7491474151611328,-0.2897179126739502,1.7900000000000014
0.831015408039093,-0.16054439544677734,-0.1263744831085205,1.8000000000000014
0.8303433060646057,0.43114376068115234,0.1375894546508789,1.8100000000000014
0.6831797957420349,1.1312265396118164,0.5064475536346436,1.8200000000000014
0.40392035245895386,1.9681072235107422,1.1026091575622559,1.8300000000000014
0.051456987857818604,2.924551010131836,1.8579201698303223,1.8400000000000014
-0.33023306727409363,3.863668441772461,2.48003888130188,1.8500000000000014
-0.693580150604248,4.73252010345459,2.908184051513672,1.8600000000000014
-1.1724720001220703,5.597979545593262,3.102409839630127,1.8700000000000014
-1.4905061721801758,6.261402130126953,3.5564401149749756,1.8800000000000014
-1.236586332321167,6.462162017822266,4.019608020782471,1.8900000000000015
-0.7858351469039917,6.248553276062012,4.410622596740723,1.9000000000000015
-0.4443384110927582,5.592450141906738,4.619339466094971,1.9100000000000015
-0.06175488233566284,4.7121076583862305,4.83461856842041,1.9200000000000015
0.13189566135406494,3.8329458236694336,4.789977073669434,1.9300000000000015
0.026083707809448242,3.273911476135254,4.24388313293457,1.9400000000000015
-0.4279415011405945,3.1936159133911133,3.4709866046905518,1.9500000000000015
-1.066160798072815,3.668644905090332,2.63505220413208,1.9600000000000015
-1.7622815370559692,4.640878677368164,1.5312345027923584,1.9700000000000015
-2.207005262374878,6.197675704956055,0.4581129550933838,1.9800000000000015
-2.154757499694824,8.26784896850586,-0.1626873016357422,1.9900000000000015
-1.3062738180160522,10.325318336486816,-0.5997257232666016,2.0000000000000013
-0.4836242198944092,11.839692115783691,-1.4415853023529053,2.010000000000001
-0.0026671886444091797,12.493792533874512,-2.4174680709838867,2.020000000000001
0.3055058717727661,12.236542701721191,-3.3349597454071045,2.0300000000000007
-0.15907728672027588,11.229162216186523,-4.513774394989014,2.0400000000000005
-1.7515069246292114,9.111331939697266,-5.706875801086426,2.0500000000000003
-4.739345550537109,6.100767135620117,-6.401456832885742,2.06
-7.587275505065918,2.6076431274414062,-6.1136627197265625,2.07
-8.070356369018555,-0.7956457138061523,-4.783361434936523,2.0799999999999996
-5.315127849578857,-3.5534253120422363,-3.0641512870788574,2.0899999999999994
-3.5099520683288574,-5.30615234375,-1.7647006511688232,2.099999999999999
-2.618077516555786,-6.160210609436035,-0.9098361730575562,2.109999999999999
-1.9744640588760376,-6.475058078765869,-0.4414057731628418,2.1199999999999988
-1.2924351692199707,-6.492539405822754,-0.4426732063293457,2.1299999999999986
-0.6624003052711487,-6.339685440063477,-0.7764338254928589,2.1399999999999983
-0.08711862564086914,-5.926311492919922,-1.091534972190857,2.149999999999998
0.2661486864089966,-5.317854881286621,-1.2666023969650269,2.159999999999998
0.7113902568817139,-4.443043231964111,-1.45424222946167,2.1699999999999977
1.0646796226501465,-3.3978137969970703,-1.5446470975875854,2.1799999999999975
1.3455153703689575,-2.1894960403442383,-1.5883617401123047,2.1899999999999973
1.724924087524414,-1.1100826263427734,-1.6738946437835693,2.199999999999997
2.1642112731933594,-0.10936450958251953,-1.8728177547454834,2.209999999999997
2.515084981918335,0.7743120193481445,-2.0820090770721436,2.2199999999999966
2.713062047958374,1.5814504623413086,-2.2290053367614746,2.2299999999999964
2.6977694034576416,2.099127769470215,-2.434983253479004,2.239999999999996
2.3649396896362305,2.4329442977905273,-2.886009454727173,2.249999999999996
1.46079421043396,2.490184783935547,-3.3452415466308594,2.259999999999996
0.23819375038146973,2.152218818664551,-3.670384407043457,2.2699999999999956
-1.0460453033447266,1.7191343307495117,-3.884997844696045,2.2799999999999954
-2.445434808731079,1.3160552978515625,-3.682516574859619,2.289999999999995
-3.607422351837158,0.9002971649169922,-3.112262725830078,2.299999999999995
-4.080609321594238,0.39076995849609375,-2.364424228668213,2.3099999999999947
-3.8188693523406982,-0.23389148712158203,-1.6336479187011719,2.3199999999999945
-3.1167774200439453,-0.9018793106079102,-0.9730501174926758,2.3299999999999943
-2.3850412368774414,-1.5822162628173828,-0.406480073928833,2.339999999999994
-1.7756643295288086,-2.2296500205993652,0.006763100624084473,2.349999999999994
-1.3087795972824097,-2.760730266571045,0.14789021015167236,2.3599999999999937
-0.9853599667549133,-3.2283225059509277,0.08684313297271729,2.3699999999999934
-0.7873924374580383,-3.570401668548584,-0.1330317258834839,2.3799999999999932
-0.7063859105110168,-3.834990978240967,-0.38001465797424316,2.389999999999993
-0.6694926023483276,-3.9959073066711426,-0.7234914302825928,2.399999999999993
-0.7047773599624634,-3.988741874694824,-0.9648491740226746,2.4099999999999926
-0.8551135659217834,-3.837648868560791,-1.2139699459075928,2.4199999999999924
-1.0943431854248047,-3.5595860481262207,-1.4919835329055786,2.429999999999992
-1.3800115585327148,-3.1093082427978516,-1.6860785484313965,2.439999999999992
-1.411218523979187,-2.6090097427368164,-1.7959569692611694,2.4499999999999917
-1.254896640777588,-2.2070059776306152,-1.797633171081543,2.4599999999999915
-1.0903245210647583,-1.8505640029907227,-1.6886906623840332,2.4699999999999913
-0.9101903438568115,-1.412881851196289,-1.375967025756836,2.479999999999991
-0.6664307713508606,-1.0446653366088867,-1.0702366828918457,2.489999999999991
-0.43536949157714844,-0.7720851898193359,-0.8363321423530579,2.4999999999999907
-0.32215991616249084,-0.6547651290893555,-0.6145215034484863,2.5099999999999905
-0.24075494706630707,-0.5920495986938477,-0.39552754163742065,2.5199999999999902
-0.16508561372756958,-0.6460151672363281,-0.10315489768981934,2.52999999999999
-0.09075143933296204,-0.833251953125,0.1763228476047516,2.53999999999999
0.06083458662033081,-1.0029497146606445,0.34451842308044434,2.5499999999999896
0.2821301221847534,-1.1742591857910156,0.4129784107208252,2.5599999999999894
0.5418209433555603,-1.2371978759765625,0.3860592544078827,2.569999999999989
0.7822533845901489,-1.3258323669433594,0.3112139105796814,2.579999999999989
0.969650149345398,-1.4019174575805664,0.20255370438098907,2.5899999999999888
1.1899559497833252,-1.4655227661132812,0.08619950711727142,2.5999999999999885
1.3953611850738525,-1.5214872360229492,0.031459592282772064,2.6099999999999883
1.6817435026168823,-1.567460060119629,0.03131062909960747,2.619999999999988
1.9369642734527588,-1.6225948333740234,0.14604634046554565,2.629999999999988
2.183000087738037,-1.6486129760742188,0.30660688877105713,2.6399999999999877
2.3867099285125732,-1.583369255065918,0.5014817714691162,2.6499999999999875
2.5291337966918945,-1.3887081146240234,0.6664682030677795,2.6599999999999873
2.638981342315674,-1.0910882949829102,0.814173698425293,2.669999999999987
2.5725111961364746,-0.750422477722168,0.8877465128898621,2.679999999999987
2.5758399963378906,-0.3500509262084961,0.9137749075889587,2.6899999999999866
2.6033411026000977,-0.004824638366699219,0.9926938414573669,2.6999999999999864
2.4890620708465576,0.4693441390991211,1.1887495517730713,2.709999999999986
2.1771366596221924,0.9024038314819336,1.3248921632766724,2.719999999999986
2.100283145904541,1.1508760452270508,1.367437481880188,2.7299999999999858
2.105480909347534,1.310624122619629,1.294506549835205,2.7399999999999856
1.8743884563446045,1.3912553787231445,1.15841543674469,2.7499999999999853
1.5746349096298218,1.4023656845092773,1.0731781721115112,2.759999999999985
1.3454684019088745,1.4468421936035156,1.1837279796600342,2.769999999999985
1.0789365768432617,1.5245332717895508,1.4123868942260742,2.7799999999999847
0.5256935954093933,1.690220832824707,1.729569435119629,2.7899999999999845
0.5641840696334839,1.8553276062011719,2.0246901512145996,2.7999999999999843
0.9170125126838684,2.127531051635742,2.1258256435394287,2.809999999999984
1.464505910873413,2.492399215698242,1.8593411445617676,2.819999999999984
2.1200695037841797,2.670041084289551,1.2671058177947998,2.8299999999999836
2.8234853744506836,2.660658836364746,0.7087045311927795,2.8399999999999834
3.4284939765930176,2.6174774169921875,0.4548160433769226,2.849999999999983
3.99729585647583,2.5811853408813477,0.4456755518913269,2.859999999999983
4.431926250457764,2.5470027923583984,0.6120555996894836,2.869999999999983
4.646486282348633,2.6177635192871094,0.827507734298706,2.8799999999999826
4.609869956970215,2.755056381225586,0.8703247308731079,2.8899999999999824
4.256986618041992,2.8989057540893555,0.545179009437561,2.899999999999982
3.7090768814086914,3.168675422668457,0.07959002256393433,2.909999999999982
3.0825014114379883,3.619013786315918,-0.39286234974861145,2.9199999999999817
2.251924991607666,4.349911689758301,-0.7679716348648071,2.9299999999999815
1.4510780572891235,5.073929786682129,-1.1952623128890991,2.9399999999999813
0.7016074061393738,5.485034942626953,-1.7499947547912598,2.949999999999981
0.037407755851745605,5.413946151733398,-2.4448373317718506,2.959999999999981
-0.5721666812896729,4.823156356811523,-3.0025217533111572,2.9699999999999807
-0.844103217124939,3.847431182861328,-3.294372797012329,2.9799999999999804
-1.7939376831054688,3.118412971496582,-3.2565391063690186,2.9899999999999802
-2.594571352005005,2.3129653930664062,-2.902224063873291,2.99999999999998
-2.9225661754608154,1.684915542602539,-2.356982469558716,3.00999999999998
-2.675722599029541,1.339742660522461,-1.628601312637329,3.0199999999999796
-2.2805237770080566,1.330174446105957,-0.29896795749664307,3.0299999999999794
-2.116555690765381,1.675149917602539,1.0150974988937378,3.039999999999979
-2.207249879837036,2.1280269622802734,0.9898412227630615,3.049999999999979
-2.3251919746398926,2.566779136657715,-0.19804000854492188,3.0599999999999787
-2.3599984645843506,2.8983354568481445,-1.6650772094726562,3.0699999999999785
-2.4640722274780273,3.2019529342651367,-2.491581916809082,3.0799999999999783
-2.7660012245178223,3.568669319152832,-2.4570846557617188,3.089999999999978
-3.2178287506103516,3.8596878051757812,-1.9347312450408936,3.099999999999978
-3.776726245880127,4.122727394104004,-1.4065041542053223,3.1099999999999777
-4.24173641204834,4.247581481933594,-1.2253985404968262,3.1199999999999775
-4.49029016494751,4.095529556274414,-1.5183959007263184,3.1299999999999772
-4.567225933074951,3.7146148681640625,-1.9047925472259521,3.139999999999977
-4.754715442657471,3.3728466033935547,-2.1176071166992188,3.149999999999977
-4.890344619750977,3.079702377319336,-1.9933395385742188,3.1599999999999766
-4.939146518707275,2.935532569885254,-1.5239953994750977,3.1699999999999764
-4.866567134857178,2.878016471862793,-0.8929274082183838,3.179999999999976
-4.683622360229492,2.856907844543457,-0.30229777097702026,3.189999999999976
-4.434532642364502,2.8101062774658203,0.18007910251617432,3.1999999999999758
-4.103240489959717,2.6636619567871094,0.5248886346817017,3.2099999999999755
-3.7305212020874023,2.391538619995117,0.7270947694778442,3.2199999999999753
-3.282581329345703,1.9748926162719727,0.7866110801696777,3.229999999999975
-2.7753236293792725,1.34222412109375,0.7588717937469482,3.239999999999975
-2.159940004348755,0.7114028930664062,0.6633986234664917,3.2499999999999747
-1.6028484106063843,0.156494140625,0.37169349193573,3.2599999999999745
-0.9517039060592651,-0.2964162826538086,0.06857061386108398,3.2699999999999743
-0.4275016188621521,-0.7934370040893555,-0.202795147895813,3.279999999999974
0.05266523361206055,-1.353724479675293,-0.42848658561706543,3.289999999999974
0.4974846839904785,-2.015623092651367,-0.5823339223861694,3.2999999999999736
0.7643639445304871,-2.681157112121582,-0.7193136215209961,3.3099999999999734
0.7119540572166443,-3.254697799682617,-0.9784553050994873,3.319999999999973
0.5888465046882629,-3.72438383102417,-1.2763278484344482,3.329999999999973
0.5405259728431702,-4.111840724945068,-1.4816672801971436,3.3399999999999728
0.49677664041519165,-4.292825698852539,-1.6542891263961792,3.3499999999999726
0.41399580240249634,-4.3895673751831055,-1.7796708345413208,3.3599999999999723
0.42582106590270996,-4.397459983825684,-1.8025319576263428,3.369999999999972
0.4430871605873108,-4.424276351928711,-1.751250147819519,3.379999999999972
0.43412649631500244,-4.3217854499816895,-1.673397421836853,3.3899999999999717
0.36737966537475586,-4.21211051940918,-1.6525158882141113,3.3999999999999715
0.21850043535232544,-4.030794620513916,-1.4871469736099243,3.4099999999999713
0.04453134536743164,-3.8641695976257324,-1.1934638023376465,3.419999999999971
-0.2360762357711792,-3.8104677200317383,-0.9046958684921265,3.429999999999971
-0.4464571475982666,-3.785942554473877,-0.7592887878417969,3.4399999999999706
-0.7279267311096191,-3.754777431488037,-0.682748556137085,3.4499999999999704
-0.8459981679916382,-3.8198370933532715,-0.6989737749099731,3.45999999999997
-0.9035913348197937,-3.823272228240967,-0.7025501728057861,3.46999999999997
-1.0035929679870605,-3.8799948692321777,-0.7532256841659546,3.47999999999997
-1.102764368057251,-4.006730079650879,-0.8294503688812256,3.4899999999999696
-1.0334908962249756,-4.2321977615356445,-0.8114861249923706,3.4999999999999694
-1.0445867776870728,-4.410564422607422,-0.7875816822052002,3.509999999999969
-0.9397661685943604,-4.668644428253174,-0.8893548250198364,3.519999999999969
-0.6754834651947021,-4.920401096343994,-0.8822352886199951,3.5299999999999687
-0.2727900743484497,-5.268888473510742,-0.7085943222045898,3.5399999999999685
-0.1549835205078125,-5.441427230834961,-0.5599944591522217,3.5499999999999683
0.21448564529418945,-5.610452175140381,-0.4245905876159668,3.559999999999968
0.43905842304229736,-5.713797569274902,-0.2716329097747803,3.569999999999968
0.6151025295257568,-5.761076927185059,-0.09193563461303711,3.5799999999999677
0.625580906867981,-5.692547798156738,0.19083762168884277,3.5899999999999674
0.6617089509963989,-5.5823493003845215,0.45194578170776367,3.5999999999999672
0.22978878021240234,-5.243837356567383,0.7271592617034912,3.609999999999967
-0.04885733127593994,-4.8827104568481445,0.9826905727386475,3.619999999999967
-0.08870398998260498,-4.544275283813477,1.1560909748077393,3.6299999999999666
-0.07211142778396606,-4.221173286437988,1.192129373550415,3.6399999999999664
-0.08058977127075195,-3.86301326751709,1.1025068759918213,3.649999999999966
0.06743979454040527,-3.5056166648864746,1.0473964214324951,3.659999999999966
0.1565343141555786,-3.1274290084838867,0.959747314453125,3.6699999999999657
0.3133049011230469,-2.7690329551696777,0.8441801071166992,3.6799999999999655
0.40843522548675537,-2.3729662895202637,0.7891027927398682,3.6899999999999653
0.6021384000778198,-2.0444164276123047,0.7368688583374023,3.699999999999965
1.0211100578308105,-1.814253807067871,0.6511681079864502,3.709999999999965
1.3493356704711914,-1.5554680824279785,0.49806714057922363,3.7199999999999647
1.5435197353363037,-1.1172161102294922,0.31519532203674316,3.7299999999999645
1.7804280519485474,-0.6093082427978516,-0.07565927505493164,3.7399999999999642
1.8179477453231812,0.035607337951660156,-0.4893200397491455,3.749999999999964
1.8807651996612549,0.71484375,-0.5967905521392822,3.759999999999964
1.8323562145233154,1.4307403564453125,-0.2429795265197754,3.7699999999999636
1.5335392951965332,2.319443702697754,0.46921539306640625,3.7799999999999634
1.1076247692108154,3.2251663208007812,1.2652256488800049,3.789999999999963
0.452375590801239,4.159646034240723,1.9762988090515137,3.799999999999963
-0.09910953044891357,5.079673767089844,2.4981977939605713,3.8099999999999627
-0.4654771685600281,5.827320098876953,2.805227518081665,3.8199999999999625
-0.674555778503418,6.464746475219727,3.2855193614959717,3.8299999999999623
-0.5080268979072571,6.640069007873535,4.000214099884033,3.839999999999962
-0.4299291968345642,6.441804885864258,4.6781325340271,3.849999999999962
-0.4184451401233673,5.987222671508789,5.272637367248535,3.8599999999999617
-0.3223346769809723,5.257382392883301,5.67415714263916,3.8699999999999615
-0.26078346371650696,4.1763200759887695,5.894123077392578,3.8799999999999613
-0.04451948404312134,2.9336652755737305,5.807440757751465,3.889999999999961
0.00338900089263916,1.8191022872924805,5.686655521392822,3.899999999999961
-0.2724294066429138,1.0582284927368164,4.66795539855957,3.9099999999999606
-0.4837322235107422,0.6638031005859375,3.413215160369873,3.9199999999999604
-1.03713858127594,0.5495128631591797,2.7112843990325928,3.92999999999996
-2.0668857097625732,0.7840452194213867,1.5825159549713135,3.93999999999996
-3.180302143096924,1.7568950653076172,-0.4247782230377197,3.9499999999999598
-3.6504132747650146,3.792022705078125,-1.9437471628189087,3.9599999999999596
-2.9095654487609863,6.389152526855469,-2.4166555404663086,3.9699999999999593
-1.6845777034759521,9.103267669677734,-2.980944871902466,3.979999999999959
-0.25188446044921875,11.121496200561523,-4.004823684692383,3.989999999999959
0.9127206802368164,12.59026050567627,-4.601910591125488,3.9999999999999587
0.878677248954773,13.659200668334961,-4.91262149810791,4.009999999999959
-0.8505997061729431,13.5698881149292,-5.57690954208374,4.019999999999959
-4.331910133361816,11.19467830657959,-6.505537986755371,4.0299999999999585
-8.221417427062988,7.599482536315918,-6.837697982788086,4.039999999999958
-10.916604042053223,3.647862434387207,-5.951896667480469,4.049999999999958
-9.708063125610352,0.2409963607788086,-4.3385725021362305,4.059999999999958
-6.0422492027282715,-2.103825569152832,-2.9587788581848145,4.069999999999958
-3.8289856910705566,-3.6467227935791016,-1.4878531694412231,4.079999999999957
-2.6168951988220215,-4.678425312042236,-0.11527490615844727,4.089999999999957
-1.8697952032089233,-5.400352954864502,0.5307660102844238,4.099999999999957
-1.3224689960479736,-5.8342742919921875,0.3887138366699219,4.109999999999957
-0.7959147691726685,-5.963967323303223,-0.18652081489562988,4.119999999999957
-0.9558999538421631,-5.3618268966674805,-0.9698617458343506,4.129999999999956
-0.8983104825019836,-4.358824253082275,-1.5116673707962036,4.139999999999956
-0.26204007863998413,-3.242753505706787,-1.7088680267333984,4.149999999999956
0.4615233540534973,-2.2340192794799805,-1.8985320329666138,4.159999999999956
1.1443806886672974,-1.351639747619629,-2.1741230487823486,4.1699999999999555
1.625253677368164,-0.6313533782958984,-2.4926888942718506,4.179999999999955
2.0950984954833984,0.07740974426269531,-2.526045083999634,4.189999999999955
2.48392391204834,0.5088520050048828,-2.517268419265747,4.199999999999955
2.654416799545288,0.8542585372924805,-2.6826419830322266,4.209999999999955
2.5692036151885986,0.9965190887451172,-3.085841178894043,4.2199999999999545
2.180129289627075,1.0413923263549805,-3.5927863121032715,4.229999999999954
1.4931918382644653,1.0159673690795898,-4.065975189208984,4.239999999999954
0.6522426605224609,0.8732786178588867,-4.256158351898193,4.249999999999954
-0.4082368016242981,0.8078794479370117,-4.062553405761719,4.259999999999954
-1.483966588973999,0.7843694686889648,-3.5396928787231445,4.269999999999953
-2.200669527053833,0.750396728515625,-2.7343990802764893,4.279999999999953
-2.517989158630371,0.6629676818847656,-1.879329800605774,4.289999999999953
-2.281405448913574,0.4526386260986328,-1.0389759540557861,4.299999999999953
-1.8589929342269897,0.10015678405761719,-0.3059532642364502,4.3099999999999525
-1.3354377746582031,-0.4471769332885742,0.22494757175445557,4.319999999999952
-0.8545409440994263,-1.1558189392089844,0.47539329528808594,4.329999999999952
-0.483401894569397,-1.884572982788086,0.40262794494628906,4.339999999999952
-0.2964480519294739,-2.5760436058044434,0.08559238910675049,4.349999999999952
-0.27056339383125305,-3.1442041397094727,-0.2867816686630249,4.3599999999999515
-0.37362831830978394,-3.5700936317443848,-0.6499494314193726,4.369999999999951
-0.5646052360534668,-3.8395562171936035,-0.9536371827125549,4.379999999999951
-0.8773032426834106,-3.869144916534424,-1.1854476928710938,4.389999999999951
-1.1926226615905762,-3.7835278511047363,-1.3019680976867676,4.399999999999951
-1.2670310735702515,-3.558967113494873,-1.3745179176330566,4.40999999999995
-1.1989496946334839,-3.2553791999816895,-1.4821569919586182,4.41999999999995
-1.0457957983016968,-2.9397497177124023,-1.572636365890503,4.42999999999995
-0.7974867224693298,-2.631171703338623,-1.5698351860046387,4.43999999999995
-0.5756062269210815,-2.298516273498535,-1.359377145767212,4.4499999999999496
-0.31533631682395935,-1.9633007049560547,-1.0612391233444214,4.459999999999949
-0.21995824575424194,-1.6828880310058594,-0.6684880256652832,4.469999999999949
-0.2754075825214386,-1.3926315307617188,-0.360679566860199,4.479999999999949
-0.31935209035873413,-1.1833887100219727,-0.035066962242126465,4.489999999999949
-0.4863736629486084,-1.0550737380981445,0.2534916400909424,4.4999999999999485
-0.5378431081771851,-0.9956483840942383,0.4262377619743347,4.509999999999948
-0.6397271156311035,-0.9978694915771484,0.499748557806015,4.519999999999948
-0.5985592603683472,-1.071242332458496,0.4999663233757019,4.529999999999948
-0.3953472077846527,-1.1535310745239258,0.5031747817993164,4.539999999999948
-0.20462775230407715,-1.2447509765625,0.3538246750831604,4.549999999999947
0.014395326375961304,-1.318613052368164,0.2240457832813263,4.559999999999947
0.2139068841934204,-1.341695785522461,0.09946022927761078,4.569999999999947
0.4490337371826172,-1.3619098663330078,0.07086500525474548,4.579999999999947
0.7389304041862488,-1.3434219360351562,0.10225584357976913,4.589999999999947
1.0428836345672607,-1.2408771514892578,0.21737319231033325,4.599999999999946
1.341625452041626,-1.207448959350586,0.32999852299690247,4.609999999999946
1.5992004871368408,-1.1139774322509766,0.4230576157569885,4.619999999999946
1.8468232154846191,-0.9820823669433594,0.4869254231452942,4.629999999999946
2.0105173587799072,-0.8142213821411133,0.5119651556015015,4.6399999999999455
1.9801833629608154,-0.6104888916015625,0.5270078182220459,4.649999999999945
1.8277626037597656,-0.45941925048828125,0.5490487217903137,4.659999999999945
1.7641689777374268,-0.48286914825439453,0.6359275579452515,4.669999999999945
1.556913137435913,-0.4319782257080078,0.9392136931419373,4.679999999999945
0.9947283864021301,-0.41213417053222656,1.2301993370056152,4.689999999999944
0.9081261157989502,-0.44238853454589844,1.3682767152786255,4.699999999999944
0.9141963720321655,-0.31464385986328125,1.3676012754440308,4.709999999999944
0.8714569807052612,-0.10328197479248047,1.2876008749008179,4.719999999999944
0.8084380626678467,0.1771688461303711,1.151340365409851,4.729999999999944
0.7778306007385254,0.37113285064697266,1.0172340869903564,4.739999999999943
0.8058567643165588,0.5623311996459961,0.9918146133422852,4.749999999999943
0.7917220592498779,0.812861442565918,1.0939955711364746,4.759999999999943
0.9696472883224487,1.0795860290527344,1.1424329280853271,4.769999999999943
1.308388113975525,1.4390268325805664,1.0784409046173096,4.7799999999999425
1.8032310009002686,1.7285242080688477,0.8215720653533936,4.789999999999942
2.4084434509277344,1.931412696838379,0.5087339282035828,4.799999999999942
2.8485631942749023,1.9903545379638672,0.39121130108833313,4.809999999999942
3.1446313858032227,2.003448486328125,0.4377354383468628,4.819999999999942
3.4303855895996094,2.0519819259643555,0.6576768159866333,4.8299999999999415
3.751361846923828,2.071343421936035,0.9479125142097473,4.839999999999941
3.935638427734375,2.044865608215332,1.2199885845184326,4.849999999999941
3.8926572799682617,2.006103515625,1.4359134435653687,4.859999999999941
3.7423009872436523,1.9407291412353516,1.5001354217529297,4.869999999999941
3.6400625705718994,1.9348382949829102,1.3482823371887207,4.87999999999994
3.5044798851013184,1.9978914260864258,0.8990261554718018,4.88999999999994
3.4503211975097656,2.0795650482177734,0.2717919945716858,4.89999999999994
3.2736294269561768,2.4690513610839844,-0.45941802859306335,4.90999999999994
2.9229657649993896,3.108369827270508,-1.0578020811080933,4.9199999999999395
2.4404611587524414,3.875088691711426,-1.4975941181182861,4.929999999999939
1.8330025672912598,4.582462310791016,-1.8400840759277344,4.939999999999939
0.9712023138999939,4.888579368591309,-2.2040598392486572,4.949999999999939
-0.13061261177062988,4.612215995788574,-2.4902918338775635,4.959999999999939
-1.0506647825241089,3.8738327026367188,-2.520782232284546,4.9699999999999385
-1.3833158016204834,3.0163049697875977,-2.1490819454193115,4.979999999999938
-2.075906753540039,2.4656009674072266,-1.6349436044692993,4.989999999999938
-2.5442898273468018,2.267031669616699,-0.8517325520515442,4.999999999999938
-2.6275815963745117,2.37270450592041,0.20595651865005493,5.009999999999938
-2.5217533111572266,2.6222381591796875,1.7019206285476685,5.019999999999937
-2.2626843452453613,2.941354751586914,1.4914599657058716,5.029999999999937
-1.9385299682617188,3.1124467849731445,-0.36533883213996887,5.039999999999937
-1.7117221355438232,3.21712589263916,-2.2294251918792725,5.049999999999937
-1.8287785053253174,3.427713394165039,-3.1840195655822754,5.0599999999999365
-2.175143241882324,3.8850908279418945,-3.2495968341827393,5.069999999999936
-2.7250638008117676,4.488299369812012,-2.8775634765625,5.079999999999936
-3.2276721000671387,4.985841751098633,-2.5743601322174072,5.089999999999936
-3.6616225242614746,5.246155738830566,-2.4361824989318848,5.099999999999936
-3.8158133029937744,5.240804672241211,-2.321430206298828,5.1099999999999355
-3.8018078804016113,4.951081275939941,-2.0231449604034424,5.119999999999935
-3.8147425651550293,4.604640960693359,-1.653238296508789,5.129999999999935
-3.9064440727233887,4.306921005249023,-1.2042369842529297,5.139999999999935
-4.0646443367004395,4.124981880187988,-0.8051767349243164,5.149999999999935
-4.320515155792236,4.046892166137695,-0.498669296503067,5.159999999999934
-4.504734039306641,4.04638671875,-0.1811007261276245,5.169999999999934
-4.596337795257568,3.9656877517700195,0.10596716403961182,5.179999999999934
-4.586316108703613,3.840822219848633,0.45830607414245605,5.189999999999934
-4.3745269775390625,3.5785560607910156,0.8171768188476562,5.199999999999934
-4.118686676025391,3.2148361206054688,1.0428961515426636,5.209999999999933
-3.748387336730957,2.6420631408691406,1.0819425582885742,5.219999999999933
-3.2698254585266113,1.9153680801391602,0.9305837154388428,5.229999999999933
-2.8135499954223633,1.0802783966064453,0.6107872724533081,5.239999999999933
-2.184600830078125,0.15120792388916016,0.23249590396881104,5.2499999999999325
-1.523319959640503,-0.7665824890136719,-0.11852526664733887,5.259999999999932
-0.8556031584739685,-1.5751657485961914,-0.33004724979400635,5.269999999999932
-0.20926466584205627,-2.4086904525756836,-0.5004856586456299,5.279999999999932
0.31135791540145874,-3.140514373779297,-0.5726562738418579,5.289999999999932
0.6658113598823547,-3.754119396209717,-0.5969631671905518,5.299999999999931
0.935674786567688,-4.240176200866699,-0.642845869064331,5.309999999999931
1.1877686977386475,-4.560647487640381,-0.7485218048095703,5.319999999999931
1.2633482217788696,-4.684645175933838,-0.8804526329040527,5.329999999999931
1.3003811836242676,-4.636294841766357,-0.9908239841461182,5.339999999999931
1.2788443565368652,-4.513836860656738,-1.0651249885559082,5.34999999999993
1.2769678831100464,-4.319761753082275,-1.052983283996582,5.35999999999993
1.1787904500961304,-3.9752860069274902,-0.9037715196609497,5.36999999999993
1.01004958152771,-3.6958212852478027,-0.8062722682952881,5.37999999999993
0.7703302502632141,-3.474092960357666,-0.7101937532424927,5.3899999999999295
0.5188267230987549,-3.2669105529785156,-0.6181005239486694,5.399999999999929
0.1401466727256775,-3.1005353927612305,-0.4964247941970825,5.409999999999929
-0.12893950939178467,-3.0346932411193848,-0.46954822540283203,5.419999999999929
-0.4104011654853821,-3.090827465057373,-0.5109374523162842,5.429999999999929
-0.6753374338150024,-3.225747585296631,-0.6349718570709229,5.4399999999999284
-0.8876543641090393,-3.3485283851623535,-0.8415446281433105,5.449999999999928
-1.0878608226776123,-3.5022616386413574,-1.0540224313735962,5.459999999999928
-1.2133598327636719,-3.734809398651123,-1.2268800735473633,5.469999999999928
-1.22759211063385,-3.9433951377868652,-1.388685941696167,5.479999999999928
-1.1801509857177734,-4.22145938873291,-1.4674991369247437,5.489999999999927
-1.0224617719650269,-4.492656230926514,-1.4820115566253662,5.499999999999927
-0.6626664400100708,-4.8124680519104,-1.1537261009216309,5.509999999999927
-0.22933006286621094,-5.214699745178223,-0.8312121629714966,5.519999999999927
0.007503509521484375,-5.453030586242676,-0.7703180313110352,5.5299999999999265
0.3834937810897827,-5.730964183807373,-0.7962943315505981,5.539999999999926
0.6236504912376404,-5.854838848114014,-0.6506631374359131,5.549999999999926
0.6727855205535889,-5.889345645904541,-0.5752167701721191,5.559999999999926
0.7244147062301636,-5.817709922790527,-0.5606253147125244,5.569999999999926
0.7444906234741211,-5.6637864112854,-0.5330665111541748,5.5799999999999255
0.684292733669281,-5.446645259857178,-0.42335939407348633,5.589999999999925
0.39442920684814453,-5.139871597290039,-0.25809454917907715,5.599999999999925
0.17782413959503174,-4.750546455383301,-0.07352495193481445,5.609999999999925
0.05512058734893799,-4.424403667449951,0.08915853500366211,5.619999999999925
0.04465597867965698,-4.139625549316406,0.2246415615081787,5.629999999999924
0.01154559850692749,-3.814790725708008,0.4524667263031006,5.639999999999924
-0.06881463527679443,-3.4379396438598633,0.6815969944000244,5.649999999999924
-0.03448766469955444,-3.087956428527832,0.8998770713806152,5.659999999999924
0.0014612674713134766,-2.790998935699463,0.9850115776062012,5.6699999999999235
0.11768275499343872,-2.5276894569396973,0.8551785945892334,5.679999999999923
0.32819119095802307,-2.304899215698242,0.5359659194946289,5.689999999999923
0.6233359575271606,-2.0745105743408203,0.15095949172973633,5.699999999999923
0.9054190516471863,-1.7503252029418945,-0.11150860786437988,5.709999999999923
1.2444833517074585,-1.3372268676757812,-0.2016279697418213,5.7199999999999225
1.5910145044326782,-0.8450040817260742,-0.10505270957946777,5.729999999999922
1.8714649677276611,-0.2810325622558594,-0.017839431762695312,5.739999999999922
1.9930890798568726,0.30921173095703125,-0.04066061973571777,5.749999999999922
1.9350218772888184,0.8780117034912109,-0.1476573944091797,5.759999999999922
1.7621150016784668,1.585733413696289,-0.15511679649353027,5.769999999999921
1.4906758069992065,2.27675724029541,0.14028549194335938,5.779999999999921
1.174715518951416,3.0010738372802734,0.6627309322357178,5.789999999999921
0.7700325846672058,3.545496940612793,1.2507474422454834,5.799999999999921
0.349925696849823,3.9411754608154297,1.7471678256988525,5.809999999999921
-0.06191515922546387,4.248117446899414,2.1974167823791504,5.81999999999992
-0.37942588329315186,4.4855499267578125,2.89572811126709,5.82999999999992
-0.6458561420440674,4.715643882751465,3.7130398750305176,5.83999999999992
-0.8470242023468018,4.873743057250977,4.341189384460449,5.84999999999992
-0.9086885452270508,4.878488540649414,4.900546550750732,5.8599999999999195
-0.9595873355865479,4.720477104187012,5.274109840393066,5.869999999999919
-1.0925776958465576,4.386034965515137,5.264434814453125,5.879999999999919
-1.4438313245773315,4.108365058898926,4.67961311340332,5.889999999999919
-2.041840076446533,4.156540870666504,3.735969066619873,5.899999999999919
-2.76939058303833,4.591178894042969,2.597527503967285,5.909999999999918
-3.5147829055786133,5.428818702697754,1.8334386348724365,5.919999999999918
-4.151601791381836,6.964837074279785,1.3002257347106934,5.929999999999918
-4.430095672607422,9.232922554016113,1.0332179069519043,5.939999999999918
-3.9167563915252686,11.92893123626709,0.48765015602111816,5.949999999999918
-2.621161460876465,14.37290096282959,-0.28160953521728516,5.959999999999917
-1.5022664070129395,16.036361694335938,-1.277829885482788,5.969999999999917
-1.101800560951233,16.07931900024414,-2.648064136505127,5.979999999999917
-1.8541638851165771,14.269413948059082,-3.667646884918213,5.989999999999917
-3.919999122619629,10.409643173217773,-4.127593517303467,5.9999999999999165
-6.471691608428955,5.597536087036133,-4.081201076507568,6.009999999999916
-7.459986686706543,0.9550571441650391,-3.7772583961486816,6.019999999999916
-5.811851978302002,-2.7214126586914062,-3.1313719749450684,6.029999999999916
-4.098109722137451,-5.220273017883301,-2.371143341064453,6.039999999999916
-3.0619335174560547,-6.7959184646606445,-2.2342748641967773,6.0499999999999154
-2.365064859390259,-7.630428791046143,-2.5928285121917725,6.059999999999915
-1.773878812789917,-8.009015083312988,-2.667264938354492,6.069999999999915
-1.2051639556884766,-8.130905151367188,-2.383085250854492,6.079999999999915
-0.6764357686042786,-7.929798126220703,-2.07183837890625,6.089999999999915
-0.11386960744857788,-7.394578456878662,-1.9161036014556885,6.099999999999914
0.5670626759529114,-6.485325813293457,-1.912368893623352,6.109999999999914
1.3060271739959717,-5.178706169128418,-2.026951313018799,6.119999999999914
1.8346757888793945,-3.6234030723571777,-2.107212781906128,6.129999999999914
2.111199140548706,-1.9509592056274414,-2.101694107055664,6.1399999999999135
2.284886360168457,-0.3596467971801758,-2.2102737426757812,6.149999999999913
2.5819790363311768,1.0839080810546875,-2.2474639415740967,6.159999999999913
2.829291820526123,2.331979751586914,-2.1153712272644043,6.169999999999913
3.1165103912353516,3.37255859375,-1.8802340030670166,6.179999999999913
3.286223888397217,3.9544830322265625,-1.667396068572998,6.1899999999999125
2.897758722305298,4.16175651550293,-1.635333776473999,6.199999999999912
2.0452516078948975,3.7510881423950195,-1.7976183891296387,6.209999999999912
1.037541151046753,2.8288888931274414,-2.0638010501861572,6.219999999999912
-0.0982840359210968,1.7669057846069336,-2.272526741027832,6.229999999999912
-1.1197153329849243,0.7641773223876953,-2.2267608642578125,6.239999999999911
-1.9349745512008667,0.01932811737060547,-1.9946694374084473,6.249999999999911
-2.2990667819976807,-0.5922040939331055,-1.6415717601776123,6.259999999999911
-2.339545488357544,-1.0801610946655273,-1.2969448566436768,6.269999999999911
-2.0542244911193848,-1.4566879272460938,-1.0231537818908691,6.2799999999999105
-1.7682645320892334,-1.7291860580444336,-0.8056673407554626,6.28999999999991
-1.4520885944366455,-1.9792251586914062,-0.5914262533187866,6.29999999999991
-1.197722315788269,-2.1878862380981445,-0.43472087383270264,6.30999999999991
-0.9509915709495544,-2.5036115646362305,-0.41617631912231445,6.31999999999991
-0.8705999851226807,-2.7398242950439453,-0.511448323726654,6.3299999999999095
-0.79723060131073,-3.0448970794677734,-0.7082984447479248,6.339999999999909
-0.9552749991416931,-3.0672197341918945,-0.8774657249450684,6.349999999999909
-1.1510517597198486,-3.0629467964172363,-0.92331862449646,6.359999999999909
-1.1506154537200928,-3.05118465423584,-0.9751850962638855,6.369999999999909
-0.992782711982727,-2.909881114959717,-1.0503591299057007,6.379999999999908
-0.7450718283653259,-2.8423376083374023,-1.1423050165176392,6.389999999999908
-0.6138633489608765,-2.640399932861328,-1.2224901914596558,6.399999999999908
-0.6456279754638672,-2.435750961303711,-1.106757402420044,6.409999999999908
-0.31176263093948364,-2.304899215698242,-1.0251268148422241,6.419999999999908
0.15364903211593628,-2.2453269958496094,-0.9971481561660767,6.429999999999907
0.4448469877243042,-2.046527862548828,-0.8961927890777588,6.439999999999907
0.44231927394866943,-1.8450160026550293,-0.6526061296463013,6.449999999999907
0.5031288862228394,-1.6599369049072266,-0.4217924475669861,6.459999999999907
0.5802292823791504,-1.5557975769042969,-0.25655999779701233,6.4699999999999065
0.511435866355896,-1.388998031616211,-0.21924299001693726,6.479999999999906
0.24390937387943268,-1.2217817306518555,-0.11130267381668091,6.489999999999906
-0.005000412464141846,-1.1426324844360352,0.07201772928237915,6.499999999999906
-0.127804696559906,-1.2231779098510742,0.297280877828598,6.509999999999906
-0.27080294489860535,-1.2791290283203125,0.45730435848236084,6.519999999999905
-0.36722123622894287,-1.3822622299194336,0.5335360765457153,6.529999999999905
-0.35730451345443726,-1.503819465637207,0.5051752328872681,6.539999999999905
-0.3251228332519531,-1.6031255722045898,0.3345625102519989,6.549999999999905
-0.1969243884086609,-1.6801958084106445,0.1103835478425026,6.559999999999905
-0.09775298833847046,-1.6920280456542969,-0.06242712587118149,6.569999999999904
0.026672303676605225,-1.660264015197754,-0.17510481178760529,6.579999999999904
0.23554426431655884,-1.532419204711914,-0.2073017656803131,6.589999999999904
0.5191624164581299,-1.339756965637207,-0.12211541831493378,6.599999999999904
0.8464722037315369,-1.1398143768310547,0.05520249903202057,6.6099999999999035
1.1986274719238281,-0.9852771759033203,0.2877870798110962,6.619999999999903
1.3630421161651611,-0.8307247161865234,0.5201007723808289,6.629999999999903
1.4334949254989624,-0.6762094497680664,0.7448036670684814,6.639999999999903
1.44384765625,-0.5026350021362305,0.9668853282928467,6.649999999999903
1.3752639293670654,-0.32438182830810547,1.0983083248138428,6.659999999999902
1.1989994049072266,-0.2419118881225586,1.2666305303573608,6.669999999999902
1.04386305809021,0.007860183715820312,1.3527452945709229,6.679999999999902
0.9546138644218445,0.3242034912109375,1.2972147464752197,6.689999999999902
0.9161164164543152,0.7356195449829102,1.2128615379333496,6.699999999999902
0.8797459602355957,1.2012310028076172,1.2172572612762451,6.709999999999901
0.9360783100128174,1.6276512145996094,1.3631150722503662,6.719999999999901
1.1740455627441406,1.8643360137939453,1.6073743104934692,6.729999999999901
1.4794921875,2.009638786315918,1.9306491613388062,6.739999999999901
1.78383469581604,2.0900678634643555,2.1964306831359863,6.7499999999999005
1.9703688621520996,2.1248865127563477,2.3425934314727783,6.7599999999999
2.1950976848602295,2.130946159362793,2.182786464691162,6.7699999999999
2.407834053039551,2.0843849182128906,1.676809549331665,6.7799999999999
2.644150733947754,2.0426025390625,0.8942761421203613,6.7899999999999
2.903438091278076,2.0007009506225586,0.13400301337242126,6.7999999999998995
3.225607395172119,1.996826171875,-0.4342956840991974,6.809999999999899
3.650759696960449,2.0237045288085938,-0.5998890995979309,6.819999999999899
4.154478073120117,2.0980310440063477,-0.32619643211364746,6.829999999999899
4.4204559326171875,2.334477424621582,0.062296062707901,6.839999999999899
4.4957475662231445,2.6490211486816406,0.21500065922737122,6.849999999999898
4.336416244506836,2.967264175415039,-0.027545958757400513,6.859999999999898
4.0635786056518555,3.3774776458740234,-0.42345622181892395,6.869999999999898
3.5470995903015137,3.9988889694213867,-0.7603651285171509,6.879999999999898
2.8840889930725098,4.905121803283691,-1.0635490417480469,6.8899999999998975
2.232295513153076,5.705987930297852,-1.3875277042388916,6.899999999999897
1.6665332317352295,6.188899040222168,-1.8011165857315063,6.909999999999897
1.1186212301254272,6.079488754272461,-2.183652400970459,6.919999999999897
0.7547290921211243,5.424159049987793,-2.588625431060791,6.929999999999897
-0.15954279899597168,5.0486040115356445,-2.834646701812744,6.9399999999998965
-1.1000326871871948,4.330877304077148,-2.917644739151001,6.949999999999896
-1.5961518287658691,3.3626317977905273,-2.690499782562256,6.959999999999896
-1.9475698471069336,2.496088981628418,-2.096284866333008,6.969999999999896
-2.3418054580688477,1.8247184753417969,-1.3545918464660645,6.979999999999896
-2.696566581726074,1.5852460861206055,-0.6197320818901062,6.989999999999895
-3.1432528495788574,1.645761489868164,0.35745543241500854,6.999999999999895
-3.598419189453125,1.8433160781860352,0.7869240641593933,7.009999999999895
-3.8133645057678223,2.029512405395508,0.2909003496170044,7.019999999999895
-3.876436233520508,2.1327104568481445,-0.5762976408004761,7.0299999999998946
-3.900035858154297,2.2822370529174805,-1.289795160293579,7.039999999999894
-4.037469387054443,2.6048412322998047,-1.4983245134353638,7.049999999999894
-4.219871997833252,3.0620498657226562,-1.3011269569396973,7.059999999999894
-4.418994903564453,3.44797420501709,-1.0065139532089233,7.069999999999894
-4.570321083068848,3.6501808166503906,-0.8509141206741333,7.0799999999998935
-4.544353485107422,3.570690155029297,-0.9276512265205383,7.089999999999893
-4.525243759155273,3.367494583129883,-1.1540844440460205,7.099999999999893
-4.391087055206299,3.0453872680664062,-1.3936474323272705,7.109999999999893
-4.218973159790039,2.805281639099121,-1.412653923034668,7.119999999999893
-3.978328227996826,2.7139663696289062,-1.1449843645095825,7.129999999999892
-3.6985723972320557,2.7473201751708984,-0.7351056337356567,7.139999999999892
-3.3946073055267334,2.7999982833862305,-0.3274073600769043,7.149999999999892
-3.0453922748565674,2.783583641052246,0.012589573860168457,7.159999999999892
-2.682279109954834,2.726984977722168,0.23603081703186035,7.169999999999892
-2.3052139282226562,2.5299692153930664,0.33013319969177246,7.179999999999891
-1.8875207901000977,2.2287216186523438,0.33490288257598877,7.189999999999891
-1.4550867080688477,1.8043508529663086,0.22371411323547363,7.199999999999891
-1.0238316059112549,1.2809953689575195,0.11603283882141113,7.209999999999891
-0.6003934741020203,0.7352962493896484,-0.004680275917053223,7.2199999999998905
-0.2680286765098572,0.30352115631103516,-0.178580641746521,7.22999999999989
-0.009190410375595093,-0.112518310546875,-0.4964648485183716,7.23999999999989
0.3712471127510071,-0.6348209381103516,-0.7718311548233032,7.24999999999989
0.7334215641021729,-1.2610301971435547,-0.7412171363830566,7.25999999999989
0.8222359418869019,-1.864424228668213,-0.7801650762557983,7.269999999999889
0.9857522249221802,-2.538426399230957,-0.8095967769622803,7.279999999999889
1.0138640403747559,-3.213764190673828,-0.6929447650909424,7.289999999999889
0.7986717224121094,-3.6609702110290527,-0.7506452798843384,7.299999999999889
0.5026463866233826,-3.9592556953430176,-0.9204387068748474,7.309999999999889
0.4057173728942871,-4.223642826080322,-0.9846059083938599,7.319999999999888
0.385342538356781,-4.348998546600342,-0.9910398721694946,7.329999999999888
0.05276679992675781,-4.378468036651611,-0.9565953016281128,7.339999999999888
-0.15264219045639038,-4.3264899253845215,-0.9624935388565063,7.349999999999888
-0.13561445474624634,-4.30321741104126,-0.8816993236541748,7.3599999999998875
0.03415912389755249,-4.251357555389404,-0.7998790740966797,7.369999999999887
0.13629764318466187,-4.32171106338501,-0.6519814729690552,7.379999999999887
-0.03796982765197754,-4.298980236053467,-0.6074562072753906,7.389999999999887
-0.3337077498435974,-4.21196985244751,-0.613434910774231,7.399999999999887
-0.5363352298736572,-4.182732105255127,-0.5524477958679199,7.4099999999998865
-0.6434641480445862,-4.153880596160889,-0.6683549880981445,7.419999999999886
-0.6167495250701904,-4.194783687591553,-0.829527735710144,7.429999999999886
-0.43176472187042236,-4.334123134613037,-1.0383906364440918,7.439999999999886
-0.284140408039093,-4.507331371307373,-1.1919689178466797,7.449999999999886
-0.14492285251617432,-4.6523284912109375,-1.2517850399017334,7.459999999999885
-0.2004833221435547,-4.730987071990967,-1.3636409044265747,7.469999999999885
-0.20649677515029907,-4.886955738067627,-1.3527454137802124,7.479999999999885
-0.09113931655883789,-5.0366010665893555,-1.2140817642211914,7.489999999999885
0.09323257207870483,-5.223087310791016,-1.0576378107070923,7.4999999999998845
0.17470741271972656,-5.372334003448486,-0.8809398412704468,7.509999999999884
0.3211439847946167,-5.551417350769043,-0.6576309204101562,7.519999999999884
0.3295574188232422,-5.667099952697754,-0.4905579090118408,7.529999999999884
0.3917235732078552,-5.7577433586120605,-0.35340046882629395,7.539999999999884
0.41454774141311646,-5.856778144836426,-0.30861759185791016,7.5499999999998835
0.39074623584747314,-5.8731489181518555,-0.31837034225463867,7.559999999999883
0.06595063209533691,-5.670536518096924,-0.1961662769317627,7.569999999999883
-0.19209885597229004,-5.414084434509277,-0.021128416061401367,7.579999999999883
-0.14455723762512207,-5.197057723999023,0.20900225639343262,7.589999999999883
-0.021581053733825684,-4.935666561126709,0.541926383972168,7.599999999999882
0.07373899221420288,-4.658568859100342,0.8051724433898926,7.609999999999882
0.09572744369506836,-4.2962727546691895,0.9338054656982422,7.619999999999882
0.21617728471755981,-3.8653621673583984,0.8363842964172363,7.629999999999882
0.2548874020576477,-3.3392624855041504,0.5958123207092285,7.6399999999998816
0.2878050208091736,-2.6484780311584473,0.36686229705810547,7.649999999999881
0.41029322147369385,-1.9199590682983398,0.33850574493408203,7.659999999999881
0.6343751549720764,-1.1659469604492188,0.5854151248931885,7.669999999999881
0.8524489998817444,-0.4559955596923828,0.8018043041229248,7.679999999999881
1.097886562347412,0.16691303253173828,0.8729496002197266,7.6899999999998805
1.3680408000946045,0.7292661666870117,0.8633384704589844,7.69999999999988
1.5477697849273682,1.2121849060058594,0.7844099998474121,7.70999999999988
1.5601983070373535,1.594512939453125,0.6735477447509766,7.71999999999988
1.5083762407302856,1.9198122024536133,0.5985133647918701,7.72999999999988
1.2924277782440186,2.293863296508789,0.6718661785125732,7.739999999999879
0.8213088512420654,2.793682098388672,0.9437980651855469,7.749999999999879
0.07172098755836487,3.3979787826538086,1.3746109008789062,7.759999999999879
-0.6356163024902344,4.018213272094727,2.0002317428588867,7.769999999999879
-1.170492172241211,4.589581489562988,2.6733944416046143,7.779999999999879
-1.2931196689605713,5.066126823425293,3.444178819656372,7.789999999999878
-0.9823426008224487,5.329985618591309,4.174215793609619,7.799999999999878
-0.8536261320114136,5.634130477905273,4.727420330047607,7.809999999999878
-0.7571163177490234,5.705443382263184,5.081618309020996,7.819999999999878
-0.70395827293396,5.453351020812988,5.193820953369141,7.8299999999998775
-0.5530086159706116,4.696867942810059,5.153908729553223,7.839999999999877
-0.5703423023223877,3.6020421981811523,5.3168840408325195,7.849999999999877
-0.6962123513221741,2.607889175415039,4.842052459716797,7.859999999999877
-1.1932001113891602,2.158170700073242,3.6555094718933105,7.869999999999877
-2.1161179542541504,2.5665931701660156,2.390629768371582,7.879999999999876
-3.2389912605285645,3.733853340148926,1.5059940814971924,7.889999999999876
-4.080235004425049,5.765364646911621,0.9298844337463379,7.899999999999876
-4.005385398864746,8.4263334274292,0.5937244892120361,7.909999999999876
-2.6952075958251953,11.259513854980469,0.0675957202911377,7.919999999999876
-1.2096196413040161,13.583051681518555,-1.1419661045074463,7.929999999999875
-0.33537590503692627,14.84291934967041,-2.6153459548950195,7.939999999999875
0.05618858337402344,14.68762493133545,-3.5677719116210938,7.949999999999875
-1.0948717594146729,13.145659446716309,-3.6923720836639404,7.959999999999875
-3.883281707763672,9.879304885864258,-3.7125329971313477,7.9699999999998745
-7.04216194152832,5.776378631591797,-3.7674858570098877,7.979999999999874
-8.65552806854248,1.6340761184692383,-3.52620530128479,7.989999999999874
-6.596341133117676,-2.047748565673828,-2.770333766937256,7.999999999999874
