AccX,AccY,AccZ,stepCount
-5.5468244552612305,7.4127044677734375,-9.042264938354492,0.8414864540100098
-5.612546920776367,4.019402503967285,-6.645586013793945,-0.9412326812744141
-4.682554721832275,1.228276252746582,-3.366060256958008,-1.272215485572815
-3.5608296394348145,-1.065704345703125,-0.5846078395843506,-1.406628131866455
-2.0839293003082275,-3.3897085189819336,0.47462964057922363,0
-0.49209535121917725,-5.274958610534668,-0.07401204109191895,0
0.9662814140319824,-6.702326774597168,-1.440826177597046,0
1.504791021347046,-7.064325332641602,-2.770811080932617,0
0.7209789752960205,-6.672473907470703,-3.3791704177856445,0
0.7324643135070801,-6.697408199310303,-3.3257803916931152,0
1.124362826347351,-6.8669915199279785,-3.2585301399230957,0
1.5093928575515747,-6.978994369506836,-3.2363672256469727,0
1.502230167388916,-7.046518802642822,-3.1746814250946045,0
1.386841058731079,-7.034751892089844,-3.3045904636383057,0
1.0127631425857544,-6.846486568450928,-3.7495803833007812,0
0.7580142021179199,-6.401332855224609,-4.154961585998535,0
0.5724745988845825,-5.956051826477051,-4.616387844085693,0
0.36719226837158203,-5.66413688659668,-4.889387130737305,0
0.06030416488647461,-5.312264442443848,-5.194507598876953,0
-0.34579217433929443,-4.856706142425537,-5.364302635192871,0
-0.6730518341064453,-4.1842360496521,-5.470005512237549,0
-0.9268726110458374,-3.2891736030578613,-5.218782424926758,0
-1.2472057342529297,-1.9241905212402344,-4.971707344055176,0
-2.15592098236084,-0.13381576538085938,-4.76627254486084,0
-3.354198455810547,1.8483943939208984,-4.036995887756348,0
-3.9602227210998535,3.064138412475586,-2.93369722366333,0
-3.73982834815979,3.8878307342529297,-2.374527931213379,0
-3.341003894805908,4.071419715881348,-2.2257208824157715,0
-2.685716152191162,3.7899351119995117,-2.0168848037719727,0
-1.5010216236114502,2.414423942565918,-1.236193060874939,0
-0.9334373474121094,1.420827865600586,-0.36038124561309814,0
-0.8086494207382202,0.6598634719848633,0.30410975217819214,0
-0.7182199954986572,-0.0030078887939453125,0.19505339860916138,0
-0.5334672927856445,-0.7022151947021484,-0.21060863137245178,0
-0.25749945640563965,-1.2804384231567383,-0.6602333784103394,0
0.1589815616607666,-1.6787080764770508,-0.8201580047607422,0
0.5020418167114258,-2.041379928588867,-0.931674063205719,0
0.7349853515625,-2.381096839904785,-0.886417031288147,0
0.8631658554077148,-2.71012020111084,-0.9079678058624268,0
1.0826334953308105,-2.9089879989624023,-0.8546444177627563,0
1.2493619918823242,-3.0758371353149414,-0.7721628546714783,0
1.4804439544677734,-3.337425708770752,-0.6944634914398193,0
1.63484787940979,-3.21073055267334,-0.33702489733695984,0
1.5202970504760742,-3.291317939758301,-0.17631995677947998,0
1.4088325500488281,-3.4160971641540527,0.08921042084693909,0
1.3330700397491455,-3.4628424644470215,0.3472976088523865,0
1.3087611198425293,-3.3740158081054688,0.5957275032997131,0
1.3106563091278076,-3.3431081771850586,0.8658850193023682,0
1.3637893199920654,-3.1593070030212402,1.0930956602096558,0
1.4743082523345947,-3.04252290725708,1.2295727729797363,0
1.522141933441162,-2.765406608581543,1.4118671417236328,0
1.5694117546081543,-2.447676658630371,1.51095712184906,0
1.6258490085601807,-2.1444091796875,1.4889130592346191,0
1.5748331546783447,-1.9656829833984375,1.3175218105316162,0
1.5296809673309326,-1.9975781440734863,1.1383898258209229,0
1.5221221446990967,-1.9817008972167969,1.1315467357635498,0
1.5167367458343506,-2.0711960792541504,1.1775224208831787,0
1.4993855953216553,-2.215719223022461,1.213956594467163,0
1.5057175159454346,-2.357738494873047,1.182807445526123,0
1.48750638961792,-2.210261344909668,1.2242858409881592,0
1.5445847511291504,-2.098738193511963,1.3060657978057861,0
1.674187421798706,-1.965747356414795,1.4748005867004395,0
1.9093050956726074,-1.818511962890625,1.5737203359603882,0
2.2115423679351807,-1.6834897994995117,1.6303315162658691,0
2.346409320831299,-1.5105242729187012,1.7542715072631836,0
2.4022903442382812,-1.2876710891723633,1.787937879562378,0
2.4679815769195557,-1.058049201965332,1.863815426826477,0
2.4598047733306885,-0.7451276779174805,1.9298839569091797,0
2.384816884994507,-0.2652435302734375,1.8170592784881592,0
2.353179454803467,0.2666330337524414,1.6671136617660522,0
2.2666754722595215,0.77874755859375,1.4874706268310547,0
2.1297566890716553,1.3668174743652344,1.3401559591293335,0
1.937052607536316,1.9399652481079102,1.2486703395843506,0
1.680908203125,2.3619918823242188,1.298870325088501,0
1.476052165031433,2.702366828918457,1.2604764699935913,0
1.314995527267456,2.9204845428466797,1.0707205533981323,0
1.2144473791122437,2.98055362701416,0.9158651828765869,0
1.2437570095062256,2.8492813110351562,0.8486894369125366,0
1.1632341146469116,2.7661752700805664,1.0899615287780762,0
1.231215000152588,2.5185136795043945,1.5378024578094482,0
1.5220242738723755,2.159176826477051,2.0091471672058105,0
1.9330763816833496,1.9441003799438477,2.3394198417663574,0
2.3736913204193115,1.8156623840332031,2.655630111694336,0
2.69804310798645,1.991292953491211,3.0316925048828125,0
2.8724350929260254,2.2698135375976562,3.331193208694458,0
2.9828295707702637,2.6415576934814453,3.4919164180755615,0
2.931164264678955,2.972454071044922,3.434558868408203,0
2.6244494915008545,3.09989070892334,3.3286612033843994,0
2.1969046592712402,3.0192909240722656,3.1236886978149414,0
1.8425980806350708,2.7237234115600586,2.886888265609741,0
1.6484460830688477,2.3018245697021484,2.5948328971862793,0
1.5121744871139526,1.8062686920166016,2.209639072418213,0
1.2950084209442139,1.4547061920166016,1.4537904262542725,0
1.4057425260543823,1.1751155853271484,0.39121437072753906,0
1.7124015092849731,1.0294990539550781,-0.3686845302581787,0
1.9487261772155762,0.9197559356689453,-0.8453904390335083,0
2.2340309619903564,0.8099813461303711,-1.369606614112854,0
2.165313243865967,1.0063800811767578,-1.8963582515716553,0
2.088778018951416,1.157155990600586,-2.464602470397949,0
2.2102739810943604,1.192915916442871,-3.218505382537842,0
2.0959300994873047,1.4318733215332031,-3.8455352783203125,0
2.2095799446105957,1.3788480758666992,-4.229268550872803,0
2.2084412574768066,1.4742517471313477,-4.588288307189941,0
2.079561233520508,1.7013988494873047,-4.746185779571533,0
2.035125255584717,1.6012754440307617,-4.825404167175293,0
1.8937253952026367,1.3010139465332031,-4.889232158660889,0
1.6043349504470825,1.28131103515625,-5.060883522033691,0
0.9637855291366577,1.4986772537231445,-4.90162992477417,0
-0.0021744966506958008,1.7234716415405273,-4.616751670837402,0
-1.286076307296753,1.9297599792480469,-4.674402236938477,0
-2.3428592681884766,2.352142333984375,-5.034796714782715,0
-3.124948501586914,2.8062705993652344,-5.0663933753967285,0
-3.5632848739624023,3.3064918518066406,-4.640730381011963,0
-3.7557015419006348,3.6781349182128906,-4.045276165008545,0
-3.5793116092681885,4.014396667480469,-3.3475770950317383,0
-3.2296948432922363,4.4179887771606445,-2.6434075832366943,0
-2.701768159866333,4.690306663513184,-2.1813929080963135,0
-2.172097682952881,4.783595085144043,-2.0281918048858643,0
-1.491728663444519,4.963346481323242,-1.761612057685852,0
-0.9045770168304443,4.968758583068848,-1.4380701780319214,0
-0.45803606510162354,4.842974662780762,-1.251060128211975,0
-0.33367300033569336,4.674609184265137,-1.3561725616455078,0
-0.5098140239715576,4.303539276123047,-1.4300696849822998,0
-0.4839271306991577,4.0384063720703125,-1.3265490531921387,0
-0.8716328144073486,3.525324821472168,-1.0211684703826904,0
-1.1088093519210815,2.9511823654174805,-0.5923514366149902,0
-1.2150580883026123,2.495354652404785,-0.21433591842651367,0
-1.3052552938461304,1.8945531845092773,0.019961118698120117,0
-1.3863459825515747,1.048415184020996,0.04830777645111084,0
-1.551483392715454,0.029023170471191406,-0.05844271183013916,0
-1.3557738065719604,-0.21166706085205078,-0.0213392972946167,0
-1.247114658355713,-0.6357202529907227,-0.13505017757415771,0
-1.2855015993118286,-0.6640872955322266,-0.49555230140686035,0
-1.3918869495391846,-0.7060708999633789,-1.1004071235656738,0
-1.587336540222168,-0.6613330841064453,-1.638347864151001,0
-1.364539384841919,-0.4631233215332031,-2.073430299758911,0
-1.0411945581436157,-0.7887163162231445,-2.168147087097168,0
-0.8561902046203613,-1.5870323181152344,-1.9982908964157104,0
-1.9653593301773071,-3.297253131866455,-2.185784339904785,0
-1.780261754989624,-4.21183443069458,-2.044842481613159,0
-0.5113260746002197,-3.9851317405700684,-1.778184175491333,0
0.37589097023010254,-4.200140476226807,-1.271396279335022,0
0.8992350101470947,-4.737666130065918,-1.0029383897781372,0
1.2555739879608154,-5.026710033416748,-0.4344487190246582,0
1.0411655902862549,-5.015034198760986,-0.2172536849975586,0
0.7472355365753174,-5.039846420288086,-0.23331999778747559,0
0.13617801666259766,-4.849320888519287,-0.26669788360595703,0
-0.4586164951324463,-4.64622688293457,-0.24918580055236816,0
-0.9289978742599487,-4.678564071655273,-0.11005830764770508,0
-1.3315558433532715,-4.3022003173828125,-0.01077127456665039,0
-1.875620722770691,-4.055088520050049,-0.04322552680969238,0
-2.133448839187622,-3.9512648582458496,-0.004305601119995117,0
-2.4015791416168213,-3.8590826988220215,-0.018705129623413086,0
-2.49014949798584,-3.845520496368408,-0.09669756889343262,0
-2.5182435512542725,-3.9989242553710938,-0.2581000328063965,0
-2.4425437450408936,-4.259252071380615,-0.41248202323913574,0
-2.3346147537231445,-4.468576908111572,-0.5696280002593994,0
-2.194384813308716,-4.52426290512085,-0.6646637916564941,0
-1.9494426250457764,-4.649163722991943,-0.6518014669418335,0
-1.7188713550567627,-4.881776809692383,-0.5855005979537964,0
-1.948262095451355,-4.717563152313232,-0.46950364112854004,0
-2.1547889709472656,-4.331817626953125,-0.24981164932250977,0
-2.2333056926727295,-4.1172003746032715,-0.08589816093444824,0
-2.233945369720459,-3.9923806190490723,0.022768020629882812,0
-2.2357795238494873,-3.9524765014648438,0.16485381126403809,0
-2.2891266345977783,-3.9041056632995605,0.36907172203063965,0
-2.257298231124878,-3.780393123626709,0.592371940612793,0
-2.1063315868377686,-3.600597858428955,0.7412705421447754,0
-2.1092042922973633,-3.7901721000671387,0.9085886478424072,0
-1.99587082862854,-3.7268033027648926,1.0486881732940674,0
-1.814467191696167,-3.604294776916504,0.9961869716644287,0
-1.6344985961914062,-3.4751229286193848,0.9372835159301758,0
-1.6023471355438232,-3.2720284461975098,0.7876331806182861,0
-1.397608757019043,-2.9708662033081055,0.5630502700805664,0
-1.1902976036071777,-2.6646947860717773,0.33176279067993164,0
-1.1118392944335938,-2.2192840576171875,0.0803215503692627,0
-1.1547958850860596,-1.6679410934448242,-0.20007789134979248,0
-1.2476413249969482,-0.9961977005004883,-0.3501768112182617,0
-1.4219028949737549,-0.34256744384765625,-0.5530372858047485,0
-1.5390503406524658,0.3532066345214844,-1.1812946796417236,0
-1.6280665397644043,1.0915460586547852,-1.892317295074463,0
-1.672451376914978,2.016132354736328,-2.1277055740356445,0
-1.725048303604126,3.038219451904297,-1.3855676651000977,0
-1.7427773475646973,4.240995407104492,0.3132481575012207,0
-1.577233910560608,5.525517463684082,2.549928665161133,0
-1.1110937595367432,6.821372985839844,4.916831970214844,0
-0.48112237453460693,8.19931411743164,7.071705341339111,0
0.6579372882843018,9.139299392700195,8.714755058288574,0
1.5485572814941406,10.217507362365723,9.592352867126465,0
2.2374517917633057,10.821418762207031,9.530817985534668,0
3.015669584274292,10.418577194213867,8.58402156829834,0
3.8011655807495117,8.503565788269043,7.347817897796631,0
4.104274272918701,5.230962753295898,6.2032880783081055,0
4.4632110595703125,1.261439323425293,5.448292255401611,0
4.685143947601318,-2.2500457763671875,4.780647277832031,0
4.8219313621521,-5.187394142150879,4.370445251464844,0
4.5606513023376465,-6.706901550292969,3.1588361263275146,0
2.9892947673797607,-7.631009578704834,0.7104288339614868,0
2.136152505874634,-8.215008735656738,-0.6052224636077881,0
1.2965419292449951,-8.15941047668457,-1.4764901399612427,0
0.5135159492492676,-7.6839189529418945,-2.592298984527588,0
-0.6368403434753418,-6.778090476989746,-3.792853832244873,0
-2.0939817428588867,-5.312177658081055,-4.495207786560059,0
-3.0381360054016113,-3.621580123901367,-4.926560401916504,0
-3.2983198165893555,-1.5615463256835938,-5.324578762054443,0
-3.0067248344421387,1.2062149047851562,-6.214593410491943,0
-2.1974856853485107,5.0388689041137695,-7.074736595153809,0
-1.0610346794128418,10.03447151184082,-7.302056312561035,0
0.18106818199157715,16.529041290283203,-7.030727386474609,0
1.2787322998046875,21.75748062133789,-6.029101848602295,0
1.9911630153656006,25.402420043945312,-5.931829452514648,0
1.261391282081604,27.34458351135254,-6.039327621459961,0
-0.33251917362213135,26.7663631439209,-6.32675838470459,0
-1.5995099544525146,23.481168746948242,-7.36652135848999,0
-3.398674964904785,16.334270477294922,-8.919241905212402,0
-4.68656063079834,10.4445219039917,-9.150421142578125,0
-4.982590675354004,6.307279586791992,-6.579869270324707,0
-4.348910331726074,3.0702123641967773,-3.1123456954956055,0
-3.471273899078369,0.24575138092041016,-0.18235468864440918,0
-2.358468770980835,-2.5377368927001953,0.9544916152954102,0
-1.2144622802734375,-5.2754740715026855,0.491565465927124,0
0.03194248676300049,-8.062714576721191,-0.7323366403579712,0
1.160786509513855,-10.344060897827148,-1.7492103576660156,0
1.5232902765274048,-11.538310050964355,-2.4140937328338623,0
-0.08117783069610596,-11.232207298278809,-2.655982732772827,0
-0.48194420337677,-11.025471687316895,-2.3224618434906006,0
0.2184385061264038,-10.857881546020508,-1.9563355445861816,0
0.8854973316192627,-10.242103576660156,-1.5069669485092163,0
1.2707574367523193,-9.611773490905762,-1.5381312370300293,0
1.1226904392242432,-8.724467277526855,-2.4345169067382812,0
1.0236072540283203,-8.009308815002441,-3.45129656791687,0
1.2852635383605957,-7.844266414642334,-4.27421760559082,0
1.704505205154419,-7.410874843597412,-4.747841835021973,0
1.9888349771499634,-6.541296005249023,-5.120501518249512,0
2.0617780685424805,-4.6270928382873535,-5.412550449371338,0
1.7291102409362793,-1.9641070365905762,-5.511767387390137,0
0.937665581703186,1.0157337188720703,-5.3011369705200195,0
-0.1592259407043457,3.1466407775878906,-4.541406631469727,0
-1.4402668476104736,4.952425003051758,-3.9361915588378906,0
-2.424304485321045,6.46800422668457,-3.2268261909484863,0
-3.352691411972046,7.170927047729492,-2.2954835891723633,0
-3.6963512897491455,7.258642196655273,-1.7635276317596436,0
-2.2795417308807373,5.382444381713867,-1.124428629875183,0
-1.149672031402588,3.17911434173584,-0.42928534746170044,0
-1.0978657007217407,1.5237836837768555,-0.06708818674087524,0
-1.4747332334518433,0.4659547805786133,0.03532302379608154,0
-1.6473063230514526,-0.5836772918701172,0.3277795612812042,0
-1.7765508890151978,-1.4248161315917969,0.5528870820999146,0
-1.7819950580596924,-2.0749197006225586,0.5367281436920166,0
-1.5255041122436523,-2.5682616233825684,0.4069189429283142,0
-1.105603575706482,-2.905686855316162,0.2386709451675415,0
-0.714319109916687,-3.0305862426757812,-0.06509315967559814,0
-0.18017363548278809,-3.087246894836426,-0.2831059396266937,0
0.17524123191833496,-3.193424701690674,-0.7484561204910278,0
0.5941126346588135,-3.2584338188171387,-0.89765864610672,0
0.8701465129852295,-3.2679219245910645,-0.6966609954833984,0
1.031341791152954,-3.1644020080566406,-0.36483365297317505,0
1.2801415920257568,-3.1534223556518555,-0.10260611772537231,0
1.5080533027648926,-3.229863166809082,0.058959055691957474,0
1.6590819358825684,-2.8888025283813477,0.36345374584198,0
1.5976502895355225,-2.7376270294189453,0.3625349998474121,0
1.5614030361175537,-2.4456787109375,0.5149731040000916,0
1.5873596668243408,-2.2160730361938477,0.8491071462631226,0
1.6892685890197754,-2.0701141357421875,1.2170641422271729,0
1.8095693588256836,-2.057875633239746,1.4112343788146973,0
1.6586740016937256,-2.20780086517334,1.274559497833252,0
1.4406938552856445,-2.4743242263793945,1.035902976989746,0
1.21211838722229,-2.9651694297790527,0.7104650139808655,0
0.8973267078399658,-3.1278648376464844,0.7093861103057861,0
0.5539493560791016,-3.01063871383667,0.8474452495574951,0
0.5169124603271484,-2.857771873474121,0.9797341227531433,0
0.47243475914001465,-2.544969081878662,1.0331535339355469,0
0.5923476219177246,-2.2421822547912598,1.133317470550537,0
0.8331935405731201,-1.9063825607299805,1.2721060514450073,0
1.0819742679595947,-1.5208349227905273,1.4488728046417236,0
1.3335225582122803,-1.212320327758789,1.5578696727752686,0
1.6141273975372314,-0.9449176788330078,1.6972315311431885,0
1.8832662105560303,-0.8597097396850586,1.8575371503829956,0
2.0548717975616455,-0.7962942123413086,1.9240224361419678,0
2.124417304992676,-0.7785987854003906,1.937617540359497,0
2.029866933822632,-0.658289909362793,1.9538686275482178,0
1.9561301469802856,-0.7177047729492188,2.0524301528930664,0
1.9013893604278564,-0.6864595413208008,2.1168553829193115,0
1.729113221168518,-0.5908651351928711,2.102144718170166,0
1.5845822095870972,-0.2587261199951172,2.027113437652588,0
1.601188063621521,0.22601604461669922,1.886554479598999,0
1.862956166267395,0.5067310333251953,1.8881053924560547,0
2.080063819885254,0.9015941619873047,1.8105366230010986,0
2.208719253540039,1.4726390838623047,1.6529591083526611,0
2.1332530975341797,2.140810012817383,1.6061084270477295,0
2.192840576171875,2.542548179626465,1.5761326551437378,0
2.0538744926452637,2.8791608810424805,1.586725115776062,0
1.928086519241333,3.1031341552734375,1.621490478515625,0
1.802430272102356,2.959095001220703,1.7631909847259521,0
1.580246090888977,2.493276596069336,1.9990202188491821,0
1.5995616912841797,1.6750507354736328,2.330479621887207,0
2.0604963302612305,0.5190715789794922,2.7517905235290527,0
2.6553587913513184,-0.3383798599243164,2.9882023334503174,0
3.178900718688965,-0.6896982192993164,3.4084866046905518,0
3.5112733840942383,-0.36570262908935547,3.644059419631958,0
3.69039249420166,0.30045413970947266,3.8742012977600098,0
3.581944704055786,1.2175254821777344,4.029173374176025,0
3.1353774070739746,2.000242233276367,3.8596463203430176,0
2.503986358642578,2.5243139266967773,3.5227627754211426,0
1.7699909210205078,2.7133378982543945,3.0992698669433594,0
0.9200494289398193,2.6465110778808594,2.7567214965820312,0
0.4002187252044678,2.2451791763305664,2.433659076690674,0
0.21344828605651855,1.6960716247558594,1.7376381158828735,0
0.1834275722503662,1.3242578506469727,0.8069061040878296,0
0.08056461811065674,1.1604194641113281,-0.23492753505706787,0
-0.09627854824066162,1.2809228897094727,-1.2424322366714478,0
-0.029589295387268066,1.4510726928710938,-2.115893602371216,0
0.26342880725860596,1.627732276916504,-2.6000216007232666,0
0.43762147426605225,2.0810909271240234,-3.104757308959961,0
0.5594929456710815,2.621800422668457,-3.82517671585083,0
0.5976245403289795,2.802713394165039,-4.2803192138671875,0
0.491735577583313,3.143159866333008,-4.712867736816406,0
0.4830714464187622,3.4634618759155273,-5.069759368896484,0
0.5276682376861572,3.8593740463256836,-5.239776611328125,0
0.6462994813919067,4.070366859436035,-5.462730407714844,0
0.9708150625228882,3.652003288269043,-5.47581672668457,0
0.8463501930236816,3.073833465576172,-5.437253952026367,0
0.4629185199737549,2.716428756713867,-5.540560722351074,0
-0.019940853118896484,2.541508674621582,-5.36485481262207,0
-0.7587209939956665,2.2334890365600586,-5.046355247497559,0
-1.5397452116012573,2.01041316986084,-4.7331390380859375,0
-2.2436394691467285,2.0923995971679688,-4.528818607330322,0
-2.506622076034546,2.1968860626220703,-4.423307418823242,0
-2.44863224029541,2.400313377380371,-4.223154067993164,0
-2.1027743816375732,2.5373897552490234,-3.867094039916992,0
-1.810831069946289,2.8615503311157227,-3.494934320449829,0
-1.6757327318191528,3.731318473815918,-3.238939046859741,0
-1.506251335144043,4.070182800292969,-2.8376400470733643,0
-1.1151041984558105,4.191943168640137,-2.2195940017700195,0
-0.6830191612243652,4.416963577270508,-1.6341965198516846,0
-0.6135883331298828,4.730555534362793,-1.2818547487258911,0
-0.9335111379623413,4.95100212097168,-0.973681628704071,0
-1.2435845136642456,5.006778717041016,-0.5976576805114746,0
-1.4795856475830078,5.0439863204956055,-0.23061376810073853,0
-1.751744031906128,4.603546142578125,0.14910870790481567,0
-1.9025225639343262,3.9969091415405273,0.5347357988357544,0
-1.9180197715759277,3.0735912322998047,0.9821643829345703,0
-1.6764458417892456,2.656418800354004,1.2215263843536377,0
-1.4817140102386475,1.6687030792236328,1.0230205059051514,0
-1.21953547000885,0.8836708068847656,0.6873703002929688,0
-0.5553296804428101,0.6717844009399414,0.3118668794631958,0
0.03955245018005371,0.2695913314819336,-0.2667352557182312,0
0.3028907775878906,0.1943035125732422,-0.8070101737976074,0
0.8898336887359619,-0.2054615020751953,-1.1506121158599854,0
0.9402656555175781,-0.6640777587890625,-1.585344672203064,0
0.8470287322998047,-1.2722320556640625,-1.941936731338501,0
0.6778695583343506,-1.5922346115112305,-2.3332324028015137,0
0.7307603359222412,-2.1389780044555664,-2.521897792816162,0
0.8703110218048096,-2.757437229156494,-2.3771250247955322,0
0.9559049606323242,-3.486438751220703,-1.999830961227417,0
1.1649401187896729,-4.221155166625977,-1.869365930557251,0
1.4829950332641602,-4.9331817626953125,-1.9010039567947388,0
1.577369213104248,-5.388461112976074,-1.9861249923706055,0
1.416318655014038,-5.805315971374512,-1.4217861890792847,0
1.15635085105896,-5.951907157897949,-0.6999796628952026,0
0.688410758972168,-5.809012413024902,-0.4049656391143799,0
0.21708011627197266,-5.6897759437561035,-0.25736451148986816,0
-0.3689342737197876,-5.4454345703125,-0.22449254989624023,0
-0.8455837965011597,-5.353127956390381,-0.12543869018554688,0
-1.2947747707366943,-5.060763835906982,-0.19358444213867188,0
-1.6312878131866455,-4.91506290435791,-0.13976335525512695,0
-2.0355021953582764,-4.894164085388184,-0.145857572555542,0
-2.260453701019287,-4.45980978012085,-0.2559018135070801,0
-2.511741876602173,-4.210019588470459,-0.4543900489807129,0
-2.624366044998169,-4.115866661071777,-0.497417688369751,0
-2.547954559326172,-4.007472038269043,-0.5980299711227417,0
-2.5141897201538086,-4.138365745544434,-0.7492450475692749,0
-2.4509165287017822,-4.197390556335449,-0.8748729228973389,0
-2.24527645111084,-4.356898307800293,-1.049126148223877,0
-2.045311689376831,-4.523675918579102,-1.042107343673706,0
-1.8963260650634766,-4.652401447296143,-0.9995605945587158,0
-1.7187389135360718,-4.851015090942383,-0.8396008014678955,0
-1.6297988891601562,-4.961762428283691,-0.6478292942047119,0
-1.698945164680481,-5.058903694152832,-0.4622385501861572,0
-1.7922438383102417,-5.199817180633545,-0.24443483352661133,0
-2.030028820037842,-5.183403491973877,-0.047089576721191406,0
-2.216897964477539,-4.7394866943359375,0.2135910987854004,0
-2.1666579246520996,-4.236732482910156,0.4131035804748535,0
-2.0495142936706543,-3.9166359901428223,0.558610200881958,0
-2.018791913986206,-3.6425528526306152,0.7791047096252441,0
-1.897413969039917,-3.3354334831237793,0.964292049407959,0
-1.6993826627731323,-3.246263027191162,0.9724061489105225,0
-1.5589251518249512,-2.982400417327881,0.9512732028961182,0
-1.483201503753662,-2.6634554862976074,0.9768962860107422,0
-1.5055924654006958,-2.160189151763916,1.0819170475006104,0
-1.4027541875839233,-1.8983845710754395,1.2126104831695557,0
-1.499780535697937,-1.2965688705444336,1.423041820526123,0
-1.9958713054656982,-0.7899637222290039,1.5040608644485474,0
-1.9144586324691772,-0.3663454055786133,1.3850980997085571,0
-1.9515210390090942,0.3215475082397461,0.7262086868286133,0
-1.9506915807724,1.2286262512207031,-0.9141795039176941,0
-1.9716815948486328,2.2857666015625,-2.332768440246582,0
-2.053992986679077,3.440436363220215,-2.867703914642334,0
-2.134380578994751,4.603852272033691,-1.9340314865112305,0
-2.0242347717285156,5.775372505187988,0.2718847990036011,0
-1.7782340049743652,6.906373023986816,2.9345574378967285,0
-1.0049755573272705,7.816317558288574,5.658666610717773,0
0.0718073844909668,8.405911445617676,8.318307876586914,0
1.2756097316741943,8.62615966796875,10.417682647705078,0
2.1105244159698486,8.65119743347168,11.354724884033203,0
2.593498468399048,8.096549034118652,11.079757690429688,0
3.4911134243011475,7.16232967376709,10.1083345413208,0
4.472560882568359,5.577175140380859,8.641870498657227,0
5.333636283874512,3.098356246948242,7.311426162719727,0
5.883617401123047,-0.03606891632080078,5.196229934692383,0
6.173303604125977,-3.0600051879882812,2.4405832290649414,0
6.390260219573975,-5.124752521514893,0.36041057109832764,0
4.7365007400512695,-5.587283611297607,-1.382779598236084,0
2.9910573959350586,-5.306591987609863,-2.98457932472229,0
2.370908260345459,-4.593667030334473,-3.804605484008789,0
1.7131333351135254,-3.5324974060058594,-4.071322441101074,0
0.7745230197906494,-2.0948915481567383,-4.372331142425537,0
-0.06340765953063965,-0.29376792907714844,-4.826746940612793,0
-0.8434300422668457,1.6738615036010742,-5.551235675811768,0
-0.5041966438293457,5.170045852661133,-6.063881874084473,0
0.46342968940734863,9.888795852661133,-6.680139541625977,0
1.3968092203140259,15.196005821228027,-6.807089805603027,0
2.406132221221924,20.019357681274414,-6.3344268798828125,0
1.8569508790969849,22.778812408447266,-6.07705020904541,0
0.39035189151763916,23.82066535949707,-6.0099568367004395,0
-2.169851779937744,23.490575790405273,-5.9332122802734375,0
-4.028622627258301,19.334749221801758,-6.061264514923096,0
-5.652184963226318,13.391080856323242,-6.857884407043457,0
-6.515741348266602,8.246445655822754,-7.295852184295654,0
-6.852827548980713,4.572288513183594,-6.378018856048584,0
-5.657845497131348,1.3618354797363281,-3.7235195636749268,0
-3.841189384460449,-1.6231727600097656,-0.774486243724823,0
-2.9911651611328125,-4.261293888092041,1.3215535879135132,0
-1.988502025604248,-6.779791355133057,1.5980026721954346,0
-1.0506610870361328,-9.367137908935547,0.48749518394470215,0
-0.026389598846435547,-11.786055564880371,-0.7429323196411133,0
0.048390984535217285,-13.215681076049805,-1.7018849849700928,0
-1.333813190460205,-13.297301292419434,-2.459986448287964,0
-1.4203386306762695,-13.299944877624512,-2.584014892578125,0
-0.31604814529418945,-13.244205474853516,-2.183767795562744,0
0.4942692518234253,-12.608125686645508,-1.8099098205566406,0
1.1045784950256348,-11.693081855773926,-1.679301381111145,0
1.6064121723175049,-10.666400909423828,-2.0373785495758057,0
1.98798406124115,-9.611281394958496,-2.8775997161865234,0
2.2014288902282715,-8.940479278564453,-3.800462245941162,0
2.8152003288269043,-8.13097095489502,-4.510318756103516,0
3.35768723487854,-6.757575988769531,-5.11529541015625,0
3.86897349357605,-3.9071860313415527,-5.459429740905762,0
3.9199166297912598,0.3555459976196289,-5.8231000900268555,0
1.9888917207717896,4.865228652954102,-6.253602027893066,0
-0.5605766773223877,7.065309524536133,-5.2917160987854,0
-3.152216911315918,9.016813278198242,-4.220292568206787,0
-5.146244049072266,10.673501968383789,-3.3311495780944824,0
-6.119915008544922,11.974089622497559,-2.787367820739746,0
-5.801662445068359,12.313483238220215,-2.124420166015625,0
-3.542417526245117,9.63267707824707,-0.9372016191482544,0
-2.1058058738708496,4.724135398864746,0.03922891616821289,0
-1.2542533874511719,1.1818456649780273,0.501367449760437,0
-0.6652567386627197,-1.161336898803711,0.6334223747253418,0
-0.7039902210235596,-2.6514625549316406,0.6525732278823853,0
-1.1096794605255127,-3.6459383964538574,0.5591183304786682,0
-1.1977133750915527,-4.148020267486572,0.38804590702056885,0
-1.2548084259033203,-4.505337238311768,0.2065114676952362,0
-0.5540510416030884,-4.890894412994385,0.10333609580993652,0
-0.33291375637054443,-4.891592979431152,0.06212010979652405,0
-0.03503227233886719,-4.780910015106201,0.22967219352722168,0
0.16353940963745117,-4.423092365264893,0.41579359769821167,0
0.38115882873535156,-4.244411945343018,0.015364140272140503,0
0.5613002777099609,-4.015294551849365,-0.7507662773132324,0
0.741926908493042,-3.5276451110839844,-1.2493339776992798,0
1.0417652130126953,-2.9417295455932617,-1.2302628755569458,0
1.215287446975708,-2.6111302375793457,-1.0322749614715576,0
1.6122708320617676,-1.5594472885131836,-0.5182603597640991,0
1.8880131244659424,-0.6645021438598633,0.05388336628675461,0
1.9638020992279053,-0.26749229431152344,0.434494286775589,0
2.0943615436553955,-0.24554443359375,0.7794370055198669,0
2.1355721950531006,-0.4713268280029297,1.0250177383422852,0
2.032702684402466,-0.8560676574707031,1.0548378229141235,0
1.8513083457946777,-1.356663703918457,0.9483521580696106,0
1.5738587379455566,-2.076070785522461,0.6841573715209961,0
1.2261219024658203,-2.7704687118530273,0.6159390211105347,0
0.8068664073944092,-3.232084274291992,0.8933826684951782,0
0.5226306915283203,-3.5618152618408203,1.288250207901001,0
0.4673435688018799,-3.8915534019470215,1.5699079036712646,0
0.478426456451416,-3.8675169944763184,1.6971155405044556,0
0.46250295639038086,-3.5427680015563965,1.6936898231506348,0
0.514991283416748,-3.0850157737731934,1.6552784442901611,0
0.5277862548828125,-2.511092185974121,1.658221960067749,0
0.6844837665557861,-1.9669384956359863,1.6134018898010254,0
0.91267991065979,-1.452479362487793,1.5777180194854736,0
1.1642286777496338,-0.974822998046875,1.6301229000091553,0
1.333591341972351,-0.6533994674682617,1.6968259811401367,0
1.5831902027130127,-0.47118377685546875,1.7974361181259155,0
1.7021632194519043,-0.2557344436645508,1.9109129905700684,0
1.7524542808532715,-0.10741138458251953,1.9180543422698975,0
1.8125817775726318,0.05045509338378906,1.876313328742981,0
1.9129775762557983,0.2968864440917969,2.0226638317108154,0
2.0675458908081055,0.4979572296142578,2.330885410308838,0
2.1704111099243164,0.8139419555664062,2.4678783416748047,0
2.37204647064209,1.1011133193969727,2.533352851867676,0
2.638819932937622,1.359330177307129,2.476114273071289,0
2.8678364753723145,1.4976186752319336,2.4103939533233643,0
3.1650638580322266,1.3724794387817383,2.448395252227783,0
3.2866764068603516,1.184992790222168,2.3458328247070312,0
3.174807071685791,1.1528043746948242,1.8607269525527954,0
2.9743576049804688,1.2399892807006836,1.337844729423523,0
2.682011127471924,1.4514379501342773,0.9456436634063721,0
2.5015974044799805,1.2874565124511719,0.8725152015686035,0
2.394702434539795,0.9519948959350586,0.9548217058181763,0
2.2197608947753906,0.7228240966796875,1.2340563535690308,0
2.4609873294830322,0.26021289825439453,1.75369393825531,0
2.683617115020752,0.10473823547363281,2.2792863845825195,0
2.770679473876953,0.35157299041748047,2.7123184204101562,0
2.650082588195801,0.9475698471069336,3.1096131801605225,0
2.4100351333618164,1.6077604293823242,3.4038515090942383,0
2.1227059364318848,2.224365234375,3.446528434753418,0
1.7213650941848755,2.6873550415039062,3.117947578430176,0
1.0553736686706543,3.0351619720458984,2.6789772510528564,0
0.4430497884750366,3.1436452865600586,2.318974256515503,0
0.13105535507202148,2.972311019897461,1.6451401710510254,0
0.22735297679901123,2.719693183898926,0.8456249833106995,0
0.41845035552978516,2.467015266418457,-0.14245617389678955,0
0.4507204294204712,2.336195945739746,-1.249752163887024,0
0.3045773506164551,2.205280303955078,-2.117093563079834,0
0.367179274559021,2.1102914810180664,-2.6413662433624268,0
0.6427685022354126,2.211275100708008,-3.2328855991363525,0
0.8720395565032959,2.321345329284668,-3.764131546020508,0
0.9179633855819702,2.598234176635742,-4.279568672180176,0
0.9761911630630493,2.8408021926879883,-4.749619007110596,0
0.9526915550231934,3.099365234375,-5.022255897521973,0
0.7580467462539673,3.1828832626342773,-5.124200820922852,0
0.8421459197998047,2.8263368606567383,-5.148787975311279,0
0.7697808742523193,2.4583797454833984,-5.388319969177246,0
0.34491872787475586,2.294438362121582,-5.663699626922607,0
-0.27545273303985596,2.2698898315429688,-5.586779594421387,0
-1.1207568645477295,2.229397773742676,-5.435830116271973,0
-1.8614654541015625,2.120513916015625,-5.445717811584473,0
-2.373953342437744,2.251707077026367,-5.40224027633667,0
-2.688455104827881,2.273592948913574,-5.031323432922363,0
-2.605830430984497,2.489884376525879,-4.569474220275879,0
-2.2570552825927734,2.711209297180176,-4.1848063468933105,0
-2.084899425506592,3.1575698852539062,-3.913527011871338,0
-1.9558038711547852,3.5323543548583984,-3.7771239280700684,0
-1.9563193321228027,4.1108245849609375,-3.679513692855835,0
-2.100947380065918,4.706372261047363,-3.5433647632598877,0
-2.152513027191162,5.263968467712402,-3.3943378925323486,0
-2.0197763442993164,5.410548210144043,-2.85581636428833,0
-2.109135150909424,5.459739685058594,-2.3165791034698486,0
-2.315112829208374,5.363746643066406,-1.6633319854736328,0
-2.673818349838257,5.318820953369141,-1.1999351978302002,0
-2.8505849838256836,5.229260444641113,-0.8430873155593872,0
-2.8719823360443115,5.0185651779174805,-0.4470818042755127,0
-2.627973794937134,4.670017242431641,-0.19828230142593384,0
-2.31980037689209,3.8441600799560547,-0.029016733169555664,0
-1.5794546604156494,3.299468994140625,0.061461031436920166,0
-1.1445963382720947,2.748654365539551,0.08604472875595093,0
-0.9678002595901489,1.9646759033203125,-0.024637699127197266,0
-0.718336820602417,1.3828344345092773,-0.14888179302215576,0
-0.6737009286880493,1.2736444473266602,-0.3010087013244629,0
-0.295379638671875,0.3216266632080078,-0.7801846861839294,0
0.4906165599822998,-0.6308536529541016,-0.9894507527351379,0
0.28481173515319824,-0.656315803527832,-0.19093239307403564,0
-0.4801769256591797,-0.14603614807128906,-0.18318259716033936,0
-1.2218756675720215,-0.09757137298583984,-1.1350409984588623,0
-1.3659523725509644,-0.37389659881591797,-1.7100532054901123,0
-1.0293675661087036,-0.8147850036621094,-1.6685740947723389,0
-0.4343132972717285,-1.4374604225158691,-1.1880381107330322,0
0.2596266269683838,-1.95548677444458,-0.9004793167114258,0
0.787388801574707,-2.4387259483337402,-1.079703688621521,0
1.231048822402954,-3.0765624046325684,-1.320094108581543,0
1.6386313438415527,-3.7593154907226562,-1.2372887134552002,0
1.789377212524414,-4.303124904632568,-0.9493390321731567,0
1.73974609375,-4.698451519012451,-0.6975588798522949,0
1.215632677078247,-5.152932167053223,-0.640343427658081,0
0.7520415782928467,-5.5582356452941895,-0.7526547908782959,0
0.08482718467712402,-5.662761688232422,-0.8227918148040771,0
-0.5501033067703247,-5.798836708068848,-0.8394265174865723,0
-1.1797393560409546,-6.002125263214111,-0.7285797595977783,0
-1.4482500553131104,-6.107370376586914,-0.8064277172088623,0
-1.786834478378296,-6.22691535949707,-0.8890011310577393,0
-1.8129699230194092,-6.262612342834473,-0.979021430015564,0
-1.8043558597564697,-6.092684745788574,-1.0979441404342651,0
-1.6747548580169678,-6.047435760498047,-1.1501336097717285,0
-1.6297893524169922,-6.031111717224121,-1.135743260383606,0
-1.7631155252456665,-5.814136028289795,-1.1214627027511597,0
-2.0083885192871094,-5.1696977615356445,-0.9342632293701172,0
-1.983202576637268,-4.775228500366211,-0.7002787590026855,0
-1.9342628717422485,-4.525333881378174,-0.5196559429168701,0
-2.0555641651153564,-4.364861011505127,-0.29651308059692383,0
-2.1201303005218506,-4.226736545562744,-0.040311574935913086,0
-2.175715446472168,-4.101418495178223,0.30866360664367676,0
-2.361070394515991,-3.862236499786377,0.6453261375427246,0
-2.3119497299194336,-3.8298306465148926,0.8834209442138672,0
-2.314913749694824,-3.681103229522705,1.0607421398162842,0
-2.319378614425659,-3.5787715911865234,1.2010116577148438,0
-2.294166326522827,-3.489187717437744,1.327803611755371,0
-2.383096933364868,-3.309342384338379,1.3380374908447266,0
-2.2654576301574707,-3.146908760070801,1.408623456954956,0
-1.9649393558502197,-3.011512279510498,1.4916784763336182,0
-1.766007661819458,-2.786020278930664,1.5107762813568115,0
-1.6183576583862305,-2.535086154937744,1.5043418407440186,0
-1.447693109512329,-2.3496298789978027,1.5084316730499268,0
-1.1583278179168701,-2.179384231567383,1.4395592212677002,0
-0.9249951839447021,-2.0337281227111816,1.26155686378479,0
-0.653878927230835,-1.9170637130737305,0.8654062747955322,0
-0.42383265495300293,-1.7977638244628906,0.31397032737731934,0
-0.17977726459503174,-1.567741870880127,-0.220017671585083,0
0.1411724090576172,-1.2625503540039062,-0.861173152923584,0
0.4410231113433838,-0.7430295944213867,-1.6886717081069946,0
0.25296854972839355,0.13935279846191406,-2.35298752784729,0
0.07141375541687012,1.284311294555664,-3.006784439086914,0
-0.44239819049835205,2.56978702545166,-2.743530511856079,0
-0.6383881568908691,3.674631118774414,-1.238555669784546,0
0.2852170467376709,4.1051788330078125,1.1238629817962646,0
0.37575531005859375,4.29417610168457,3.244302988052368,0
0.4307591915130615,4.671421051025391,5.289257049560547,0
0.6706464290618896,5.2575273513793945,6.747163772583008,0
0.8108649253845215,5.958552360534668,7.8259596824646,0
1.0450994968414307,6.5422468185424805,8.507833480834961,0
0.9950497150421143,6.855979919433594,8.496244430541992,0
1.1467108726501465,6.80723762512207,7.921850204467773,0
1.53713059425354,6.387088775634766,7.211402893066406,0
2.0532357692718506,5.457447052001953,6.520448684692383,0
2.49837064743042,3.7822351455688477,5.79669189453125,0
2.6093568801879883,1.5916004180908203,5.163612365722656,0
2.35062313079834,-0.5524406433105469,4.510947227478027,0
1.7600953578948975,-2.442093849182129,3.4503109455108643,0
1.2768771648406982,-4.232685089111328,1.596508502960205,0
0.7113795280456543,-5.808815002441406,-0.036032676696777344,0
-0.17053139209747314,-6.304185390472412,-1.9396675825119019,0
-0.7564822435379028,-5.776711463928223,-3.3090813159942627,0
-1.338774561882019,-5.131038188934326,-3.0106804370880127,0
-2.2736475467681885,-4.493960380554199,-2.4812474250793457,0
-2.610405683517456,-3.471675395965576,-1.9072951078414917,0
-2.600633144378662,-2.516606330871582,-2.5348756313323975,0
-2.528169631958008,-0.6459856033325195,-3.125059127807617,0
-1.8533251285552979,1.5860366821289062,-3.593090534210205,0
-1.1484296321868896,4.120783805847168,-3.765401601791382,0
-0.5470880270004272,6.9069719314575195,-3.9768223762512207,0
0.34563302993774414,9.84054946899414,-4.032226085662842,0
0.8025503158569336,12.657663345336914,-5.143620014190674,0
1.4648972749710083,15.290534973144531,-6.971913814544678,0
2.1067466735839844,17.21978759765625,-6.619174957275391,0
-1.3886655569076538,16.701045989990234,-6.439578533172607,0
-2.2662248611450195,17.697601318359375,-7.893516540527344,0
-0.1557682752609253,16.75551414489746,-7.727901458740234,0
1.2318817377090454,12.486273765563965,-6.622767448425293,0
-0.05065000057220459,8.364858627319336,-5.830316543579102,0
-1.1647738218307495,5.897428512573242,-3.935561180114746,0
-1.4884289503097534,3.3138904571533203,-1.5787665843963623,0
-1.2148369550704956,0.38410377502441406,-0.3957916498184204,0
-0.5680111050605774,-2.200592517852783,-0.5650485754013062,0
0.19462251663208008,-4.361489772796631,-1.065927505493164,0
0.7905881404876709,-5.902655601501465,-1.4525351524353027,0
0.1259216070175171,-6.439208984375,-1.703931212425232,0
-0.991980791091919,-6.64396858215332,-1.6603193283081055,0
-0.9371084570884705,-6.637404918670654,-1.466644287109375,0
-0.3129216432571411,-6.583441734313965,-1.3869199752807617,0
-0.0432887077331543,-6.650521278381348,-1.9074692726135254,0
0.750555157661438,-6.521862030029297,-2.772221803665161,0
1.6774078607559204,-6.276309490203857,-3.262028694152832,0
1.9264113903045654,-5.638585567474365,-3.356954574584961,0
2.068216323852539,-5.1743855476379395,-3.879760265350342,0
2.493825674057007,-4.599231243133545,-4.683765411376953,0
2.9327545166015625,-3.8459630012512207,-5.45640754699707,0
2.6024434566497803,-2.6987738609313965,-5.633061408996582,0
2.680147171020508,-1.0302305221557617,-5.7610697746276855,0
2.296356678009033,0.6080303192138672,-5.301774024963379,0
1.063491940498352,1.9666528701782227,-4.681120872497559,0
-0.38712894916534424,2.8992929458618164,-4.0399651527404785,0
-1.794736623764038,3.4315176010131836,-3.3676328659057617,0
-2.8120369911193848,3.4688758850097656,-2.791027069091797,0
-2.7962474822998047,2.938081741333008,-2.3239076137542725,0
-1.843690276145935,1.8680477142333984,-1.9096755981445312,0
-1.1895782947540283,0.63427734375,-1.3851613998413086,0
-1.5524415969848633,-0.7562265396118164,-1.0603876113891602,0
-1.791176199913025,-1.1918516159057617,-0.9061053395271301,0
-1.9664344787597656,-2.0275845527648926,-0.9627965688705444,0
-1.9044227600097656,-2.256702423095703,-1.0703177452087402,0
-2.102461576461792,-2.6643853187561035,-1.1813087463378906,0
-2.3450253009796143,-3.1333274841308594,-1.2651402950286865,0
-2.4186573028564453,-3.1352834701538086,-1.400587558746338,0
-2.04414439201355,-2.9297523498535156,-1.5100328922271729,0
-1.6295572519302368,-2.579775333404541,-1.2949085235595703,0
-1.5362980365753174,-2.221996784210205,-1.1818867921829224,0
-1.5426760911941528,-1.959127426147461,-1.1555306911468506,0
-1.2949509620666504,-1.7050490379333496,-1.070930004119873,0
-0.990185022354126,-1.5194830894470215,-0.9986457228660583,0
-0.8431605100631714,-1.1604194641113281,-1.1198960542678833,0
-0.5615062713623047,-0.8523502349853516,-1.0424355268478394,0
-0.19257235527038574,-0.6114950180053711,-0.8432385921478271,0
0.15205073356628418,-0.3823890686035156,-0.6373901963233948,0
0.6917872428894043,-0.16962528228759766,-0.18115466833114624,0
1.2280926704406738,-0.19554615020751953,0.22117364406585693,0
1.6295368671417236,-0.37372684478759766,0.3394453525543213,0
1.757819414138794,-0.5700788497924805,0.3720055818557739,0
1.7835683822631836,-0.7129611968994141,0.5295916199684143,0
1.7605772018432617,-0.9533414840698242,0.7024452686309814,0
1.7575628757476807,-1.2508525848388672,0.7732863426208496,0
1.555506944656372,-1.3808822631835938,0.7035355567932129,0
1.2173361778259277,-1.721583366394043,0.7018998265266418,0
0.9106802940368652,-2.0503435134887695,0.5556344985961914,0
0.7148981094360352,-2.3266372680664062,0.6160485744476318,0
0.49863696098327637,-2.433438301086426,0.8828569650650024,0
0.3624851703643799,-2.4762024879455566,1.2102395296096802,0
0.2512671947479248,-2.4095396995544434,1.3773994445800781,0
0.28934454917907715,-2.2551088333129883,1.495847225189209,0
