AccX,AccY,AccZ,SampleRate
3.649357318878174,3.352383613586426,-2.9717185497283936,0
3.6570236682891846,3.6966304779052734,-2.8000972270965576,0.01
3.1772139072418213,4.135123252868652,-2.9362072944641113,0.02
1.5318031311035156,5.116002082824707,-3.0357542037963867,0.03
0.369533896446228,5.395689010620117,-2.992086887359619,0.04
-0.09419608116149902,5.224079132080078,-1.583646297454834,0.05
0.05365777015686035,5.028021812438965,-3.961239814758301,0.060000000000000005
-0.0061283111572265625,4.5250043869018555,-5.2441325187683105,0.07
-0.15200424194335938,4.4497270584106445,-5.25352668762207,0.08
-0.5601338148117065,4.49278450012207,-4.4006853103637695,0.09
-0.9040781259536743,4.856681823730469,-4.11142110824585,0.09999999999999999
-1.2779468297958374,5.101774215698242,-4.216274738311768,0.10999999999999999
-1.6706231832504272,5.228346824645996,-4.988587379455566,0.11999999999999998
-2.610816478729248,5.315646171569824,-5.907134056091309,0.12999999999999998
-3.953662872314453,5.5979719161987305,-4.2473955154418945,0.13999999999999999
-4.624741077423096,5.731075286865234,-2.6237595081329346,0.15
-2.9284262657165527,5.716066360473633,-2.7022831439971924,0.16
-2.2367660999298096,5.574454307556152,-1.9447829723358154,0.17
-1.7291679382324219,4.720734596252441,-1.5052177906036377,0.18000000000000002
-0.9868278503417969,3.0585832595825195,-1.640209674835205,0.19000000000000003
-0.8818687796592712,1.6061062812805176,-2.2122960090637207,0.20000000000000004
-0.8708074688911438,0.3635697364807129,-2.8681490421295166,0.21000000000000005
-0.8109045028686523,-0.9113650321960449,-3.74753999710083,0.22000000000000006
-0.7391729354858398,-1.9229965209960938,-4.264941215515137,0.23000000000000007
-0.8240615129470825,-1.9281201362609863,-4.83997106552124,0.24000000000000007
-0.04306304454803467,-3.057645320892334,-5.44948148727417,0.25000000000000006
0.37135156989097595,-3.1106200218200684,-5.07373571395874,0.26000000000000006
0.6897333264350891,-2.7968454360961914,-4.799912452697754,0.2700000000000001
0.8751724362373352,-2.828794479370117,-4.272612571716309,0.2800000000000001
0.539828360080719,-2.492129325866699,-5.110160827636719,0.2900000000000001
0.09652221202850342,-1.8256573677062988,-5.115217208862305,0.3000000000000001
-0.17287003993988037,-1.3920412063598633,-4.864027976989746,0.3100000000000001
-0.26985985040664673,-1.71659517288208,-4.721680641174316,0.3200000000000001
0.574978232383728,-1.4290432929992676,-4.011216163635254,0.3300000000000001
1.173298954963684,-3.5901758670806885,-4.552079200744629,0.34000000000000014
1.1825085878372192,-5.0565643310546875,-4.257485389709473,0.35000000000000014
1.1170756816864014,-5.796732425689697,-4.181127071380615,0.36000000000000015
0.3543301820755005,-6.1863250732421875,-4.317874908447266,0.37000000000000016
-0.24279189109802246,-5.368213176727295,-3.418133020401001,0.38000000000000017
0.7162014245986938,-4.1070661544799805,-2.7830677032470703,0.3900000000000002
1.1866480112075806,-3.0801749229431152,-2.5554230213165283,0.4000000000000002
1.1608697175979614,-1.2110652923583984,-2.074697494506836,0.4100000000000002
0.5969412922859192,2.3694205284118652,-0.013944625854492188,0.4200000000000002
0.9672896265983582,6.492101192474365,4.359714031219482,0.4300000000000002
1.9797407388687134,9.081823348999023,3.124207019805908,0.4400000000000002
2.8626747131347656,11.192795753479004,2.3452577590942383,0.45000000000000023
3.2469255924224854,10.049517631530762,1.238602638244629,0.46000000000000024
2.909247636795044,6.484428405761719,1.4747133255004883,0.47000000000000025
2.4645981788635254,3.348149299621582,2.244767189025879,0.48000000000000026
2.396326780319214,1.4208316802978516,2.299098014831543,0.49000000000000027
2.49465012550354,0.7880954742431641,0.48310089111328125,0.5000000000000002
2.922908306121826,0.8030409812927246,-1.3890314102172852,0.5100000000000002
2.745218515396118,1.7296133041381836,-1.343397617340088,0.5200000000000002
1.4350085258483887,3.177187442779541,-2.0473828315734863,0.5300000000000002
-0.12025284767150879,4.340970516204834,-3.3742260932922363,0.5400000000000003
-1.3201426267623901,4.660604000091553,-5.806960105895996,0.5500000000000003
-3.4329822063446045,5.047092437744141,-7.673098087310791,0.5600000000000003
-6.412866115570068,5.510287284851074,-7.628501892089844,0.5700000000000003
-9.158377647399902,5.522090435028076,-4.548493385314941,0.5800000000000003
-10.773368835449219,4.777762413024902,-2.5722708702087402,0.5900000000000003
-6.354240894317627,2.2528576850891113,-2.519102096557617,0.6000000000000003
-3.599804162979126,1.5329689979553223,-3.219057083129883,0.6100000000000003
-2.655372142791748,1.6056227684020996,-4.763009548187256,0.6200000000000003
-1.912932276725769,2.423121929168701,-5.284533977508545,0.6300000000000003
-0.8212870359420776,2.9797582626342773,-4.963022232055664,0.6400000000000003
-0.15852022171020508,3.329098701477051,-6.169625759124756,0.6500000000000004
0.4861103296279907,3.745382785797119,-6.7356157302856445,0.6600000000000004
1.3302602767944336,3.804718494415283,-6.608191967010498,0.6700000000000004
1.9967758655548096,3.8506288528442383,-5.900463104248047,0.6800000000000004
3.0565083026885986,3.6625113487243652,-4.488832473754883,0.6900000000000004
3.8038330078125,3.0461525917053223,-3.466197967529297,0.7000000000000004
3.612812042236328,2.2277231216430664,-3.7186172008514404,0.7100000000000004
2.344677448272705,1.0177373886108398,-4.0800089836120605,0.7200000000000004
1.3755502700805664,-0.07030105590820312,-3.662334680557251,0.7300000000000004
0.9600659012794495,-0.7726602554321289,-3.237705707550049,0.7400000000000004
0.5480483770370483,-1.2524833679199219,-3.363642930984497,0.7500000000000004
0.4846196174621582,-1.8087306022644043,-3.6351161003112793,0.7600000000000005
0.45532870292663574,-2.3279809951782227,-3.8231053352355957,0.7700000000000005
0.6733083724975586,-2.5984740257263184,-4.099431037902832,0.7800000000000005
0.5199699401855469,-2.84898042678833,-3.0937087535858154,0.7900000000000005
0.8795984983444214,-2.6640830039978027,-3.0775418281555176,0.8000000000000005
1.284980297088623,-2.162886619567871,-3.088326930999756,0.8100000000000005
1.7077912092208862,-1.4812350273132324,-2.8254828453063965,0.8200000000000005
1.9754130840301514,-0.8758959770202637,-2.4246459007263184,0.8300000000000005
2.1512224674224854,-0.3589801788330078,-2.357327461242676,0.8400000000000005
2.2711565494537354,0.20612621307373047,-2.5905630588531494,0.8500000000000005
2.3929214477539062,0.3486490249633789,-2.536292552947998,0.8600000000000005
2.4505484104156494,0.2805442810058594,-2.2579121589660645,0.8700000000000006
2.372347354888916,0.11810493469238281,-1.9212677478790283,0.8800000000000006
2.217012643814087,-0.0056304931640625,-1.2590699195861816,0.8900000000000006
2.0702688694000244,-0.07142066955566406,-0.8821437358856201,0.9000000000000006
1.9706610441207886,-0.1549243927001953,-0.688551664352417,0.9100000000000006
1.9756989479064941,-0.04645538330078125,-0.7193107604980469,0.9200000000000006
2.2264404296875,0.42709922790527344,-1.1231720447540283,0.9300000000000006
2.470468759536743,1.2630882263183594,-1.6697659492492676,0.9400000000000006
2.4616172313690186,2.315031051635742,-2.3998758792877197,0.9500000000000006
2.3132998943328857,2.9598302841186523,-3.152179718017578,0.9600000000000006
2.573700428009033,2.996074676513672,-3.7298038005828857,0.9700000000000006
2.9088854789733887,2.7863025665283203,-3.7672204971313477,0.9800000000000006
3.099405527114868,2.461421012878418,-3.459923505783081,0.9900000000000007
3.217902660369873,2.3307571411132812,-2.4071435928344727,1.0000000000000007
2.8808751106262207,2.5233469009399414,-0.7143597602844238,1.0100000000000007
1.737728476524353,3.2298583984375,0.296511173248291,1.0200000000000007
-0.36209893226623535,4.553989410400391,-0.7033865451812744,1.0300000000000007
-0.7394635677337646,5.053235054016113,-1.1555616855621338,1.0400000000000007
-0.7821650505065918,4.860018730163574,-2.587799072265625,1.0500000000000007
-0.9574179649353027,3.812436103820801,-4.033541679382324,1.0600000000000007
-0.7845108509063721,2.7512474060058594,-4.372368812561035,1.0700000000000007
-0.15886151790618896,2.4271068572998047,-4.333933353424072,1.0800000000000007
1.231358528137207,2.592031478881836,-4.4717302322387695,1.0900000000000007
1.6710628271102905,3.119439125061035,-5.2371110916137695,1.1000000000000008
1.5227261781692505,3.9812726974487305,-5.556484222412109,1.1100000000000008
1.0595049858093262,4.458395957946777,-5.324338912963867,1.1200000000000008
0.05124974250793457,4.985787391662598,-5.118036270141602,1.1300000000000008
-1.1466315984725952,5.504803657531738,-4.155697822570801,1.1400000000000008
-2.756040334701538,6.459841728210449,-1.5926012992858887,1.1500000000000008
-3.186084270477295,7.143442153930664,-0.7486405372619629,1.1600000000000008
-2.2766432762145996,7.018930435180664,-1.184105396270752,1.1700000000000008
-2.0216684341430664,6.163534164428711,-1.169156551361084,1.1800000000000008
-2.10231876373291,6.2592363357543945,-1.331120491027832,1.1900000000000008
-1.6058871746063232,2.612093448638916,-2.0479977130889893,1.2000000000000008
-1.6019419431686401,0.6589231491088867,-3.0238029956817627,1.2100000000000009
-1.3219642639160156,-0.19498538970947266,-3.1425530910491943,1.2200000000000009
-0.8806710243225098,-1.215639591217041,-3.805912971496582,1.2300000000000009
-0.4311167001724243,-1.9561567306518555,-4.482481956481934,1.2400000000000009
-0.1405322551727295,-1.8713693618774414,-5.011256217956543,1.2500000000000009
-0.1955047845840454,-1.8010649681091309,-5.100961208343506,1.260000000000001
0.309929221868515,-1.870589256286621,-5.4630632400512695,1.270000000000001
0.38735103607177734,-2.173741340637207,-5.635417461395264,1.280000000000001
0.46050161123275757,-2.249042510986328,-4.657253742218018,1.290000000000001
0.5103683471679688,-2.32680606842041,-4.8056745529174805,1.300000000000001
0.3507929742336273,-2.3196496963500977,-4.935673236846924,1.310000000000001
0.2302318513393402,-2.5336337089538574,-4.443968772888184,1.320000000000001
-0.22374755144119263,-2.425865650177002,-3.9023823738098145,1.330000000000001
-0.4460375905036926,-2.364734649658203,-3.7684996128082275,1.340000000000001
-0.405878484249115,-2.1158785820007324,-3.9008188247680664,1.350000000000001
0.02623772621154785,-2.653810977935791,-4.205745697021484,1.360000000000001
0.11657291650772095,-3.71177077293396,-4.253206253051758,1.370000000000001
-0.5174698829650879,-4.575230121612549,-3.739100694656372,1.380000000000001
-1.2647074460983276,-4.550134658813477,-3.031590223312378,1.390000000000001
-0.8931934833526611,-3.8683087825775146,-2.0219368934631348,1.400000000000001
0.17243432998657227,-2.867805004119873,-1.647207260131836,1.410000000000001
0.6098744869232178,-1.545053482055664,-1.6763787269592285,1.420000000000001
0.7045021653175354,0.7977395057678223,-1.0199213027954102,1.430000000000001
0.5420823097229004,4.851398944854736,1.5269393920898438,1.440000000000001
1.8106364011764526,7.811737060546875,3.343921661376953,1.450000000000001
3.0513410568237305,9.058218002319336,3.0775012969970703,1.460000000000001
3.731781482696533,8.483864784240723,1.3769760131835938,1.470000000000001
3.5882620811462402,6.24054479598999,1.9510908126831055,1.480000000000001
3.5397210121154785,3.6477255821228027,2.1799564361572266,1.490000000000001
3.642672061920166,1.9148836135864258,1.4902315139770508,1.500000000000001
3.7764196395874023,1.2790298461914062,-0.6466326713562012,1.5100000000000011
3.773139476776123,1.4416427612304688,-1.4761443138122559,1.5200000000000011
3.607332706451416,2.3425679206848145,-0.8733129501342773,1.5300000000000011
2.7073802947998047,3.780576705932617,-0.5331830978393555,1.5400000000000011
1.2671936750411987,4.672321319580078,-2.423908233642578,1.5500000000000012
-0.06570088863372803,4.938784122467041,-4.562290191650391,1.5600000000000012
-3.21490740776062,5.310929298400879,-6.776346206665039,1.5700000000000012
-6.1817145347595215,5.989367485046387,-7.472266674041748,1.5800000000000012
-10.386655807495117,5.817163944244385,-5.2400803565979,1.5900000000000012
-12.336400985717773,3.2763609886169434,-0.1357717514038086,1.6000000000000012
-10.373300552368164,1.3110761642456055,-0.4839606285095215,1.6100000000000012
-5.236144065856934,-0.7243027687072754,-2.3324403762817383,1.6200000000000012
-3.7034530639648438,-0.7846183776855469,-4.3738179206848145,1.6300000000000012
-2.8673853874206543,0.10127449035644531,-5.359840393066406,1.6400000000000012
-1.6681153774261475,1.4290962219238281,-5.276435852050781,1.6500000000000012
-0.5385273694992065,2.5176405906677246,-5.543542861938477,1.6600000000000013
0.6759642362594604,3.386025905609131,-6.143891334533691,1.6700000000000013
1.7894231081008911,4.227776527404785,-6.1789751052856445,1.6800000000000013
2.556741714477539,4.555978775024414,-5.699190139770508,1.6900000000000013
3.3474678993225098,4.179624080657959,-4.543031692504883,1.7000000000000013
3.918396234512329,3.8326659202575684,-3.1151797771453857,1.7100000000000013
4.177773475646973,3.2467713356018066,-2.8938281536102295,1.7200000000000013
3.4705302715301514,2.437649726867676,-3.124284505844116,1.7300000000000013
2.213306188583374,1.2483234405517578,-2.817204236984253,1.7400000000000013
1.0406551361083984,-0.17323541641235352,-2.1517505645751953,1.7500000000000013
0.5879973769187927,-0.9285593032836914,-2.405050277709961,1.7600000000000013
0.17339694499969482,-1.5224919319152832,-3.3386707305908203,1.7700000000000014
0.1064002513885498,-1.9930758476257324,-4.199726104736328,1.7800000000000014
0.06425034999847412,-2.0715317726135254,-4.080965042114258,1.7900000000000014
0.3872408866882324,-2.8870835304260254,-4.2616801261901855,1.8000000000000014
0.8258679509162903,-2.886385917663574,-4.118081092834473,1.8100000000000014
1.2736690044403076,-2.589522361755371,-4.186322212219238,1.8200000000000014
1.5074279308319092,-2.001133918762207,-3.331641674041748,1.8300000000000014
1.5227484703063965,-1.4370393753051758,-2.8673229217529297,1.8400000000000014
1.4701346158981323,-0.6985397338867188,-2.575869560241699,1.8500000000000014
1.5015757083892822,-0.029266357421875,-2.3801956176757812,1.8600000000000014
1.5263900756835938,0.49779319763183594,-2.027198553085327,1.8700000000000014
1.5372213125228882,0.6375093460083008,-1.806333303451538,1.8800000000000014
1.555220603942871,0.4084463119506836,-1.6979944705963135,1.8900000000000015
1.684511423110962,0.054282188415527344,-1.5190837383270264,1.9000000000000015
1.8666826486587524,-0.2769918441772461,-1.682478904724121,1.9100000000000015
2.1143040657043457,-0.5709629058837891,-1.5514793395996094,1.9200000000000015
2.289283275604248,-0.6737613677978516,-1.268951654434204,1.9300000000000015
2.318927526473999,-0.6097011566162109,-1.1471467018127441,1.9400000000000015
2.1774191856384277,-0.3170652389526367,-1.2717233896255493,1.9500000000000015
2.1339781284332275,0.010486602783203125,-1.4785701036453247,1.9600000000000015
2.0769946575164795,0.5420522689819336,-1.548799991607666,1.9700000000000015
1.9851067066192627,1.1090421676635742,-1.6087647676467896,1.9800000000000015
1.775707721710205,1.733311653137207,-1.780434489250183,1.9900000000000015
1.5526955127716064,2.0166263580322266,-1.8209662437438965,2.0000000000000013
1.6126229763031006,2.163572311401367,-2.0301148891448975,2.010000000000001
2.100951671600342,2.0789947509765625,-2.2579352855682373,2.020000000000001
2.4814634323120117,1.9206275939941406,-2.0793087482452393,2.0300000000000007
2.813391923904419,1.677581787109375,-1.4800435304641724,2.0400000000000005
3.0191354751586914,1.4962921142578125,-0.6431593894958496,2.0500000000000003
2.873224973678589,1.7196054458618164,-0.4213268756866455,2.06
2.083885669708252,2.8010082244873047,-0.8058658838272095,2.07
0.7838170528411865,4.018563270568848,-1.0306838750839233,2.0799999999999996
0.13245487213134766,4.468710899353027,-1.2338451147079468,2.0899999999999994
0.7549736499786377,3.75662899017334,-3.790646553039551,2.099999999999999
1.136554479598999,2.765162467956543,-5.163332939147949,2.109999999999999
1.152652621269226,2.5648860931396484,-5.626826286315918,2.1199999999999988
0.9839566946029663,2.854246139526367,-5.241788387298584,2.1299999999999986
0.7299320697784424,3.745049476623535,-4.6579694747924805,2.1399999999999983
0.7523476481437683,4.894573211669922,-5.449413299560547,2.149999999999998
0.33710670471191406,5.712954521179199,-5.469916820526123,2.159999999999998
-0.39271390438079834,5.886791229248047,-3.816740036010742,2.1699999999999977
-1.2900573015213013,5.934117317199707,-3.3778727054595947,2.1799999999999975
-2.4834816455841064,6.00654411315918,-2.9562063217163086,2.1899999999999973
-3.7667813301086426,6.0583696365356445,-2.3810510635375977,2.199999999999997
-4.644397258758545,6.215751647949219,-2.022923231124878,2.209999999999997
-4.428524971008301,5.696457862854004,-1.9973459243774414,2.2199999999999966
-3.899669647216797,4.559758186340332,-1.9923155307769775,2.2299999999999964
-3.1989269256591797,3.327561378479004,-1.8717095851898193,2.239999999999996
-2.286170482635498,1.8635501861572266,-1.9475224018096924,2.249999999999996
-1.5952143669128418,0.3269968032836914,-2.4994449615478516,2.259999999999996
-1.3523012399673462,-0.5704193115234375,-3.2077102661132812,2.2699999999999956
-1.2681853771209717,-0.926483154296875,-3.7721760272979736,2.2799999999999954
-0.8733808994293213,-1.4218173027038574,-4.301259994506836,2.289999999999995
-0.6263523697853088,-1.3974995613098145,-4.209559917449951,2.299999999999995
-0.25205492973327637,-1.6905741691589355,-4.865790367126465,2.3099999999999947
0.02771526575088501,-1.5331177711486816,-5.075492858886719,2.3199999999999945
0.26388731598854065,-1.3465938568115234,-4.879761219024658,2.3299999999999943
0.15206030011177063,-1.3537611961364746,-4.376588821411133,2.339999999999994
0.1040658950805664,-1.4301185607910156,-3.5032949447631836,2.349999999999994
0.23847973346710205,-1.5508193969726562,-3.3251731395721436,2.3599999999999937
0.3585991859436035,-1.9303092956542969,-3.6115634441375732,2.3699999999999934
0.08027631044387817,-2.175589084625244,-3.457598924636841,2.3799999999999932
-0.09010690450668335,-2.5708813667297363,-3.4340436458587646,2.389999999999993
-0.16333717107772827,-2.9448022842407227,-3.7810654640197754,2.399999999999993
-0.14668291807174683,-3.282041549682617,-4.180344581604004,2.4099999999999926
0.01637899875640869,-3.5424082279205322,-3.9937164783477783,2.4199999999999924
0.3842626214027405,-3.8210947513580322,-3.3025248050689697,2.429999999999992
0.612403154373169,-3.6288046836853027,-2.3155508041381836,2.439999999999992
0.6601517200469971,-3.1291279792785645,-2.1598925590515137,2.4499999999999917
0.6121686100959778,-2.386265277862549,-2.1009130477905273,2.4599999999999915
0.6295863389968872,-1.3871197700500488,-1.3684821128845215,2.4699999999999913
0.9015312790870667,-0.6330475807189941,-0.5443387031555176,2.479999999999991
0.8889118432998657,0.38721179962158203,0.16347026824951172,2.489999999999991
1.081458568572998,1.6698126792907715,0.8110013008117676,2.4999999999999907
1.7945367097854614,2.6223220825195312,0.8816146850585938,2.5099999999999905
2.3914406299591064,3.5082316398620605,0.5869555473327637,2.5199999999999902
2.6101016998291016,4.0509819984436035,0.4055361747741699,2.52999999999999
2.5477805137634277,3.5641703605651855,0.07342767715454102,2.53999999999999
2.305159091949463,2.224123477935791,-0.08076858520507812,2.5499999999999896
2.0602166652679443,1.1351385116577148,0.3521265983581543,2.5599999999999894
1.7693891525268555,0.6395535469055176,0.29436302185058594,2.569999999999989
1.6984467506408691,0.653069019317627,0.253873348236084,2.579999999999989
1.0520539283752441,1.9454097747802734,-1.095688819885254,2.5899999999999888
0.5773093700408936,2.9015731811523438,-1.41273832321167,2.5999999999999885
-0.3095446825027466,4.654059886932373,-1.9261555671691895,2.6099999999999883
-1.83838951587677,6.17473030090332,-2.8931305408477783,2.619999999999988
-3.7410221099853516,7.112715244293213,-3.5181477069854736,2.629999999999988
-6.349234580993652,7.927921772003174,-3.397970676422119,2.6399999999999877
-8.714361190795898,7.967186450958252,-1.3764772415161133,2.6499999999999875
-8.413076400756836,6.031047821044922,-0.09658002853393555,2.6599999999999873
-4.07960319519043,1.8877110481262207,-1.1398091316223145,2.669999999999987
-4.077032089233398,1.956627368927002,-1.2152252197265625,2.679999999999987
-0.9412436485290527,-0.6909570693969727,-4.789547920227051,2.6899999999999866
-0.5802278518676758,0.8349642753601074,-5.858861923217773,2.6999999999999864
-0.20139575004577637,2.3728103637695312,-6.3801069259643555,2.709999999999986
0.2958667278289795,3.3422937393188477,-6.303153038024902,2.719999999999986
0.807173490524292,4.3978400230407715,-6.590559005737305,2.7299999999999858
1.0182181596755981,5.163303852081299,-5.683729648590088,2.7399999999999856
0.5429989695549011,5.067244529724121,-4.514124393463135,2.7499999999999853
-0.21210193634033203,4.168431282043457,-4.666302680969238,2.759999999999985
-0.4383960962295532,3.2291316986083984,-4.4979963302612305,2.769999999999985
-0.5185731649398804,2.2063064575195312,-4.047745704650879,2.7799999999999847
-0.8281759023666382,1.3654241561889648,-3.7150051593780518,2.7899999999999845
-1.184086799621582,0.8601932525634766,-3.9598798751831055,2.7999999999999843
-1.61141037940979,0.5666918754577637,-4.215504169464111,2.809999999999984
-1.9047993421554565,0.3706703186035156,-4.376259803771973,2.819999999999984
-2.0764386653900146,0.10834121704101562,-4.627131462097168,2.8299999999999836
-2.1742758750915527,-0.20522642135620117,-4.733211994171143,2.8399999999999834
-2.2409324645996094,-0.49207258224487305,-4.795618534088135,2.849999999999983
-2.0453550815582275,-0.653594970703125,-4.685792446136475,2.859999999999983
-1.5009044408798218,-0.5262880325317383,-4.733438968658447,2.869999999999983
-0.9057979583740234,-0.07158374786376953,-4.989993095397949,2.8799999999999826
-0.4339195489883423,0.5024919509887695,-5.053872585296631,2.8899999999999824
-0.2486388087272644,0.9205303192138672,-4.760934352874756,2.899999999999982
-0.05054914951324463,1.242279052734375,-4.410832405090332,2.909999999999982
0.008354246616363525,1.3381872177124023,-4.111508369445801,2.9199999999999817
0.025159001350402832,1.2296667098999023,-3.9710850715637207,2.9299999999999815
0.08196449279785156,0.9427719116210938,-3.9606547355651855,2.9399999999999813
0.11913171410560608,0.754664421081543,-4.21588134765625,2.949999999999981
0.03766345977783203,0.8785409927368164,-4.08085298538208,2.959999999999981
-0.0570501983165741,1.264608383178711,-3.833987236022949,2.9699999999999807
-0.08762392401695251,1.1669721603393555,-3.293475866317749,2.9799999999999804
0.04522986710071564,0.8977193832397461,-2.8469972610473633,2.9899999999999802
-0.019000038504600525,0.7345142364501953,-2.6529366970062256,2.99999999999998
0.03554791212081909,0.7653512954711914,-2.3725321292877197,3.00999999999998
0.09754815697669983,0.8072652816772461,-2.163900136947632,3.0199999999999796
0.4555930495262146,1.0150766372680664,-2.120941162109375,3.0299999999999794
0.7544674873352051,1.774724006652832,-2.697202682495117,3.039999999999979
0.7631120681762695,2.2512426376342773,-2.7279505729675293,3.049999999999979
0.916632890701294,2.423922538757324,-2.1644392013549805,3.0599999999999787
1.0796589851379395,2.225339889526367,-0.6948599815368652,3.0699999999999785
0.5087918043136597,2.073375701904297,-1.8515241146087646,3.0799999999999783
0.22246800363063812,1.4993228912353516,-2.51638126373291,3.089999999999978
0.6373101472854614,1.0842056274414062,-3.6478254795074463,3.099999999999978
0.4433416724205017,1.2591800689697266,-4.70728063583374,3.1099999999999777
-0.023527026176452637,1.3093023300170898,-3.3905913829803467,3.1199999999999775
-0.012069284915924072,1.1061859130859375,-3.089656352996826,3.1299999999999772
0.502183198928833,0.22225666046142578,-2.695919990539551,3.139999999999977
0.5023210048675537,0.21308612823486328,-2.677274227142334,3.149999999999977
-0.3504210114479065,0.4232215881347656,-2.534608840942383,3.1599999999999766
-0.9135241508483887,0.6060676574707031,-2.3277604579925537,3.1699999999999764
-1.7985451221466064,0.9018793106079102,-2.4502220153808594,3.179999999999976
-2.484665870666504,1.0356731414794922,-2.22520112991333,3.189999999999976
-2.603329658508301,0.7774772644042969,-2.459517002105713,3.1999999999999758
-2.231323719024658,0.3081073760986328,-3.359135627746582,3.2099999999999755
-2.456968069076538,0.25682640075683594,-4.039422035217285,3.2199999999999753
-3.028510332107544,0.6524238586425781,-4.102694034576416,3.229999999999975
-3.472407102584839,1.0634870529174805,-3.4258055686950684,3.239999999999975
-2.8525519371032715,1.0861597061157227,-2.3188655376434326,3.2499999999999747
-1.9496188163757324,1.3317060470581055,-1.867577314376831,3.2599999999999745
-1.4670450687408447,2.103743553161621,-2.0660226345062256,3.2699999999999743
-1.3714402914047241,2.884611129760742,-2.3841705322265625,3.279999999999974
-2.2075626850128174,3.0732736587524414,-2.419800281524658,3.289999999999974
-2.1731982231140137,2.634641647338867,-1.8083562850952148,3.2999999999999736
-2.2274692058563232,1.7114686965942383,-1.2614250183105469,3.3099999999999734
-2.3819756507873535,1.1228933334350586,-0.7726359367370605,3.319999999999973
-2.591508626937866,0.6376171112060547,-0.24606990814208984,3.329999999999973
-2.8960678577423096,0.2449636459350586,-0.1823725700378418,3.3399999999999728
-2.9498403072357178,-0.04591655731201172,-0.30988597869873047,3.3499999999999726
-2.5192019939422607,-0.27418041229248047,-0.600377082824707,3.3599999999999723
-2.6967954635620117,-0.6253242492675781,-1.3009071350097656,3.369999999999972
-2.9545860290527344,-0.7039260864257812,-1.4269683361053467,3.379999999999972
-3.0859479904174805,-0.45040321350097656,-1.3590319156646729,3.3899999999999717
-3.6706666946411133,-0.1747589111328125,-1.5590720176696777,3.3999999999999715
-3.6989433765411377,0.4874382019042969,-1.2933096885681152,3.4099999999999713
-3.7863006591796875,1.0430841445922852,-1.1146149635314941,3.419999999999971
-3.635442018508911,1.1931219100952148,-1.2145206928253174,3.429999999999971
-3.410245418548584,1.0237197875976562,-1.1209344863891602,3.4399999999999706
-3.005486011505127,0.7203941345214844,-1.2166244983673096,3.4499999999999704
-3.1593453884124756,0.16457653045654297,-1.6230833530426025,3.45999999999997
-3.1642088890075684,-0.9176239967346191,-1.4019708633422852,3.46999999999997
-3.049250364303589,-1.2800607681274414,-0.9265227317810059,3.47999999999997
-2.9474050998687744,-1.7854022979736328,-0.930121898651123,3.4899999999999696
-2.8907058238983154,-2.038181781768799,-0.9988994598388672,3.4999999999999694
-2.8671727180480957,-2.1159820556640625,-1.144775390625,3.509999999999969
-2.958024740219116,-1.9304394721984863,-1.2448108196258545,3.519999999999969
-3.075305461883545,-1.5136513710021973,-1.4756674766540527,3.5299999999999687
-2.8490688800811768,-1.188981533050537,-1.6420457363128662,3.5399999999999685
-2.6746907234191895,-0.9844827651977539,-1.9627376794815063,3.5499999999999683
-2.6687188148498535,-0.9224834442138672,-2.2143607139587402,3.559999999999968
-2.698709726333618,-1.0055856704711914,-1.5459773540496826,3.569999999999968
-2.6410460472106934,-1.206151008605957,-1.1052846908569336,3.5799999999999677
-2.544806480407715,-1.2700457572937012,-0.8555252552032471,3.5899999999999674
-2.351263999938965,-1.0222959518432617,-0.747159481048584,3.5999999999999672
-1.9189059734344482,-0.36946582794189453,-0.6996119022369385,3.609999999999967
-1.8363142013549805,0.14740657806396484,-0.7615268230438232,3.619999999999967
-1.752751111984253,0.7267589569091797,-0.980789303779602,3.6299999999999666
-1.7352726459503174,1.1196260452270508,-1.0156443119049072,3.6399999999999664
-1.8644726276397705,1.2974605560302734,-0.9058688879013062,3.649999999999966
-2.173046350479126,1.3797664642333984,-0.8526477813720703,3.659999999999966
-2.4628024101257324,1.6132278442382812,-0.5980093479156494,3.6699999999999657
-2.9475252628326416,1.9217395782470703,-0.7329902648925781,3.6799999999999655
-3.358659505844116,2.3202428817749023,-0.637563943862915,3.6899999999999653
-3.4194869995117188,2.1324234008789062,-0.03589034080505371,3.699999999999965
-3.2209324836730957,1.1860065460205078,0.2537095546722412,3.709999999999965
-2.879080295562744,-0.1320781707763672,0.49642229080200195,3.7199999999999647
-2.3812642097473145,-1.213301658630371,1.019491195678711,3.7299999999999645
-1.9318645000457764,-1.773637294769287,0.5724773406982422,3.7399999999999642
-1.7423524856567383,-2.1066088676452637,-0.3405449390411377,3.749999999999964
-1.1959724426269531,-1.9275050163269043,-1.2737957239151,3.759999999999964
-0.8190654516220093,-1.9106736183166504,-2.0473783016204834,3.7699999999999636
-0.8838047981262207,-1.5285634994506836,-2.018972396850586,3.7799999999999634
-1.2346222400665283,-0.3954143524169922,-0.30582165718078613,3.789999999999963
-1.6182578802108765,0.4679527282714844,0.31802892684936523,3.799999999999963
-2.362429618835449,1.0747699737548828,1.1622536182403564,3.8099999999999627
-3.096357822418213,1.3708295822143555,1.610503911972046,3.8199999999999625
-3.539674758911133,1.4405231475830078,1.4262237548828125,3.8299999999999623
-3.7296271324157715,1.4128761291503906,0.8809671401977539,3.839999999999962
-3.9120030403137207,1.5951414108276367,0.8423969745635986,3.849999999999962
-3.583587169647217,1.503626823425293,1.041459321975708,3.8599999999999617
-3.618082046508789,1.5136995315551758,1.023240327835083,3.8699999999999615
-1.917515754699707,0.5614633560180664,0.6059324741363525,3.8799999999999613
-1.3982397317886353,0.17143726348876953,0.14322113990783691,3.889999999999961
-0.8886885643005371,0.02126312255859375,-0.07331538200378418,3.899999999999961
-0.47101277112960815,-0.0010700225830078125,-0.3466982841491699,3.9099999999999606
-0.13722503185272217,-0.0010519027709960938,-0.442213773727417,3.9199999999999604
0.11160600185394287,-0.031192779541015625,-0.4112555980682373,3.92999999999996
0.24985098838806152,-0.10306644439697266,-0.4276432991027832,3.93999999999996
0.18750810623168945,-0.29730701446533203,-0.4404175281524658,3.9499999999999598
0.39876675605773926,-0.43126964569091797,-0.5034580230712891,3.9599999999999596
0.397607684135437,-0.207733154296875,-0.9927136898040771,3.9699999999999593
-0.14979827404022217,0.16266250610351562,-1.5808460712432861,3.979999999999959
-0.4466690421104431,0.5203304290771484,-0.8152782917022705,3.989999999999959
-0.5466291308403015,0.5793218612670898,0.2182760238647461,3.9999999999999587
-0.4136750102043152,0.24748706817626953,0.5193865299224854,4.009999999999959
-0.6216782927513123,0.15984821319580078,0.09492993354797363,4.019999999999959
-1.050983190536499,0.18907737731933594,-0.13688063621520996,4.0299999999999585
-1.2893866300582886,0.3578662872314453,-0.12999653816223145,4.039999999999958
-1.3151881694793701,0.5613489151000977,-0.45662689208984375,4.049999999999958
-1.5086112022399902,0.4256772994995117,-0.43192195892333984,4.059999999999958
-1.5439317226409912,0.28354358673095703,-0.3270535469055176,4.069999999999958
-1.7100640535354614,0.2852010726928711,-0.35515332221984863,4.079999999999957
-1.567755103111267,0.2571249008178711,-0.07215237617492676,4.089999999999957
-1.718192458152771,0.11989784240722656,-0.42656636238098145,4.099999999999957
-1.7924106121063232,0.014159202575683594,-0.31236743927001953,4.109999999999957
-1.94370436668396,-0.02820110321044922,0.04090118408203125,4.119999999999957
-2.2641944885253906,-0.016191482543945312,0.8994064331054688,4.129999999999956
-2.5820960998535156,-0.013835906982421875,0.9568204879760742,4.139999999999956
-2.8973546028137207,-0.0294036865234375,0.5783915519714355,4.149999999999956
-2.609832286834717,-0.11791610717773438,0.3317234516143799,4.159999999999956
-2.23404598236084,-0.3098917007446289,0.01172637939453125,4.1699999999999555
-2.113225221633911,-0.557098388671875,0.25295305252075195,4.179999999999955
-1.9482717514038086,-0.7535018920898438,0.7406272888183594,4.189999999999955
-1.6774272918701172,-0.8341026306152344,1.0837137699127197,4.199999999999955
-1.735863447189331,-0.6227502822875977,1.5225865840911865,4.209999999999955
-1.7744379043579102,-0.5460748672485352,1.7066528797149658,4.2199999999999545
-1.730991244316101,-0.5206394195556641,1.7183878421783447,4.229999999999954
-1.5560075044631958,-0.4937601089477539,1.4143636226654053,4.239999999999954
-1.9134142398834229,-0.39591217041015625,1.3946642875671387,4.249999999999954
-1.7852075099945068,-0.008733749389648438,1.1636204719543457,4.259999999999954
-0.6506026983261108,1.2380237579345703,-0.27069950103759766,4.269999999999953
-2.359454393386841,1.1966276168823242,0.12350583076477051,4.279999999999953
-2.125858783721924,0.1490650177001953,1.300133466720581,4.289999999999953
-1.5689935684204102,-0.2978935241699219,0.4873504638671875,4.299999999999953
-1.8354134559631348,-0.47008419036865234,0.517420768737793,4.3099999999999525
-2.405453681945801,-0.36444664001464844,0.910165548324585,4.319999999999952
-3.0747756958007812,-0.4987497329711914,0.8154890537261963,4.329999999999952
-3.2128872871398926,-0.7101364135742188,1.0775196552276611,4.339999999999952
-3.4335315227508545,-0.7271480560302734,0.8952744007110596,4.349999999999952
-5.998981475830078,-1.0124340057373047,-3.1274101734161377,4.3599999999999515
-2.5090208053588867,-0.7482748031616211,2.3135881423950195,4.369999999999951
-1.9027961492538452,-0.9540748596191406,1.9440553188323975,4.379999999999951
-0.8385958075523376,-0.6693458557128906,1.4283816814422607,4.389999999999951
-1.238209843635559,-0.4220447540283203,0.5827929973602295,4.399999999999951
-2.322187662124634,-0.30864524841308594,0.5324084758758545,4.40999999999995
-2.5277457237243652,-0.20358848571777344,0.3903229236602783,4.41999999999995
-1.9518170356750488,-0.09479045867919922,0.46619224548339844,4.42999999999995
-1.4997963905334473,0.1704082489013672,0.40415287017822266,4.43999999999995
-1.6529814004898071,0.30120086669921875,0.6126110553741455,4.4499999999999496
-2.0616087913513184,0.20691680908203125,0.46337342262268066,4.459999999999949
-2.4192018508911133,0.1607532501220703,0.3643651008605957,4.469999999999949
-2.7560930252075195,-0.18814468383789062,0.6969304084777832,4.479999999999949
-2.468092441558838,-0.4662494659423828,0.3234560489654541,4.489999999999949
-1.8056048154830933,-0.7005748748779297,0.6436772346496582,4.4999999999999485
-1.6731369495391846,-0.6899614334106445,0.7251191139221191,4.509999999999948
-1.7031478881835938,-0.709050178527832,0.7142326831817627,4.519999999999948
-1.880007028579712,-0.5310583114624023,0.37535786628723145,4.529999999999948
-2.193957805633545,-0.44565868377685547,0.2886519432067871,4.539999999999948
-2.353226661682129,-0.4370307922363281,0.3775005340576172,4.549999999999947
-2.237372636795044,-0.1381998062133789,0.3605499267578125,4.559999999999947
-2.062854528427124,-0.19778156280517578,0.6419811248779297,4.569999999999947
-1.8848882913589478,-0.08918285369873047,0.3931267261505127,4.579999999999947
-1.6911460161209106,-0.1431264877319336,0.5484592914581299,4.589999999999947
-1.8861291408538818,0.17711925506591797,0.5393288135528564,4.599999999999946
-2.544846296310425,0.5409603118896484,0.4120664596557617,4.609999999999946
-2.5475966930389404,0.31876182556152344,0.6766114234924316,4.619999999999946
-2.4955697059631348,0.016015052795410156,0.5429553985595703,4.629999999999946
-2.618765115737915,-0.2769756317138672,0.6809372901916504,4.6399999999999455
-2.4990148544311523,-0.2485513687133789,0.7203404903411865,4.649999999999945
-2.6372222900390625,0.06268119812011719,0.5281367301940918,4.659999999999945
-2.8734593391418457,0.2852134704589844,0.668283224105835,4.669999999999945
-3.494096517562866,0.3188180923461914,0.5634007453918457,4.679999999999945
-2.9706473350524902,-0.009125709533691406,0.620356559753418,4.689999999999944
-3.0725436210632324,0.19936370849609375,1.0659234523773193,4.699999999999944
-2.7987263202667236,0.3602571487426758,0.18606781959533691,4.709999999999944
-0.9785966873168945,-0.1323833465576172,-1.6225471496582031,4.719999999999944
0.12518608570098877,-0.93438720703125,-1.467427372932434,4.729999999999944
-0.39012205600738525,-1.1781244277954102,-0.7363598346710205,4.739999999999943
-1.8554115295410156,-0.7037029266357422,-0.10616016387939453,4.749999999999943
-2.459935188293457,-0.17934226989746094,0.29017138481140137,4.759999999999943
-2.4744389057159424,0.23160171508789062,0.32192277908325195,4.769999999999943
-2.2790558338165283,0.28649044036865234,0.1902158260345459,4.7799999999999425
-2.318619728088379,0.36730003356933594,0.2526841163635254,4.789999999999942
-3.029094696044922,0.5493974685668945,0.4248836040496826,4.799999999999942
-3.2969868183135986,0.8907365798950195,0.9159998893737793,4.809999999999942
-2.807581901550293,0.9614267349243164,1.0750401020050049,4.819999999999942
-1.8632922172546387,0.639617919921875,0.25344419479370117,4.8299999999999415
-1.2752898931503296,-0.022533416748046875,0.22381019592285156,4.839999999999941
-1.3352525234222412,-0.4339427947998047,0.6117017269134521,4.849999999999941
-1.2246553897857666,-0.45960426330566406,0.446138858795166,4.859999999999941
-1.1313743591308594,-0.4409627914428711,0.07902812957763672,4.869999999999941
-1.598602056503296,-0.21571731567382812,0.11948204040527344,4.87999999999994
-2.086970090866089,-0.3658123016357422,-0.20287132263183594,4.88999999999994
-1.6198362112045288,-0.4214210510253906,0.1796131134033203,4.89999999999994
-0.5625185966491699,-0.46709346771240234,0.053160667419433594,4.90999999999994
0.027495861053466797,-0.3980522155761719,-0.1526031494140625,4.9199999999999395
-0.30809152126312256,0.08796310424804688,0.15506649017333984,4.929999999999939
-1.113694667816162,0.35598278045654297,0.636315107345581,4.939999999999939
-1.6917574405670166,0.5693244934082031,0.9243464469909668,4.949999999999939
-2.1466431617736816,0.6712350845336914,1.0187053680419922,4.959999999999939
-2.1852033138275146,0.6654319763183594,1.0240302085876465,4.9699999999999385
-2.0457656383514404,0.28429222106933594,0.6420886516571045,4.979999999999938
-1.4853579998016357,-0.3166332244873047,0.6168184280395508,4.989999999999938
-1.0876076221466064,-0.6105318069458008,0.2778913974761963,4.999999999999938
-2.297206401824951,-0.10748767852783203,-0.322160005569458,5.009999999999938
-1.5275230407714844,0.4913187026977539,0.6121091842651367,5.019999999999937
-1.4656373262405396,0.6360025405883789,0.25937771797180176,5.029999999999937
-1.5244032144546509,0.5162811279296875,0.054766178131103516,5.039999999999937
-1.805964469909668,0.24603557586669922,0.3384668827056885,5.049999999999937
-1.7890642881393433,0.142120361328125,1.0773983001708984,5.0599999999999365
-1.8766521215438843,0.5109586715698242,0.7104916572570801,5.069999999999936
-3.1152737140655518,0.8219766616821289,0.8815016746520996,5.079999999999936
-3.4472591876983643,1.1477785110473633,0.858823299407959,5.089999999999936
-2.1843998432159424,0.9129304885864258,0.7648954391479492,5.099999999999936
-1.4437432289123535,0.4422435760498047,0.9223320484161377,5.1099999999999355
-1.1631100177764893,0.05149364471435547,0.39218711853027344,5.119999999999935
0.10117840766906738,-0.5356254577636719,0.24520564079284668,5.129999999999935
-0.2553112506866455,-0.898890495300293,0.42159056663513184,5.139999999999935
1.2195022106170654,-0.22722721099853516,0.8362998962402344,5.149999999999935
-1.073805809020996,0.2810192108154297,-0.07175016403198242,5.159999999999934
-0.5866637229919434,-0.02012157440185547,0.982611894607544,5.169999999999934
-1.686655044555664,0.1642589569091797,0.8416283130645752,5.179999999999934
-2.8275718688964844,0.6142759323120117,0.9386370182037354,5.189999999999934
-3.8897624015808105,0.46634483337402344,1.095766305923462,5.199999999999934
-3.3894431591033936,0.26460838317871094,0.8117151260375977,5.209999999999933
-3.2182393074035645,-0.1159658432006836,1.0839684009552002,5.219999999999933
-3.2162880897521973,-0.1493206024169922,0.8430929183959961,5.229999999999933
-2.7949929237365723,-0.18846893310546875,-0.7287325859069824,5.239999999999933
-2.5623700618743896,0.5544071197509766,0.19269204139709473,5.2499999999999325
-4.0858354568481445,1.3975181579589844,0.6904335021972656,5.259999999999932
-1.8477988243103027,1.1301603317260742,0.645646333694458,5.269999999999932
-2.967785358428955,2.0937461853027344,1.8425865173339844,5.279999999999932
-0.01312553882598877,0.9558029174804688,-1.3807897567749023,5.289999999999932
-2.1625092029571533,1.6681480407714844,-1.7034209966659546,5.299999999999931
-6.819582939147949,3.439642906188965,0.5954835414886475,5.309999999999931
0.6571850776672363,-0.19632625579833984,-1.0649757385253906,5.319999999999931
-0.7435925006866455,-1.7213497161865234,4.504275321960449,5.329999999999931
-1.1360702514648438,-1.398390769958496,1.1440985202789307,5.339999999999931
-1.058437466621399,-0.92120361328125,0.5137104988098145,5.34999999999993
-1.623784065246582,0.24894428253173828,1.7241902351379395,5.35999999999993
-1.311776876449585,-0.5040912628173828,0.9101912975311279,5.36999999999993
-1.57426118850708,0.7873544692993164,0.7974941730499268,5.37999999999993
-0.7306381464004517,-0.16449737548828125,1.3242871761322021,5.3899999999999295
-1.1101412773132324,-0.3417348861694336,1.554994821548462,5.399999999999929
-2.5591275691986084,3.110614776611328,0.6397461891174316,5.409999999999929
-3.436434745788574,3.0474233627319336,-0.9224104881286621,5.419999999999929
-1.563859462738037,1.2134761810302734,0.842041015625,5.429999999999929
-2.990269899368286,0.7458696365356445,1.3624677658081055,5.4399999999999284
-3.5015108585357666,1.0730781555175781,-0.6928722858428955,5.449999999999928
-3.0049870014190674,0.7497930526733398,-0.3166775703430176,5.459999999999928
-2.355475425720215,2.0909271240234375,0.8676885366439819,5.469999999999928
-1.904967188835144,0.6287832260131836,3.1818900108337402,5.479999999999928
-1.359417200088501,1.1290349960327148,0.4440802335739136,5.489999999999927
-1.4182491302490234,1.1279611587524414,0.5643713474273682,5.499999999999927
-1.8537219762802124,1.0808467864990234,-0.02861607074737549,5.509999999999927
-1.5565913915634155,0.38983631134033203,0.3049015998840332,5.519999999999927
-1.3559030294418335,0.7376441955566406,0.11619043350219727,5.5299999999999265
-1.401987075805664,0.8398942947387695,-0.41666483879089355,5.539999999999926
-1.5794061422348022,0.5398101806640625,0.23351997137069702,5.549999999999926
-1.851029872894287,0.28359127044677734,0.36281806230545044,5.559999999999926
-1.3356784582138062,-0.48477935791015625,0.48574090003967285,5.569999999999926
-0.9921519756317139,-0.6887054443359375,0.3126674294471741,5.5799999999999255
-1.8736236095428467,0.4398355484008789,-0.17254069447517395,5.589999999999925
-1.8025367259979248,0.6282472610473633,-0.03998833894729614,5.599999999999925
-1.9094642400741577,0.6711454391479492,0.15077894926071167,5.609999999999925
-1.932087779045105,0.9351310729980469,-0.41636836528778076,5.619999999999925
-1.9036506414413452,0.13008689880371094,-0.3434261977672577,5.629999999999924
-2.027803421020508,0.1785287857055664,-0.2848711311817169,5.639999999999924
-1.5540525913238525,1.1974725723266602,0.3530799150466919,5.649999999999924
-1.6715829372406006,1.2480792999267578,0.38528764247894287,5.659999999999924
-1.6361699104309082,0.6200618743896484,0.3001810908317566,5.6699999999999235
-2.057734966278076,0.7057428359985352,0.9844086170196533,5.679999999999923
-2.3407082557678223,0.8147821426391602,1.2307214736938477,5.689999999999923
-2.4934380054473877,0.7467870712280273,1.5229378938674927,5.699999999999923
-2.6816086769104004,0.8183212280273438,1.7911964654922485,5.709999999999923
-2.7889769077301025,1.1199684143066406,1.2703808546066284,5.7199999999999225
-2.740774631500244,1.3032169342041016,0.8338127136230469,5.729999999999922
-2.51134991645813,0.991119384765625,1.1630921363830566,5.739999999999922
-2.631044626235962,0.7920751571655273,1.3651372194290161,5.749999999999922
-2.618537425994873,0.5819797515869141,1.460721731185913,5.759999999999922
-2.17383074760437,0.2053060531616211,0.7311196327209473,5.769999999999921
-1.8420991897583008,0.3984375,-0.25033992528915405,5.779999999999921
-1.4490017890930176,0.6612548828125,-0.6377222537994385,5.789999999999921
-1.093095302581787,1.068380355834961,-1.6563535928726196,5.799999999999921
-1.272552490234375,0.8062419891357422,-1.782880187034607,5.809999999999921
-2.57216477394104,-0.004019737243652344,1.828059434890747,5.81999999999992
-1.8020031452178955,0.10747003555297852,2.562896251678467,5.82999999999992
-1.5050554275512695,0.4315981864929199,2.0440876483917236,5.83999999999992
-1.2711129188537598,0.6780786514282227,1.8553645610809326,5.84999999999992
-1.1754531860351562,0.8575882911682129,2.062272071838379,5.8599999999999195
-0.8387885093688965,0.47868776321411133,1.995922327041626,5.869999999999919
-0.5816154479980469,0.35480356216430664,2.096796989440918,5.879999999999919
-0.3926382064819336,-0.017066001892089844,2.3621463775634766,5.889999999999919
-0.1263566017150879,-0.07910871505737305,2.1954643726348877,5.899999999999919
0.1162419319152832,0.24905967712402344,1.2474043369293213,5.909999999999918
0.18976926803588867,0.1786351203918457,0.3919484615325928,5.919999999999918
0.21696710586547852,0.30594921112060547,-0.3967750072479248,5.929999999999918
-0.04082202911376953,0.7244987487792969,-0.946855902671814,5.939999999999918
0.03970766067504883,0.5002446174621582,-0.8886810541152954,5.949999999999918
0.19960451126098633,0.09021615982055664,-0.825629472732544,5.959999999999917
0.23384857177734375,0.06452798843383789,-0.5940451622009277,5.969999999999917
0.3286929130554199,0.1352853775024414,-0.17047333717346191,5.979999999999917
0.1308116912841797,-0.22998332977294922,-0.3148655891418457,5.989999999999917
0.22911596298217773,-0.3854026794433594,-0.40478014945983887,5.9999999999999165
0.09749412536621094,-0.45215797424316406,-0.7764906883239746,6.009999999999916
-0.01045370101928711,-0.23600101470947266,-1.0705513954162598,6.019999999999916
-0.15259408950805664,-0.0934762954711914,-0.9269342422485352,6.029999999999916
-0.5086746215820312,0.3314499855041504,-1.4287769794464111,6.039999999999916
-0.713984489440918,0.367581844329834,-1.883025884628296,6.0499999999999154
-0.8824677467346191,0.02618265151977539,-2.666355609893799,6.059999999999915
-0.8364143371582031,0.13171768188476562,-2.83001708984375,6.069999999999915
-1.7774763107299805,-0.08136844635009766,-3.4160268306732178,6.079999999999915
-1.698171615600586,0.03445243835449219,-3.6031577587127686,6.089999999999915
-2.2331173419952393,0.07602167129516602,-2.9109294414520264,6.099999999999914
-1.7318713665008545,0.23566341400146484,-2.343924045562744,6.109999999999914
-2.1181204319000244,0.3115835189819336,-2.893145799636841,6.119999999999914
-1.7825419902801514,0.26519775390625,-4.085834503173828,6.129999999999914
-0.6961932182312012,0.7158637046813965,-1.5357465744018555,6.1399999999999135
-1.0897412300109863,-0.43633127212524414,0.22593975067138672,6.149999999999913
-0.7118849754333496,-0.2976250648498535,0.3619976043701172,6.159999999999913
-0.48899412155151367,-0.19852781295776367,0.18636035919189453,6.169999999999913
-0.4617311954498291,0.5219597816467285,0.3700289726257324,6.179999999999913
-0.1577613353729248,1.5766229629516602,-0.14143848419189453,6.1899999999999125
-0.16731595993041992,1.8329219818115234,-0.7195620536804199,6.199999999999912
-0.6080676317214966,1.281141757965088,-1.7613201141357422,6.209999999999912
-0.5069557428359985,1.3697590827941895,-1.84930419921875,6.219999999999912
0.15455389022827148,0.8145499229431152,-1.3409767150878906,6.229999999999912
0.2642097473144531,1.0556559562683105,-1.8285861015319824,6.239999999999911
0.30054402351379395,1.2486200332641602,-0.3911738395690918,6.249999999999911
-0.09143829345703125,1.175309181213379,0.9145030975341797,6.259999999999911
-0.7153542041778564,1.1566147804260254,0.5513916015625,6.269999999999911
-0.6893739700317383,1.256354808807373,-0.3677949905395508,6.2799999999999105
-0.20780539512634277,1.3614559173583984,-0.9832377433776855,6.28999999999991
-0.19841301441192627,1.515951156616211,-1.2861347198486328,6.29999999999991
-0.40066564083099365,1.7697782516479492,-0.8209280967712402,6.30999999999991
-0.7455942034721375,1.840693473815918,-0.32685375213623047,6.31999999999991
-0.9874312877655029,1.6404778957366943,-0.061634063720703125,6.3299999999999095
-0.1878979206085205,1.4671251773834229,-0.08629608154296875,6.339999999999909
0.3007315397262573,1.4718098640441895,-0.486541748046875,6.349999999999909
0.16704392433166504,1.619382619857788,-0.9121847152709961,6.359999999999909
-0.0971980094909668,1.52561616897583,-1.5370573997497559,6.369999999999909
0.14124882221221924,1.2771484851837158,-1.9659404754638672,6.379999999999908
0.07531392574310303,1.2923698425292969,-1.8333802223205566,6.389999999999908
-0.3988591432571411,1.4096202850341797,-1.3564386367797852,6.399999999999908
-0.6149301528930664,1.5083510875701904,-0.9696769714355469,6.409999999999908
-0.916811466217041,1.589118480682373,-0.9699726104736328,6.419999999999908
-0.8078166246414185,1.6510131359100342,-0.5152759552001953,6.429999999999907
-0.640326976776123,1.7228801250457764,-0.5482473373413086,6.439999999999907
-0.2705632746219635,1.3936035633087158,-0.15017223358154297,6.449999999999907
0.22749783098697662,1.0012624263763428,-0.3395204544067383,6.459999999999907
0.9072973728179932,0.6252033710479736,-0.44867706298828125,6.4699999999999065
0.8337000608444214,0.697528600692749,-0.22265338897705078,6.479999999999906
0.23298223316669464,0.9873251914978027,0.12104988098144531,6.489999999999906
-0.13698530197143555,1.3342952728271484,0.27698230743408203,6.499999999999906
-0.8242708444595337,1.9372432231903076,0.6106462478637695,6.509999999999906
-1.5279744863510132,2.456552267074585,0.5764951705932617,6.519999999999905
-1.1643556356430054,2.308898448944092,-0.24173259735107422,6.529999999999905
-0.18039512634277344,1.6880178451538086,-1.1846656799316406,6.539999999999905
-0.20259630680084229,1.275651216506958,-1.3811631202697754,6.549999999999905
-0.3070720434188843,1.1247968673706055,-1.1395282745361328,6.559999999999905
-0.30449724197387695,1.2072951793670654,-0.7807369232177734,6.569999999999904
0.02313441038131714,1.3410508632659912,-0.6182794570922852,6.579999999999904
-0.06767374277114868,1.7200257778167725,-0.5586223602294922,6.589999999999904
-0.1311262845993042,1.775484561920166,-0.27537059783935547,6.599999999999904
-0.14129847288131714,1.7543950080871582,-0.2693805694580078,6.6099999999999035
-0.025392591953277588,1.394209861755371,-0.5993375778198242,6.619999999999903
-0.0898813009262085,1.231496810913086,-0.7481613159179688,6.629999999999903
-0.33479952812194824,1.5108015537261963,-0.6508245468139648,6.639999999999903
-0.30971455574035645,1.7436535358428955,-0.9184942245483398,6.649999999999903
-0.1053268313407898,1.7556753158569336,-1.1965951919555664,6.659999999999902
0.1428050994873047,1.535712718963623,-1.0534591674804688,6.669999999999902
0.21988928318023682,1.4452354907989502,-0.6472253799438477,6.679999999999902
0.2650623917579651,1.3585796356201172,-0.3610076904296875,6.689999999999902
0.5432164669036865,1.1682817935943604,-0.2600841522216797,6.699999999999902
0.49837440252304077,1.0428683757781982,-0.2153482437133789,6.709999999999901
0.2415522336959839,1.1437265872955322,-0.4110088348388672,6.719999999999901
0.13812386989593506,1.2578344345092773,-0.6473703384399414,6.729999999999901
0.024237096309661865,1.4032807350158691,-0.7469491958618164,6.739999999999901
-0.16821235418319702,1.5798470973968506,-0.8627481460571289,6.7499999999999005
-0.13383495807647705,1.6598820686340332,-0.9197187423706055,6.7599999999999
-0.25571268796920776,1.73777174949646,-1.095001220703125,6.7699999999999
-0.2728004455566406,1.7013986110687256,-1.035482406616211,6.7799999999999
-0.19489705562591553,1.6405656337738037,-0.9294929504394531,6.7899999999999
-0.19422322511672974,1.6300835609436035,-0.9255132675170898,6.7999999999998995
-0.01322948932647705,1.3191969394683838,-0.36217689514160156,6.809999999999899
-0.3045373558998108,1.4169921875,-0.48207855224609375,6.819999999999899
-0.2669742703437805,1.6415281295776367,-0.7188606262207031,6.829999999999899
-0.2738645076751709,1.6300995349884033,-0.7151098251342773,6.839999999999899
-0.24299895763397217,1.9293570518493652,-1.1845169067382812,6.849999999999898
-0.23466527462005615,1.7916226387023926,-0.9783115386962891,6.859999999999898
-0.27192413806915283,1.6334240436553955,-0.7770853042602539,6.869999999999898
-0.1451423168182373,1.4686181545257568,-0.8713722229003906,6.879999999999898
-0.15038341283798218,1.4601140022277832,-0.8684959411621094,6.8899999999998975
-0.032363712787628174,1.1942291259765625,-0.38289833068847656,6.899999999999897
0.08425909280776978,1.0899393558502197,-0.2262401580810547,6.909999999999897
0.17753934860229492,1.0988452434539795,-0.35212230682373047,6.919999999999897
0.16354048252105713,1.2389109134674072,-0.4707622528076172,6.929999999999897
0.1155705451965332,1.358353614807129,-0.5555400848388672,6.9399999999998965
0.010358989238739014,1.4266357421875,-0.7432985305786133,6.949999999999896
-0.03983795642852783,1.4511592388153076,-0.938568115234375,6.959999999999896
-0.18412870168685913,1.4101083278656006,-1.0716562271118164,6.969999999999896
-0.32205891609191895,1.3427479267120361,-1.1427326202392578,6.979999999999896
-0.35523951053619385,1.2447724342346191,-0.9456815719604492,6.989999999999895
-0.2950823903083801,1.161485195159912,-0.9229822158813477,6.999999999999895
-0.1352331042289734,1.1397795677185059,-0.8275289535522461,7.009999999999895
-0.002215862274169922,1.1293699741363525,-0.6546792984008789,7.019999999999895
-0.005383968353271484,1.201063632965088,-0.653900146484375,7.0299999999998946
0.018711447715759277,1.3169934749603271,-0.715907096862793,7.039999999999894
0.14241325855255127,1.4429731369018555,-0.7591915130615234,7.049999999999894
0.21215486526489258,1.5356285572052002,-0.7212400436401367,7.059999999999894
0.0011314749717712402,1.5997893810272217,-0.8011398315429688,7.069999999999894
-0.07819825410842896,1.4938833713531494,-0.8025894165039062,7.0799999999998935
-0.19424313306808472,1.2512342929840088,-0.8450918197631836,7.089999999999893
-0.284233033657074,1.1499388217926025,-0.8567094802856445,7.099999999999893
-0.3284064531326294,1.1487891674041748,-0.89666748046875,7.109999999999893
-0.2016505002975464,1.1469974517822266,-0.864079475402832,7.119999999999893
-0.1289513111114502,1.2220525741577148,-0.8931818008422852,7.129999999999892
-0.05590522289276123,1.332235336303711,-0.8410987854003906,7.139999999999892
0.12684553861618042,1.454049825668335,-0.7298011779785156,7.149999999999892
0.18652623891830444,1.4480082988739014,-0.6167440414428711,7.159999999999892
0.06388825178146362,1.464301347732544,-0.6121644973754883,7.169999999999892
-0.07475906610488892,1.4296393394470215,-0.5479984283447266,7.179999999999891
-0.03618776798248291,1.21163010597229,-0.6369171142578125,7.189999999999891
-0.07730817794799805,1.1491520404815674,-0.7346735000610352,7.199999999999891
-0.29650890827178955,1.135974407196045,-0.6788740158081055,7.209999999999891
-0.26438623666763306,1.1272563934326172,-0.6131687164306641,7.2199999999998905
-0.046808719635009766,1.1240901947021484,-0.6686286926269531,7.22999999999989
-0.03390002250671387,1.2246708869934082,-0.6704740524291992,7.23999999999989
0.08171641826629639,1.2313663959503174,-0.6430044174194336,7.24999999999989
0.09499013423919678,1.1725337505340576,-0.5313186645507812,7.25999999999989
0.07876229286193848,1.069282054901123,-0.3808403015136719,7.269999999999889
0.0703689455986023,1.1151549816131592,-0.4213390350341797,7.279999999999889
-0.10178369283676147,1.1375205516815186,-0.5020036697387695,7.289999999999889
-0.1651899218559265,1.1040127277374268,-0.7191066741943359,7.299999999999889
-0.3464169502258301,1.6298041343688965,-0.863215446472168,7.309999999999889
-0.8108781576156616,1.7220585346221924,-2.3029794692993164,7.319999999999888
-0.11066710948944092,1.8834059238433838,-1.430130958557129,7.329999999999888
0.05106478929519653,1.6359694004058838,-1.0344123840332031,7.339999999999888
0.055398643016815186,1.5837070941925049,-0.5110292434692383,7.349999999999888
0.27926599979400635,1.3741111755371094,-0.20952701568603516,7.3599999999998875
0.3610994517803192,1.2018630504608154,-0.3694648742675781,7.369999999999887
0.1735967993736267,1.1543004512786865,-0.544184684753418,7.379999999999887
0.11367899179458618,1.1510663032531738,-0.598668098449707,7.389999999999887
0.21992194652557373,1.2060701847076416,-0.45090675354003906,7.399999999999887
0.11244380474090576,1.4124574661254883,-0.342376708984375,7.4099999999998865
-0.03733932971954346,1.5858681201934814,-0.6911287307739258,7.419999999999886
-0.23058032989501953,1.5804364681243896,-0.7243318557739258,7.429999999999886
-0.4138050079345703,1.5811984539031982,-0.7536611557006836,7.439999999999886
-0.6252627372741699,1.460543155670166,-1.0503826141357422,7.449999999999886
-0.6267338395118713,1.4569265842437744,-1.0489435195922852,7.459999999999885
-0.5565335750579834,1.4530303478240967,-1.2088274955749512,7.469999999999885
-0.49414128065109253,1.6491518020629883,-1.013209342956543,7.479999999999885
-0.10338163375854492,1.5835604667663574,-0.6993503570556641,7.489999999999885
0.049537837505340576,1.3079535961151123,-0.606257438659668,7.4999999999998845
0.08574402332305908,1.0006577968597412,-0.41408634185791016,7.509999999999884
0.08611446619033813,0.9019627571105957,-0.4066448211669922,7.519999999999884
-0.0880081057548523,0.8939197063446045,-0.4480171203613281,7.529999999999884
-0.0364261269569397,1.0416502952575684,-0.5070400238037109,7.539999999999884
-0.14242476224899292,1.2300028800964355,-0.6049537658691406,7.5499999999998835
-0.13276809453964233,1.4489214420318604,-0.7474546432495117,7.559999999999883
-0.15386098623275757,1.4946858882904053,-0.8077411651611328,7.569999999999883
-0.19797676801681519,1.3190944194793701,-0.759307861328125,7.579999999999883
-0.23350465297698975,1.3084652423858643,-0.5571565628051758,7.589999999999883
-0.10784077644348145,1.2827670574188232,-0.2823486328125,7.599999999999882
-0.09252339601516724,1.0959725379943848,-0.21069812774658203,7.609999999999882
-0.1528668999671936,1.165149211883545,-0.2940540313720703,7.619999999999882
-0.14718246459960938,1.1983158588409424,-0.46665096282958984,7.629999999999882
-0.1255894899368286,1.2015907764434814,-0.6787662506103516,7.6399999999998816
-0.10556036233901978,1.2248263359069824,-0.6822671890258789,7.649999999999881
0.0873832106590271,1.1053338050842285,-0.7028474807739258,7.659999999999881
0.1562056541442871,1.0524399280548096,-0.7694435119628906,7.669999999999881
0.22861230373382568,0.9490082263946533,-0.7601528167724609,7.679999999999881
0.18508416414260864,1.0213468074798584,-0.7666292190551758,7.6899999999998805
0.11839026212692261,1.081787347793579,-0.6422834396362305,7.69999999999988
0.10389363765716553,1.1322462558746338,-0.5043401718139648,7.70999999999988
0.10765409469604492,1.0869536399841309,-0.3400888442993164,7.71999999999988
-0.011109888553619385,1.100583553314209,-0.32171630859375,7.72999999999988
-0.06825590133666992,1.077056646347046,-0.3907585144042969,7.739999999999879
-0.11674892902374268,1.1743676662445068,-0.6203413009643555,7.749999999999879
-0.2152174711227417,1.3296489715576172,-0.6342477798461914,7.759999999999879
-0.1437947154045105,1.3106663227081299,-0.5242128372192383,7.769999999999879
-0.07845759391784668,1.3163542747497559,-0.49485015869140625,7.779999999999879
-0.0999402403831482,1.2449138164520264,-0.5587234497070312,7.789999999999878
-0.15736091136932373,1.1560416221618652,-0.5888214111328125,7.799999999999878
-0.2221812605857849,1.2195751667022705,-0.7311525344848633,7.809999999999878
-0.1770017147064209,1.238905906677246,-0.8225803375244141,7.819999999999878
-0.18172281980514526,1.299452543258667,-0.7894487380981445,7.8299999999998775
-0.07003635168075562,1.323615550994873,-0.6348114013671875,7.839999999999877
0.002131342887878418,1.3493361473083496,-0.5429096221923828,7.849999999999877
-0.02708810567855835,1.4020395278930664,-0.47527027130126953,7.859999999999877
0.0357283353805542,1.3170769214630127,-0.4275846481323242,7.869999999999877
-0.009089231491088867,1.2146120071411133,-0.46715831756591797,7.879999999999876
-0.014177203178405762,1.2181549072265625,-0.46898365020751953,7.889999999999876
-0.12239348888397217,1.2375943660736084,-0.7314643859863281,7.899999999999876
-0.11725330352783203,1.3300981521606445,-0.7803325653076172,7.909999999999876
-0.053337812423706055,1.3190467357635498,-0.7713899612426758,7.919999999999876
-0.0263521671295166,1.2965953350067139,-0.7216215133666992,7.929999999999875
-0.04291975498199463,1.2292759418487549,-0.6455793380737305,7.939999999999875
-0.052840232849121094,1.189256191253662,-0.5124902725219727,7.949999999999875
-0.06259000301361084,1.155616044998169,-0.4352760314941406,7.959999999999875
-0.020114421844482422,1.1161651611328125,-0.5360126495361328,7.9699999999998745
-0.12405019998550415,1.0627131462097168,-0.5772714614868164,7.979999999999874
-0.17745542526245117,1.095949411392212,-0.6115045547485352,7.989999999999874
-0.24549013376235962,1.1529021263122559,-0.638270378112793,7.999999999999874
