AccX,AccY,AccZ,SampleRate
1.6073390245437622,0.6759605407714844,1.236345648765564,0
1.6415228843688965,1.6888418197631836,1.5413017272949219,0.01
1.858249545097351,2.2638044357299805,1.6274993419647217,0.02
2.1156835556030273,2.692831039428711,1.2148833274841309,0.03
2.561147928237915,2.6167917251586914,1.1333000659942627,0.04
2.6962366104125977,1.9806432723999023,0.6172283887863159,0.05
2.704922676086426,1.23223876953125,0.10729081928730011,0.060000000000000005
2.917238473892212,0.5605487823486328,-0.04913857579231262,0.07
2.9172487258911133,0.4944324493408203,0.020358741283416748,0.08
2.8161113262176514,1.3280677795410156,-0.11458265781402588,0.09
2.448269844055176,2.7163915634155273,0.8960978984832764,0.09999999999999999
1.103397011756897,4.132813453674316,1.2365727424621582,0.10999999999999999
0.23549868166446686,4.438294410705566,-1.2154819965362549,0.11999999999999998
-0.4024278521537781,3.728957176208496,-2.380568265914917,0.12999999999999998
-0.701106071472168,3.09450626373291,-2.4396862983703613,0.13999999999999999
-0.13856574892997742,2.504828453063965,-1.8233579397201538,0.15
0.4707351624965668,2.291611671447754,-1.3559796810150146,0.16
1.0343071222305298,2.4845685958862305,-1.5466673374176025,0.17
1.2396281957626343,2.870800018310547,-2.596515417098999,0.18000000000000002
1.4453954696655273,3.1599550247192383,-4.837823390960693,0.19000000000000003
1.737138032913208,3.5026330947875977,-5.8272857666015625,0.20000000000000004
1.2259528636932373,4.301579475402832,-4.780966758728027,0.21000000000000005
0.051080942153930664,5.038049697875977,-3.126166343688965,0.22000000000000006
-0.7078981399536133,5.51838493347168,-1.729275107383728,0.23000000000000007
-1.533018946647644,5.692645072937012,0.46354103088378906,0.24000000000000007
-1.6916316747665405,4.91566276550293,1.597640872001648,0.25000000000000006
-1.5761210918426514,3.763617515563965,1.1873658895492554,0.26000000000000006
-1.6297180652618408,3.816128730773926,0.9771294593811035,0.2700000000000001
-1.985889196395874,0.6108016967773438,-0.9704104661941528,0.2800000000000001
-2.197666883468628,-0.7449007034301758,-1.0695966482162476,0.2900000000000001
-2.6238691806793213,-1.7557501792907715,-1.1549235582351685,0.3000000000000001
-2.4052047729492188,-2.599191665649414,-0.9160391092300415,0.3100000000000001
-2.0136494636535645,-3.1303157806396484,-1.3595174551010132,0.3200000000000001
-1.511381983757019,-3.4821691513061523,-1.6342439651489258,0.3300000000000001
-0.9832160472869873,-3.835847854614258,-1.8830674886703491,0.34000000000000014
-0.6245244145393372,-3.8594717979431152,-2.0771923065185547,0.35000000000000014
-0.47674524784088135,-4.062351703643799,-2.3456172943115234,0.36000000000000015
-0.4091867208480835,-4.045406818389893,-2.4158692359924316,0.37000000000000016
-0.18365740776062012,-3.6366424560546875,-2.511209011077881,0.38000000000000017
0.10623717308044434,-3.591804027557373,-2.067378044128418,0.3900000000000002
0.2274794578552246,-3.6808876991271973,-1.6846766471862793,0.4000000000000002
0.2691035270690918,-3.6951022148132324,-1.6641175746917725,0.4100000000000002
0.25536108016967773,-4.636645793914795,-1.4849424362182617,0.4200000000000002
-0.19159704446792603,-4.845212936401367,-0.817795991897583,0.4300000000000002
-0.20648980140686035,-5.337618827819824,0.28505492210388184,0.4400000000000002
-0.3096655607223511,-5.746205806732178,0.6599652767181396,0.45000000000000023
-0.6868125200271606,-6.335455417633057,-1.1529865264892578,0.46000000000000024
-1.5570793151855469,-5.619536399841309,0.468630313873291,0.47000000000000025
0.035559773445129395,-4.1054582595825195,2.8796908855438232,0.48000000000000026
0.3626195192337036,-1.9258389472961426,1.9979794025421143,0.49000000000000027
1.214752435684204,0.04192924499511719,2.4495484828948975,0.5000000000000002
2.3407626152038574,2.26503849029541,2.2281947135925293,0.5100000000000002
4.167381286621094,4.366208076477051,2.8139455318450928,0.5200000000000002
5.776541709899902,5.881503105163574,3.458677053451538,0.5300000000000002
4.125492095947266,5.992409706115723,3.0706353187561035,0.5400000000000003
2.338526964187622,4.3845624923706055,2.6526854038238525,0.5500000000000003
1.3395097255706787,2.9521331787109375,2.7522923946380615,0.5600000000000003
0.6725537776947021,1.0405006408691406,2.723616123199463,0.5700000000000003
0.12915104627609253,-0.2260265350341797,1.4435226917266846,0.5800000000000003
-0.40467920899391174,0.40419769287109375,0.48982977867126465,0.5900000000000003
-0.2835747301578522,2.1647300720214844,0.2517886161804199,0.6000000000000003
-0.38988539576530457,3.3455028533935547,0.12224984169006348,0.6100000000000003
0.02234327793121338,3.7176313400268555,-1.3103134632110596,0.6200000000000003
-0.14122474193572998,3.5446348190307617,-3.3498973846435547,0.6300000000000003
-0.4974399507045746,2.966085433959961,-5.333835601806641,0.6400000000000003
-1.0361583232879639,2.94313907623291,-6.6027021408081055,0.6500000000000004
-3.076683521270752,3.9707536697387695,-4.846056938171387,0.6600000000000004
-5.923117637634277,1.7865896224975586,-0.8010902404785156,0.6700000000000004
-7.021111011505127,-0.09170150756835938,-0.21140694618225098,0.6800000000000004
-7.460752964019775,-1.2706661224365234,-0.6443345546722412,0.6900000000000004
-7.340749740600586,-1.079035758972168,-1.773253083229065,0.7000000000000004
-6.050899982452393,-0.2112894058227539,-2.403806686401367,0.7100000000000004
-4.719269752502441,0.6091680526733398,-3.994290590286255,0.7200000000000004
-3.504328727722168,1.5000600814819336,-5.730131149291992,0.7300000000000004
-2.687112331390381,2.4899091720581055,-5.8841552734375,0.7400000000000004
-0.7544028162956238,3.0607786178588867,-4.054652214050293,0.7500000000000004
0.8702090382575989,2.719545364379883,-3.357726573944092,0.7600000000000005
2.205744504928589,2.0825977325439453,-2.278954267501831,0.7700000000000005
3.182912826538086,0.8281354904174805,-0.8503977060317993,0.7800000000000005
3.9038870334625244,-0.43697166442871094,-0.4531933069229126,0.7900000000000005
3.9626169204711914,-1.349106788635254,-0.992409348487854,0.8000000000000005
3.3599331378936768,-2.047025680541992,-1.2391315698623657,0.8100000000000005
2.083035707473755,-2.9449267387390137,-0.9538003206253052,0.8200000000000005
0.7734367251396179,-3.5164246559143066,-0.8208168745040894,0.8300000000000005
-0.09099332988262177,-3.921833038330078,-0.9896135926246643,0.8400000000000005
-0.24338461458683014,-4.305665969848633,-0.9543431997299194,0.8500000000000005
0.005377680063247681,-4.453331470489502,-0.7205789685249329,0.8600000000000005
0.22231525182724,-4.456528663635254,-0.43035876750946045,0.8700000000000006
0.3591519594192505,-4.277556896209717,-0.43817222118377686,0.8800000000000006
0.5671863555908203,-3.688974380493164,-0.5566944479942322,0.8900000000000006
0.8166121244430542,-2.8310952186584473,-0.8703742623329163,0.9000000000000006
0.8545373678207397,-1.738816261291504,-0.9469742178916931,0.9100000000000006
0.9733959436416626,-1.0434856414794922,-0.552972674369812,0.9200000000000006
1.1099956035614014,-0.35941314697265625,-0.02489134669303894,0.9300000000000006
1.3220654726028442,0.0065517425537109375,0.631552517414093,0.9400000000000006
1.3618698120117188,-0.013376235961914062,1.197209119796753,0.9500000000000006
1.4615561962127686,-0.2594289779663086,1.5905975103378296,0.9600000000000006
1.5125194787979126,-0.5356588363647461,1.8848267793655396,0.9700000000000006
1.4935970306396484,-0.6483774185180664,1.9852688312530518,0.9800000000000006
1.5004374980926514,-0.6743927001953125,1.9478901624679565,0.9900000000000007
1.5770584344863892,-0.4414215087890625,1.777393102645874,1.0000000000000007
1.7031399011611938,0.30663108825683594,2.3282573223114014,1.0100000000000007
2.0507259368896484,1.1963529586791992,1.8836177587509155,1.0200000000000007
2.4435532093048096,2.4050779342651367,0.7147506475448608,1.0300000000000007
2.5806610584259033,2.592339515686035,0.21996748447418213,1.0400000000000007
2.704049587249756,2.341960906982422,-0.23255154490470886,1.0500000000000007
2.5150866508483887,1.9311189651489258,-0.27068179845809937,1.0600000000000007
2.343208074569702,1.6224889755249023,0.13710114359855652,1.0700000000000007
2.1111979484558105,1.6166048049926758,0.19047367572784424,1.0800000000000007
1.8713592290878296,2.018317222595215,-0.645786702632904,1.0900000000000007
1.681750774383545,2.5809879302978516,-1.5233469009399414,1.1000000000000008
0.6170243620872498,3.2404422760009766,2.041188955307007,1.1100000000000008
0.19262269139289856,3.118588447570801,1.287147879600525,1.1200000000000008
0.1583952009677887,2.3777666091918945,-1.1051217317581177,1.1300000000000008
0.2510003447532654,1.8614559173583984,-2.2336654663085938,1.1400000000000008
0.8560012578964233,1.6325340270996094,-2.9276304244995117,1.1500000000000008
1.375910758972168,1.7760238647460938,-2.895115852355957,1.1600000000000008
1.8321514129638672,2.599557876586914,-2.499342203140259,1.1700000000000008
1.9518072605133057,3.275480270385742,-3.019693613052368,1.1800000000000008
2.1450259685516357,3.8511152267456055,-4.944077968597412,1.1900000000000008
2.3232169151306152,4.734710693359375,-5.19258451461792,1.2000000000000008
0.6850945353507996,5.991157531738281,-3.2382099628448486,1.2100000000000009
-0.245114266872406,7.250419616699219,-1.8161274194717407,1.2200000000000009
-0.8896191120147705,7.946658134460449,1.381516933441162,1.2300000000000009
-1.689441442489624,7.400077819824219,3.541196346282959,1.2400000000000009
-1.7567024230957031,5.575592994689941,1.9483016729354858,1.2500000000000009
-1.6762593984603882,3.2676897048950195,0.2635815143585205,1.260000000000001
-1.618401288986206,1.0093145370483398,-0.604762077331543,1.270000000000001
-2.0856540203094482,-0.6338205337524414,-1.323805570602417,1.280000000000001
-2.3354740142822266,-2.1278843879699707,-1.1760483980178833,1.290000000000001
-2.32317852973938,-3.101421356201172,-1.1062833070755005,1.300000000000001
-2.1018545627593994,-3.948056697845459,-1.5390642881393433,1.310000000000001
-1.704660415649414,-4.4199652671813965,-1.886803150177002,1.320000000000001
-1.1941790580749512,-4.868293285369873,-2.1692214012145996,1.330000000000001
-1.0755832195281982,-4.6894636154174805,-2.4038829803466797,1.340000000000001
-0.9710631370544434,-4.575695514678955,-2.547182083129883,1.350000000000001
-0.8226370215415955,-4.36455774307251,-2.5658907890319824,1.360000000000001
-0.6263706684112549,-4.090119361877441,-2.275887966156006,1.370000000000001
-0.11936771869659424,-4.120297431945801,-2.1215991973876953,1.380000000000001
0.061852097511291504,-4.333272457122803,-1.8343119621276855,1.390000000000001
0.05397140979766846,-4.711554050445557,-1.7089508771896362,1.400000000000001
-0.18296051025390625,-5.291659355163574,-1.4913241863250732,1.410000000000001
-0.4045470952987671,-5.691626071929932,-0.7021269798278809,1.420000000000001
-0.31310713291168213,-5.745571613311768,-0.591763973236084,1.430000000000001
-1.0333620309829712,-6.727682113647461,-2.071964740753174,1.440000000000001
-2.2555201053619385,-6.469518184661865,0.9101827144622803,1.450000000000001
-2.0541505813598633,-5.433363437652588,3.3681302070617676,1.460000000000001
-0.3493252694606781,-4.600616455078125,2.8656246662139893,1.470000000000001
0.06941038370132446,-2.3369994163513184,2.2003793716430664,1.480000000000001
0.22584474086761475,0.7894439697265625,1.6666040420532227,1.490000000000001
1.6431740522384644,3.9839353561401367,2.254566192626953,1.500000000000001
3.8099474906921387,7.20803165435791,3.090574264526367,1.5100000000000011
5.241704940795898,8.376279830932617,3.498581647872925,1.5200000000000011
3.7304847240448,7.3777666091918945,2.4605820178985596,1.5300000000000011
1.8814468383789062,5.083256721496582,2.9322564601898193,1.5400000000000011
0.7473026514053345,3.0878028869628906,3.959502935409546,1.5500000000000012
0.6020923256874084,1.6432313919067383,2.251821517944336,1.5600000000000012
0.45947951078414917,1.7342395782470703,0.9438626766204834,1.5700000000000012
0.6710121631622314,2.798314094543457,0.22984886169433594,1.5800000000000012
0.6202574372291565,4.32708740234375,0.26689600944519043,1.5900000000000012
-0.06277602910995483,5.4837541580200195,-1.6504483222961426,1.6000000000000012
-0.6710951328277588,5.535528182983398,-2.6937944889068604,1.6100000000000012
-1.0841792821884155,3.6675405502319336,-4.255485534667969,1.6200000000000012
-1.9332143068313599,2.045482635498047,-7.041617393493652,1.6300000000000012
-4.679207801818848,0.9758501052856445,-3.624943494796753,1.6400000000000012
-6.417486190795898,-1.0521392822265625,0.6313610076904297,1.6500000000000012
-6.320495128631592,-2.464776039123535,0.32082629203796387,1.6600000000000013
-5.161527633666992,-2.7119088172912598,-1.4571218490600586,1.6700000000000013
-4.026581287384033,-1.9125480651855469,-2.9693655967712402,1.6800000000000013
-3.3861656188964844,-0.8273353576660156,-4.919004917144775,1.6900000000000013
-2.990211009979248,0.17406082153320312,-5.818218231201172,1.7000000000000013
-3.3096890449523926,2.045559883117676,-5.846135139465332,1.7100000000000013
-2.5283589363098145,3.7968521118164062,-4.787090301513672,1.7200000000000013
-0.910589337348938,3.9273433685302734,-3.694528341293335,1.7300000000000013
0.6870433688163757,3.3720226287841797,-2.446013927459717,1.7400000000000013
2.3287837505340576,1.9546518325805664,-0.7477209568023682,1.7500000000000013
3.0376594066619873,0.7426509857177734,0.22908234596252441,1.7600000000000013
3.3610544204711914,-0.6016006469726562,0.08709001541137695,1.7700000000000014
3.0112452507019043,-1.4159488677978516,-0.8718504905700684,1.7800000000000014
2.207075595855713,-2.269308090209961,-1.4043607711791992,1.7900000000000014
1.3209402561187744,-3.0333356857299805,-1.5727381706237793,1.8000000000000014
0.6443753242492676,-3.611715316772461,-1.4611268043518066,1.8100000000000014
0.3736191391944885,-3.9544754028320312,-1.2286686897277832,1.8200000000000014
0.2386770248413086,-4.261725425720215,-0.970907986164093,1.8300000000000014
0.39736196398735046,-4.536675930023193,-0.6844542622566223,1.8400000000000014
0.43337738513946533,-4.564109802246094,-0.3538689613342285,1.8500000000000014
0.6596084833145142,-4.339472770690918,-0.18045377731323242,1.8600000000000014
0.882258415222168,-3.364129066467285,-0.7218576669692993,1.8700000000000014
1.0960350036621094,-3.062241554260254,-0.9369984865188599,1.8800000000000014
1.140670895576477,-2.2577266693115234,-0.7130756974220276,1.8900000000000015
1.2836073637008667,-1.465005874633789,-0.5640500783920288,1.9000000000000015
1.4220490455627441,-0.5879001617431641,-0.27350062131881714,1.9100000000000015
1.2863445281982422,-0.19640350341796875,0.16990861296653748,1.9200000000000015
1.1869268417358398,-0.274322509765625,0.7550458312034607,1.9300000000000015
1.255067229270935,-0.4607200622558594,1.1596189737319946,1.9400000000000015
1.426710605621338,-0.756103515625,1.7012354135513306,1.9500000000000015
1.4473474025726318,-0.6961898803710938,2.2041168212890625,1.9600000000000015
1.5887287855148315,-0.3553428649902344,2.291810989379883,1.9700000000000015
1.5383825302124023,0.31906700134277344,2.143951892852783,1.9800000000000015
1.6253306865692139,1.1953868865966797,2.2338104248046875,1.9900000000000015
1.7068413496017456,1.8832073211669922,2.3508827686309814,2.0000000000000013
1.9645763635635376,2.4709692001342773,1.5813748836517334,2.010000000000001
2.217405080795288,2.4892778396606445,0.2605639100074768,2.020000000000001
2.344431161880493,2.536379814147949,-0.42491620779037476,2.0300000000000007
2.3138158321380615,2.3985939025878906,-0.3688289523124695,2.0400000000000005
2.7108230590820312,2.0175065994262695,-0.2219744324684143,2.0500000000000003
2.8692753314971924,1.7225456237792969,-0.4590776562690735,2.06
3.3343513011932373,1.4967422485351562,-1.3892065286636353,2.07
3.6238255500793457,1.666081428527832,-2.1701178550720215,2.0799999999999996
4.028348922729492,1.5778932571411133,0.9478155374526978,2.0899999999999994
3.9997811317443848,1.7605838775634766,2.5422096252441406,2.099999999999999
2.823378324508667,1.941122055053711,-1.3793704509735107,2.109999999999999
1.9381322860717773,2.34512996673584,-3.138603448867798,2.1199999999999988
1.6466258764266968,3.01611328125,-3.5982210636138916,2.1299999999999986
1.8869476318359375,4.31434440612793,-3.0391077995300293,2.1399999999999983
1.5183095932006836,5.307106971740723,-2.2696847915649414,2.149999999999998
1.3788323402404785,5.793021202087402,-3.776423931121826,2.159999999999998
1.558516263961792,6.4507904052734375,-5.545975208282471,2.1699999999999977
0.40478551387786865,7.329883575439453,-5.008228778839111,2.1799999999999975
-1.0165863037109375,7.786383628845215,-2.3863062858581543,2.1899999999999973
-2.5619986057281494,8.057348251342773,2.263895034790039,2.199999999999997
-3.475505828857422,7.2049665451049805,4.031057357788086,2.209999999999997
-3.6725096702575684,5.708889961242676,1.6480146646499634,2.2199999999999966
-3.3662474155426025,3.2932682037353516,-0.5112693309783936,2.2299999999999964
-2.910747528076172,1.3499813079833984,-1.5321725606918335,2.239999999999996
-2.7517781257629395,-0.3931264877319336,-2.0672659873962402,2.249999999999996
-2.4640464782714844,-1.8680720329284668,-1.5955049991607666,2.259999999999996
-2.1608645915985107,-2.951389789581299,-1.4289424419403076,2.2699999999999956
-1.9312005043029785,-3.748673439025879,-0.4482851028442383,2.2799999999999954
-2.0016210079193115,-3.9606051445007324,-0.5312254428863525,2.289999999999995
-1.7415293455123901,-3.7886600494384766,-1.9289041757583618,2.299999999999995
-1.4797347784042358,-3.8555173873901367,-2.8332691192626953,2.3099999999999947
-1.212416410446167,-4.045483589172363,-2.8303167819976807,2.3199999999999945
-1.128851294517517,-4.0924177169799805,-2.1530942916870117,2.3299999999999943
-1.0238944292068481,-4.300177574157715,-1.7537825107574463,2.339999999999994
-1.0096523761749268,-4.056820392608643,-1.5278923511505127,2.349999999999994
-0.8973597288131714,-4.12261438369751,-1.677154302597046,2.3599999999999937
-0.5982877612113953,-4.573176383972168,-1.78695809841156,2.3699999999999934
-0.5546305775642395,-5.057841777801514,-1.5418164730072021,2.3799999999999932
-0.5480564832687378,-5.361206531524658,-1.8195582628250122,2.389999999999993
-0.5871806144714355,-5.748446941375732,-1.8685271739959717,2.399999999999993
-0.5101642608642578,-6.178234100341797,-0.5958268642425537,2.4099999999999926
-0.5057991743087769,-6.064655303955078,0.17341303825378418,2.4199999999999924
-0.4527605473995209,-6.270413875579834,-2.594986915588379,2.429999999999992
-1.6394802331924438,-5.3424177169799805,0.6160569190979004,2.439999999999992
-0.7545247673988342,-4.822106838226318,4.036106586456299,2.4499999999999917
-0.4791230261325836,-3.4262094497680664,2.431349754333496,2.4599999999999915
-0.15454387664794922,-0.30641651153564453,2.3032844066619873,2.4699999999999913
0.3963733911514282,2.0299596786499023,2.2457950115203857,2.479999999999991
0.4161156117916107,2.0158843994140625,2.298755645751953,2.489999999999991
3.4617490768432617,7.042315483093262,4.015765190124512,2.4999999999999907
4.554319858551025,8.691713333129883,3.462113857269287,2.5099999999999905
4.700655460357666,8.81256103515625,3.5910444259643555,2.5199999999999902
1.5062198638916016,6.9231367111206055,3.813382387161255,2.52999999999999
0.6967127323150635,4.402676582336426,4.1666693687438965,2.53999999999999
0.6279979944229126,2.2019920349121094,2.182197093963623,2.5499999999999896
0.8000903725624084,0.9309492111206055,1.249009609222412,2.5599999999999894
1.358023762702942,1.3713769912719727,-0.09173703193664551,2.569999999999989
1.2498464584350586,2.0895566940307617,-1.1195085048675537,2.579999999999989
-0.31818580627441406,3.2221317291259766,-2.173461675643921,2.5899999999999888
-0.42661774158477783,3.2167253494262695,-3.951730251312256,2.5999999999999885
-0.7089501023292542,2.598504066467285,-5.94010066986084,2.6099999999999883
-2.088733673095703,2.4097414016723633,-6.745689392089844,2.619999999999988
-3.8681418895721436,1.6016473770141602,-4.755603790283203,2.629999999999988
-5.80263614654541,-0.32294559478759766,-0.9583020210266113,2.6399999999999877
-6.727974891662598,-1.5922274589538574,-0.17818737030029297,2.6499999999999875
-6.503355979919434,-1.5749964714050293,-0.23964238166809082,2.6599999999999873
-5.6206374168396,-1.911527156829834,-1.9983360767364502,2.669999999999987
-5.1079206466674805,-1.0650339126586914,-2.885517120361328,2.679999999999987
-4.597435474395752,-0.08357524871826172,-4.281949043273926,2.6899999999999866
-4.546361446380615,1.6322078704833984,-5.135629177093506,2.6999999999999864
-3.813282012939453,3.196282386779785,-4.584986686706543,2.709999999999986
-2.39380145072937,3.6737546920776367,-3.159567356109619,2.719999999999986
-0.7503641843795776,3.426011085510254,-3.1219873428344727,2.7299999999999858
0.9278099536895752,2.5370044708251953,-1.8618533611297607,2.7399999999999856
2.275646686553955,1.1553115844726562,-0.6466847658157349,2.7499999999999853
3.0799167156219482,0.19535064697265625,-0.933570384979248,2.759999999999985
3.3890390396118164,-1.2951431274414062,-1.721818208694458,2.769999999999985
3.2572078704833984,-2.3551297187805176,-1.56426203250885,2.7799999999999847
3.0543506145477295,-3.282227039337158,-0.8608689308166504,2.7899999999999845
2.803224563598633,-4.026558876037598,-0.5474311113357544,2.7999999999999843
1.905653715133667,-4.455522537231445,-0.6939445734024048,2.809999999999984
1.0299016237258911,-4.7164812088012695,-1.0752878189086914,2.819999999999984
0.31172266602516174,-4.591483116149902,-1.0364270210266113,2.8299999999999836
0.10644292831420898,-4.305017948150635,-0.7700862884521484,2.8399999999999834
0.17485231161117554,-3.809133529663086,-0.4197051525115967,2.849999999999983
0.4473631680011749,-3.1302733421325684,-0.29622310400009155,2.859999999999983
0.8411599397659302,-2.6271133422851562,-0.38118088245391846,2.869999999999983
0.8853346705436707,-1.7289009094238281,-0.5276024341583252,2.8799999999999826
1.0567364692687988,-1.567753791809082,-0.2535039484500885,2.8899999999999824
1.198533296585083,-1.3587942123413086,0.21491676568984985,2.899999999999982
1.4079607725143433,-1.37518310546875,0.5679507255554199,2.909999999999982
1.480026364326477,-0.8007669448852539,1.0851924419403076,2.9199999999999817
1.7654263973236084,-1.0362987518310547,1.8205682039260864,2.9299999999999815
1.761946439743042,-0.8059892654418945,2.2293670177459717,2.9399999999999813
1.789756417274475,-0.4186553955078125,2.0625109672546387,2.949999999999981
1.6510100364685059,0.11364364624023438,2.3005056381225586,2.959999999999981
1.656484603881836,0.8910903930664062,2.506042003631592,2.9699999999999807
1.9340763092041016,1.5085945129394531,1.6432251930236816,2.9799999999999804
1.8684499263763428,2.4112682342529297,0.3278614580631256,2.9899999999999802
2.1923768520355225,2.195765495300293,-0.14411723613739014,2.99999999999998
2.274662971496582,2.157146453857422,0.2700497508049011,3.00999999999998
2.3592395782470703,1.8857049942016602,0.7179381847381592,3.0199999999999796
2.5187602043151855,1.508291244506836,0.6575109958648682,3.0299999999999794
2.676884412765503,1.3908615112304688,-0.20512473583221436,3.039999999999979
2.6364481449127197,1.5380172729492188,-1.246307134628296,3.049999999999979
2.612605094909668,1.9137725830078125,-2.0713934898376465,3.0599999999999787
2.409759998321533,2.039592742919922,2.907740354537964,3.0699999999999785
1.0610599517822266,2.1056032180786133,0.8403770923614502,3.0799999999999783
0.33618009090423584,2.113679885864258,-2.038506507873535,3.089999999999978
0.24501770734786987,2.418821334838867,-3.032470226287842,3.099999999999978
0.3980444669723511,3.7166213989257812,-3.3433539867401123,3.1099999999999777
0.2673129439353943,3.726978302001953,-3.534421920776367,3.1199999999999775
1.2380785942077637,4.713738441467285,-3.7457733154296875,3.1299999999999772
1.1817691326141357,5.616156578063965,-4.638620376586914,3.139999999999977
1.1805830001831055,6.672737121582031,-3.7571616172790527,3.149999999999977
1.3199255466461182,7.2970380783081055,-1.4348585605621338,3.1599999999999766
0.6765151023864746,7.9533843994140625,-0.39802825450897217,3.1699999999999764
-2.444157838821411,9.160408973693848,9.189380645751953,3.179999999999976
-1.1033852100372314,7.239323616027832,-0.5495606660842896,3.189999999999976
-1.5442137718200684,4.435690879821777,-0.5586675405502319,3.1999999999999758
-2.695284843444824,2.654665946960449,0.5080037117004395,3.2099999999999755
-3.7089741230010986,0.9246549606323242,-0.0726175308227539,3.2199999999999753
-4.074434757232666,-0.7588396072387695,-0.8829209804534912,3.229999999999975
-3.940988063812256,-2.1560349464416504,-1.1311464309692383,3.239999999999975
-3.6826188564300537,-3.2596468925476074,-1.6611133813858032,3.2499999999999747
-3.007672071456909,-3.9366631507873535,-1.8904672861099243,3.2599999999999745
-2.156925916671753,-4.253574371337891,-2.382863998413086,3.2699999999999743
-1.3838450908660889,-4.401346206665039,-2.6400444507598877,3.279999999999974
-0.836365818977356,-4.3223185539245605,-2.782162666320801,3.289999999999974
-0.4365960359573364,-4.378600120544434,-2.608124256134033,3.2999999999999736
-0.37769073247909546,-4.082904815673828,-2.332535743713379,3.3099999999999734
-0.4190017580986023,-3.8673954010009766,-2.237065315246582,3.319999999999973
-0.17463469505310059,-4.1370062828063965,-2.559291362762451,3.329999999999973
-0.12581664323806763,-4.328619480133057,-2.7875356674194336,3.3399999999999728
-0.15075600147247314,-4.40369987487793,-1.9611356258392334,3.3499999999999726
-0.40438294410705566,-4.6987481117248535,-1.6510179042816162,3.3599999999999723
-0.45018547773361206,-5.328577995300293,-0.9734315872192383,3.369999999999972
-0.8208277821540833,-5.8033246994018555,-0.6508867740631104,3.379999999999972
-0.8934369683265686,-6.118783950805664,0.022759199142456055,3.3899999999999717
-1.1246917247772217,-5.969389915466309,0.22238469123840332,3.3999999999999715
-1.3097236156463623,-5.915427207946777,0.3233070373535156,3.4099999999999713
-1.610779047012329,-5.169074535369873,0.7211959362030029,3.419999999999971
-0.7205298542976379,-3.2827959060668945,0.9911930561065674,3.429999999999971
-0.08922258019447327,-0.9133443832397461,0.6103579998016357,3.4399999999999706
0.40575459599494934,2.8091039657592773,2.1581456661224365,3.4499999999999704
1.717989206314087,5.538148880004883,3.9779419898986816,3.45999999999997
3.5027663707733154,7.886399269104004,4.450838088989258,3.46999999999997
4.799675941467285,8.84469985961914,3.1033148765563965,3.47999999999997
3.329882860183716,7.450167655944824,3.6274638175964355,3.4899999999999696
1.9201408624649048,4.788846015930176,5.985828399658203,3.4999999999999694
1.1939722299575806,1.9660158157348633,5.129140853881836,3.509999999999969
1.0622901916503906,0.2082996368408203,2.381105899810791,3.519999999999969
0.9246300458908081,-0.2680549621582031,0.7658576965332031,3.5299999999999687
1.0184834003448486,0.3008451461791992,-0.13977408409118652,3.5399999999999685
-0.8060293793678284,2.218799591064453,-1.3361563682556152,3.5499999999999683
-1.3945119380950928,3.630443572998047,-2.786881923675537,3.559999999999968
-1.623077154159546,4.54757022857666,-5.106220722198486,3.569999999999968
-2.4500064849853516,5.17631721496582,-7.092046737670898,3.5799999999999677
-5.411306858062744,5.303754806518555,-3.770879030227661,3.5899999999999674
-9.720956802368164,2.589437484741211,2.9565672874450684,3.5999999999999672
-8.845684051513672,-0.3578519821166992,1.3619070053100586,3.609999999999967
-6.385356903076172,-2.134880542755127,-1.8760461807250977,3.619999999999967
-4.499541759490967,-2.5349268913269043,-4.224740028381348,3.6299999999999666
-3.5312023162841797,-1.695817470550537,-4.477803707122803,3.6399999999999664
-2.558473587036133,-1.2527809143066406,-5.037729740142822,3.649999999999966
-2.1743662357330322,-0.5653972625732422,-5.909369468688965,3.659999999999966
-1.3744652271270752,0.44594764709472656,-5.286117076873779,3.6699999999999657
-1.6158101558685303,3.6847410202026367,-3.2534971237182617,3.6799999999999655
-0.5832711458206177,3.7700672149658203,-1.4399583339691162,3.6899999999999653
1.115359902381897,3.890994071960449,-0.2026817798614502,3.699999999999965
3.0002782344818115,3.2568559646606445,-0.2997441291809082,3.709999999999965
3.5410561561584473,2.750576972961426,-1.741422176361084,3.7199999999999647
3.0301902294158936,0.7915182113647461,-2.0087809562683105,3.7299999999999645
2.0309009552001953,-0.8094596862792969,-1.6939845085144043,3.7399999999999642
1.1239702701568604,-1.9789037704467773,-1.5161762237548828,3.749999999999964
0.5815415382385254,-2.788400173187256,-1.7653464078903198,3.759999999999964
0.28029629588127136,-3.6293349266052246,-1.9319217205047607,3.7699999999999636
0.19955232739448547,-4.226816177368164,-1.563358187675476,3.7799999999999634
0.1572442650794983,-4.8112006187438965,-1.0861790180206299,3.789999999999963
0.32369643449783325,-5.052088260650635,-0.9949449300765991,3.799999999999963
0.6010555028915405,-4.946438789367676,-1.034758448600769,3.8099999999999627
0.866417646408081,-4.206150531768799,-0.9291180372238159,3.8199999999999625
0.8519870042800903,-3.129356861114502,-0.36378610134124756,3.8299999999999623
1.0198231935501099,-2.277414321899414,0.13943982124328613,3.839999999999962
0.9859911799430847,-1.4706621170043945,-0.02473282814025879,3.849999999999962
1.1434890031814575,-1.090754508972168,0.11227309703826904,3.8599999999999617
1.1253085136413574,-0.77923583984375,0.3253086805343628,3.8699999999999615
1.3309012651443481,-0.5823040008544922,0.9682928323745728,3.8799999999999613
1.5569331645965576,-0.3810567855834961,1.2355822324752808,3.889999999999961
1.645992398262024,-0.38178062438964844,1.4503012895584106,3.899999999999961
1.5706465244293213,-0.19637012481689453,2.184776544570923,3.9099999999999606
1.5711452960968018,0.11061859130859375,2.76364803314209,3.9199999999999604
2.0632808208465576,0.19837188720703125,2.2659718990325928,3.92999999999996
2.6289470195770264,0.5521945953369141,0.6154821515083313,3.93999999999996
3.128586769104004,1.2131967544555664,-0.8238804936408997,3.9499999999999598
3.3701748847961426,1.959630012512207,-1.093875765800476,3.9599999999999596
3.8643274307250977,2.1715946197509766,-1.4405546188354492,3.9699999999999593
4.068488121032715,2.4081029891967773,-1.298295021057129,3.979999999999959
4.013378143310547,2.7646570205688477,-0.7069946527481079,3.989999999999959
3.498983383178711,3.9974498748779297,-0.1595243215560913,3.9999999999999587
2.3509230613708496,4.547206878662109,-0.15159469842910767,4.009999999999959
2.367499828338623,4.5520734786987305,-0.18576180934906006,4.019999999999959
-0.3820970058441162,5.654081344604492,1.2140281200408936,4.0299999999999585
-0.9033104181289673,5.166332244873047,-1.4397852420806885,4.039999999999958
-1.6586871147155762,4.451755523681641,-1.2088792324066162,4.049999999999958
-2.24997615814209,3.8579111099243164,-1.218421220779419,4.059999999999958
-2.3642048835754395,3.858334541320801,-1.38384211063385,4.069999999999958
-0.8027541637420654,3.6448755264282227,-2.104865074157715,4.079999999999957
-0.1405569314956665,3.32865047454834,-1.7819082736968994,4.089999999999957
-0.6446295976638794,3.649813652038574,-1.6084507703781128,4.099999999999957
-1.3544857501983643,3.6929702758789062,-1.558032512664795,4.109999999999957
-2.3593289852142334,3.595052719116211,-1.4660003185272217,4.119999999999957
-3.5826382637023926,4.1489973068237305,-0.46794307231903076,4.129999999999956
-3.706164598464966,4.821839332580566,0.8361475467681885,4.139999999999956
-3.0577242374420166,4.254992485046387,0.9146947860717773,4.149999999999956
-2.259108543395996,3.045806884765625,1.0462477207183838,4.159999999999956
-1.9617953300476074,1.0837297439575195,0.7702181339263916,4.1699999999999555
-1.480751633644104,-0.864649772644043,-0.09488344192504883,4.179999999999955
-1.3746150732040405,-1.826505184173584,-0.4400928020477295,4.189999999999955
-1.4757822751998901,-2.5920796394348145,-1.6890084743499756,4.199999999999955
-1.615750789642334,-2.9001784324645996,-2.0560524463653564,4.209999999999955
-1.5029304027557373,-3.5882930755615234,-2.664649724960327,4.2199999999999545
-1.1895803213119507,-3.1648802757263184,-2.3392837047576904,4.229999999999954
-0.7267835140228271,-3.534022331237793,-2.452676296234131,4.239999999999954
-0.09505875408649445,-3.411029815673828,-2.5272698402404785,4.249999999999954
0.49015748500823975,-3.5934410095214844,-2.8079466819763184,4.259999999999954
1.0682803392410278,-4.395040512084961,-3.082045078277588,4.269999999999953
1.1994283199310303,-4.700922966003418,-3.2742791175842285,4.279999999999953
1.2047959566116333,-5.16627836227417,-3.3459062576293945,4.289999999999953
0.8940239548683167,-5.82036018371582,-3.0615525245666504,4.299999999999953
0.04660189151763916,-6.48530387878418,-2.544600009918213,4.3099999999999525
-0.8874620199203491,-6.656775951385498,-1.8361077308654785,4.319999999999952
-1.6645984649658203,-6.603116512298584,-1.2942705154418945,4.329999999999952
-1.948498249053955,-6.170854091644287,-0.3419356346130371,4.339999999999952
-1.1849879026412964,-5.20013952255249,1.0156373977661133,4.349999999999952
-0.02097022533416748,-3.974186420440674,1.5668315887451172,4.3599999999999515
0.8940734267234802,-2.255070209503174,1.2198960781097412,4.369999999999951
1.0708402395248413,0.8081483840942383,1.550208568572998,4.379999999999951
0.8423756957054138,5.88129997253418,4.254963397979736,4.389999999999951
2.1968884468078613,7.640615463256836,5.439836025238037,4.399999999999951
3.178192615509033,7.161964416503906,3.963064670562744,4.40999999999995
3.019808292388916,5.285256385803223,3.059849262237549,4.41999999999995
2.3118810653686523,2.55086612701416,2.9578895568847656,4.42999999999995
1.6443305015563965,0.4188423156738281,2.7020816802978516,4.43999999999995
1.0317904949188232,-0.4021949768066406,2.395228862762451,4.4499999999999496
0.4821586012840271,-0.010418891906738281,1.8072962760925293,4.459999999999949
-0.09777367115020752,1.2477083206176758,2.161949634552002,4.469999999999949
-0.914975643157959,2.588315963745117,1.2375550270080566,4.479999999999949
-1.8275073766708374,4.264100074768066,-1.8574442863464355,4.489999999999949
-2.512573480606079,5.594590187072754,-3.2220520973205566,4.4999999999999485
-4.164994239807129,5.845768928527832,-2.8263840675354004,4.509999999999948
-6.550764560699463,4.91301155090332,-2.998293161392212,4.519999999999948
-10.088918685913086,2.832472801208496,-1.0814781188964844,4.529999999999948
-11.148098945617676,0.8401288986206055,0.7169718742370605,4.539999999999948
-6.792062759399414,-0.9754862785339355,-0.9836328029632568,4.549999999999947
-3.184514045715332,-2.014108180999756,-2.523966073989868,4.559999999999947
-1.6208548545837402,-1.831315517425537,-3.364777088165283,4.569999999999947
-0.8878790140151978,-0.4666900634765625,-3.848163604736328,4.579999999999947
-0.25820672512054443,1.2532873153686523,-4.604025840759277,4.589999999999947
0.33548426628112793,2.3922500610351562,-4.783419132232666,4.599999999999946
1.3095709085464478,3.0604333877563477,-4.5589070320129395,4.609999999999946
2.2817301750183105,2.8272838592529297,-3.941227912902832,4.619999999999946
3.176685094833374,2.0796070098876953,-2.7609894275665283,4.629999999999946
3.5778164863586426,1.5803346633911133,-1.2177112102508545,4.6399999999999455
3.224348545074463,1.182734489440918,-0.7031424045562744,4.649999999999945
1.7311363220214844,0.5001792907714844,-1.005418300628662,4.659999999999945
0.4762421250343323,-0.24694347381591797,-1.0766229629516602,4.669999999999945
0.15135717391967773,-1.2503352165222168,-0.9470489025115967,4.679999999999945
-0.14454734325408936,-1.9445466995239258,-0.8766536712646484,4.689999999999944
-0.1758573055267334,-2.255058765411377,-1.0595321655273438,4.699999999999944
0.06220722198486328,-2.779806613922119,-1.3717495203018188,4.709999999999944
0.22757041454315186,-3.2348270416259766,-1.5741328001022339,4.719999999999944
0.3451365828514099,-3.6106085777282715,-1.616353154182434,4.729999999999944
0.507853627204895,-3.8880906105041504,-1.5367345809936523,4.739999999999943
0.786645770072937,-3.9470744132995605,-1.8992667198181152,4.749999999999943
1.0428130626678467,-3.483461380004883,-1.6866809129714966,4.759999999999943
1.3131482601165771,-2.6830735206604004,-1.0087019205093384,4.769999999999943
1.6197004318237305,-1.6585588455200195,-0.3124784231185913,4.7799999999999425
1.7757647037506104,-0.8531913757324219,0.012094497680664062,4.789999999999942
1.7406519651412964,-0.3369483947753906,0.0818016529083252,4.799999999999942
1.4588778018951416,-0.22269248962402344,0.5050333738327026,4.809999999999942
1.1570560932159424,-0.3937196731567383,1.0090923309326172,4.819999999999942
1.112044334411621,-0.6280603408813477,1.329740047454834,4.8299999999999415
1.1666189432144165,-0.657806396484375,1.5393255949020386,4.839999999999941
1.3446557521820068,-0.6742029190063477,2.027331829071045,4.849999999999941
1.4510310888290405,-0.6104984283447266,2.2545604705810547,4.859999999999941
1.5035204887390137,-0.4263792037963867,2.0197057723999023,4.869999999999941
1.5351389646530151,-0.1435098648071289,1.5861680507659912,4.87999999999994
1.64967679977417,0.38924598693847656,0.9231433272361755,4.88999999999994
1.8195031881332397,0.8706321716308594,0.09196043014526367,4.89999999999994
2.035827159881592,1.2600936889648438,-0.7225908637046814,4.90999999999994
2.528414249420166,1.4881782531738281,-1.094326138496399,4.9199999999999395
2.877413511276245,1.6911087036132812,-1.087127923965454,4.929999999999939
2.9897212982177734,1.9258623123168945,-0.3155704438686371,4.939999999999939
2.7371439933776855,2.1269006729125977,0.5986560583114624,4.949999999999939
1.8036490678787231,2.5276308059692383,1.2470858097076416,4.959999999999939
0.0875849723815918,3.5296688079833984,1.5181810855865479,4.9699999999999385
0.07207012176513672,3.5281219482421875,1.4853047132492065,4.979999999999938
-0.882056713104248,3.810403823852539,1.4185667037963867,4.989999999999938
-0.13124966621398926,3.0304136276245117,-0.6875461339950562,4.999999999999938
0.5535699129104614,2.1297197341918945,-1.200526237487793,5.009999999999938
0.9616498947143555,2.076718330383301,-1.9889428615570068,5.019999999999937
1.3762919902801514,2.3348379135131836,-3.3004302978515625,5.029999999999937
1.6901642084121704,2.8676490783691406,-4.8451995849609375,5.039999999999937
0.9310689568519592,3.4604549407958984,-5.278817653656006,5.049999999999937
-0.07790267467498779,4.00855827331543,-4.187111854553223,5.0599999999999365
-1.0069167613983154,4.244548797607422,-1.9460281133651733,5.069999999999936
-1.4917985200881958,4.286386489868164,-0.9252902269363403,5.079999999999936
-2.083090305328369,4.5687360763549805,-1.101474404335022,5.089999999999936
-3.085275411605835,5.059601783752441,-0.6037993431091309,5.099999999999936
-4.957821369171143,5.934173583984375,1.5992851257324219,5.1099999999999355
-5.110518455505371,5.500412940979004,1.4583747386932373,5.119999999999935
-4.915328025817871,4.417147636413574,1.1813545227050781,5.129999999999935
-3.863737106323242,2.289468765258789,0.6813170909881592,5.139999999999935
-2.773834228515625,0.45213890075683594,0.6615893840789795,5.149999999999935
-2.2397425174713135,-0.737701416015625,-0.1797785758972168,5.159999999999934
-1.5902748107910156,-2.0909862518310547,-1.6703345775604248,5.169999999999934
-1.0079513788223267,-2.814424991607666,-2.741240978240967,5.179999999999934
-0.31618332862854004,-3.0907468795776367,-2.708728313446045,5.189999999999934
-0.012217700481414795,-3.3154044151306152,-3.172933578491211,5.199999999999934
0.2521352767944336,-3.3218789100646973,-3.420970916748047,5.209999999999933
0.4594697952270508,-3.2403764724731445,-3.3676939010620117,5.219999999999933
0.512381374835968,-3.52532958984375,-3.199244737625122,5.229999999999933
0.3194494843482971,-3.2932043075561523,-2.978414535522461,5.239999999999933
0.07780781388282776,-3.3299713134765625,-2.550668954849243,5.2499999999999325
-0.20928955078125,-3.298412799835205,-1.937267541885376,5.259999999999932
-0.43360552191734314,-3.41776704788208,-1.3999807834625244,5.269999999999932
-0.5969600677490234,-3.664034843444824,-1.508232831954956,5.279999999999932
-0.9003454446792603,-3.9137778282165527,-1.2918202877044678,5.289999999999932
-0.977193295955658,-4.111985206604004,-1.2417957782745361,5.299999999999931
-0.8886973857879639,-4.327969551086426,-1.3079698085784912,5.309999999999931
-0.6756234169006348,-4.1033806800842285,-0.7950787544250488,5.319999999999931
-0.39545679092407227,-4.04894495010376,-0.6760678291320801,5.329999999999931
-0.4448447823524475,-3.717794895172119,-0.4019775390625,5.339999999999931
-0.3411046266555786,-2.7899603843688965,0.575925350189209,5.34999999999993
-0.03201007843017578,-1.8763313293457031,1.307663917541504,5.35999999999993
0.4094002842903137,-0.7440786361694336,1.7606501579284668,5.36999999999993
0.7720030546188354,0.5304317474365234,1.7641093730926514,5.37999999999993
1.1972846984863281,1.621795654296875,1.847571611404419,5.3899999999999295
1.6141018867492676,2.2781763076782227,2.2835781574249268,5.399999999999929
1.8669557571411133,2.426311492919922,1.9100141525268555,5.409999999999929
1.953420639038086,2.2737903594970703,2.0478551387786865,5.419999999999929
1.950199842453003,1.9444150924682617,2.366063117980957,5.429999999999929
1.8482415676116943,1.5093927383422852,2.7980027198791504,5.4399999999999284
1.7657103538513184,0.8252067565917969,3.0696380138397217,5.449999999999928
1.5353903770446777,0.3217315673828125,2.795130968093872,5.459999999999928
1.0194063186645508,0.6456136703491211,1.0271310806274414,5.469999999999928
0.6081369519233704,0.7606744766235352,0.294025182723999,5.479999999999928
0.16433531045913696,1.1218347549438477,-0.07068562507629395,5.489999999999927
-0.6164875030517578,1.4690189361572266,0.4645414352416992,5.499999999999927
-1.3409109115600586,2.150393486022949,-0.3747267723083496,5.509999999999927
-2.8811779022216797,2.612701416015625,-1.481405258178711,5.519999999999927
-6.1210198402404785,3.21431827545166,-2.282651424407959,5.5299999999999265
-8.444907188415527,4.051939010620117,-2.3018951416015625,5.539999999999926
-10.374519348144531,5.244870185852051,-0.7139675617218018,5.549999999999926
-11.405444145202637,5.705852508544922,1.6278085708618164,5.559999999999926
-6.170747756958008,3.1724586486816406,-0.014580726623535156,5.569999999999926
-3.4430136680603027,0.7244167327880859,-1.9979689121246338,5.5799999999999255
-1.7343627214431763,-0.31499385833740234,-2.8772788047790527,5.589999999999925
-1.4238330125808716,-0.053017616271972656,-3.0391530990600586,5.599999999999925
-0.9644769430160522,0.3320951461791992,-3.3253533840179443,5.609999999999925
-0.2247633934020996,0.6989755630493164,-3.8024425506591797,5.619999999999925
0.4910784959793091,1.1425304412841797,-3.806436538696289,5.629999999999924
1.2424407005310059,1.5246057510375977,-4.4016432762146,5.639999999999924
1.9680445194244385,1.6095714569091797,-4.100891590118408,5.649999999999924
1.8211607933044434,1.5441131591796875,-3.525029182434082,5.659999999999924
1.8243547677993774,1.295912742614746,-3.1439614295959473,5.6699999999999235
1.4479931592941284,0.8536148071289062,-2.195761203765869,5.679999999999923
0.23360517621040344,0.3497314453125,-2.0984411239624023,5.689999999999923
-0.7331816554069519,-0.22467708587646484,-1.9530911445617676,5.699999999999923
-1.384753942489624,-0.7317113876342773,-1.6758346557617188,5.709999999999923
-1.8287044763565063,-0.9384288787841797,-1.549358606338501,5.7199999999999225
-2.2366931438446045,-0.9726066589355469,-1.9890320301055908,5.729999999999922
-2.4967730045318604,-0.8774662017822266,-2.118220329284668,5.739999999999922
-2.326085090637207,-0.938502311706543,-2.4409995079040527,5.749999999999922
-2.3359079360961914,-0.9647159576416016,-2.376486301422119,5.759999999999922
-1.5829201936721802,-1.1160249710083008,-2.461782932281494,5.769999999999921
-1.0882940292358398,-0.9630260467529297,-2.4736382961273193,5.779999999999921
-0.5938153266906738,-0.6006240844726562,-2.486187219619751,5.789999999999921
-0.1325218677520752,-0.12894821166992188,-2.5273396968841553,5.799999999999921
-0.126510351896286,-0.15105915069580078,-2.4644083976745605,5.809999999999921
0.5287723541259766,0.8705196380615234,-2.574331283569336,5.81999999999992
0.9719936847686768,1.010756492614746,-2.131701946258545,5.82999999999992
1.1469382047653198,0.8825283050537109,-1.828427791595459,5.83999999999992
0.7297765612602234,0.5542612075805664,-1.5034728050231934,5.84999999999992
0.15897011756896973,-0.04866981506347656,-1.275309443473816,5.8599999999999195
0.02509009838104248,-0.4932689666748047,-1.2507083415985107,5.869999999999919
-0.1699497103691101,-0.8469581604003906,-0.8202307224273682,5.879999999999919
-0.1686609387397766,-0.9128789901733398,-0.49498677253723145,5.889999999999919
-0.0899701714515686,-0.7383146286010742,-0.26706719398498535,5.899999999999919
-0.04276680946350098,-0.3421907424926758,-0.15614676475524902,5.909999999999918
0.21319282054901123,0.13910484313964844,0.0388641357421875,5.919999999999918
0.4907459616661072,0.636164665222168,0.08337974548339844,5.929999999999918
0.4886741042137146,0.9067697525024414,-0.10777854919433594,5.939999999999918
0.48884305357933044,1.0605182647705078,0.07249283790588379,5.949999999999918
0.584712028503418,1.1071252822875977,0.20814037322998047,5.959999999999917
0.9209032654762268,0.917170524597168,-0.032195329666137695,5.969999999999917
1.2726529836654663,0.6052112579345703,-0.6146719455718994,5.979999999999917
1.5365005731582642,0.31255054473876953,-1.2471364736557007,5.989999999999917
1.2036077976226807,-0.08030223846435547,-1.3666819334030151,5.9999999999999165
0.9567001461982727,-0.7194986343383789,-1.9083009958267212,6.009999999999916
1.2671220302581787,-0.5562458038330078,-0.9148455858230591,6.019999999999916
1.2662526369094849,-0.08501720428466797,-0.308596134185791,6.029999999999916
1.3868699073791504,-0.02569580078125,-0.701664924621582,6.039999999999916
0.8967442512512207,0.05764198303222656,-0.5181370973587036,6.0499999999999154
0.45942723751068115,-0.11464309692382812,-0.5511763095855713,6.059999999999915
-0.05041706562042236,-0.3426246643066406,-0.5518894195556641,6.069999999999915
-0.2913457155227661,-0.38341808319091797,-0.5427411794662476,6.079999999999915
-0.42491376399993896,-0.5078639984130859,-0.24501442909240723,6.089999999999915
-0.6591887474060059,-0.5075349807739258,-0.2469007968902588,6.099999999999914
-0.9244052171707153,-0.3493537902832031,-1.1320457458496094,6.109999999999914
-1.2681450843811035,-0.23977279663085938,-1.9909543991088867,6.119999999999914
-2.051431179046631,0.13560867309570312,-2.6729576587677,6.129999999999914
-2.881434917449951,0.4020242691040039,-2.4800660610198975,6.1399999999999135
-3.5571632385253906,0.6529541015625,-1.4743757247924805,6.149999999999913
-3.314316749572754,0.8976469039916992,-0.4317643642425537,6.159999999999913
-2.745056629180908,1.6598739624023438,-0.10452651977539062,6.169999999999913
-2.2592933177948,2.6841278076171875,-0.5726833343505859,6.179999999999913
-1.7216789722442627,3.9740095138549805,-0.626805305480957,6.1899999999999125
-1.6196949481964111,4.223627090454102,0.026514291763305664,6.199999999999912
-1.3799594640731812,3.8969411849975586,0.5458602905273438,6.209999999999912
-1.3731393814086914,2.876542091369629,1.2209110260009766,6.219999999999912
-1.53411865234375,1.6025800704956055,1.725785732269287,6.229999999999912
-1.5396350622177124,1.6234760284423828,1.662891149520874,6.239999999999911
-2.01413893699646,-0.5568227767944336,1.19189453125,6.249999999999911
-2.015153646469116,-1.0508575439453125,0.5543508529663086,6.259999999999911
-1.9488368034362793,-1.263117790222168,0.29434752464294434,6.269999999999911
-1.8657286167144775,-0.9997243881225586,0.11456513404846191,6.2799999999999105
-1.7915114164352417,-0.45647335052490234,0.18248510360717773,6.28999999999991
-1.746756911277771,-0.41983699798583984,0.2825357913970947,6.29999999999991
-1.4382038116455078,-0.4938087463378906,0.35918569564819336,6.30999999999991
-1.170279860496521,-0.5592727661132812,-0.24293255805969238,6.31999999999991
-1.053689956665039,-0.6163883209228516,-0.9498443603515625,6.3299999999999095
-0.6461972594261169,-0.9341411590576172,-1.0384232997894287,6.339999999999909
-0.5705409049987793,-1.2827215194702148,-0.8635334968566895,6.349999999999909
-0.5799229145050049,-1.5272293090820312,-0.49350905418395996,6.359999999999909
-0.4611988067626953,-1.621727466583252,-0.39870405197143555,6.369999999999909
-0.4788219928741455,-1.5291213989257812,-0.07921147346496582,6.379999999999908
-0.5504000186920166,-1.4910764694213867,0.1048893928527832,6.389999999999908
-0.5419899225234985,-1.5028018951416016,0.13917899131774902,6.399999999999908
-0.38446104526519775,-1.3025808334350586,0.16384267807006836,6.409999999999908
-0.25418293476104736,-0.886749267578125,-0.45934200286865234,6.419999999999908
-0.8523485660552979,-1.0681276321411133,-0.8004608154296875,6.429999999999907
-1.196976661682129,-1.4600028991699219,-0.5179667472839355,6.439999999999907
-1.1992480754852295,-1.4781246185302734,-0.46587085723876953,6.449999999999907
-0.8381067514419556,-1.4969673156738281,-0.4397246837615967,6.459999999999907
-0.4505499601364136,-1.4274439811706543,0.05723071098327637,6.4699999999999065
-0.04111075401306152,-0.9701471328735352,0.9105138778686523,6.479999999999906
0.701636791229248,0.07563304901123047,1.6436593532562256,6.489999999999906
0.8654735684394836,1.2590265274047852,1.9222123622894287,6.499999999999906
0.5277889966964722,2.380411148071289,1.0741498470306396,6.509999999999906
0.5231820344924927,2.3868160247802734,1.0524463653564453,6.519999999999905
-0.4266563653945923,1.8468027114868164,-0.9692163467407227,6.529999999999905
-0.44752204418182373,1.8552207946777344,-1.0020523071289062,6.539999999999905
-1.7374470233917236,-1.6958484649658203,0.2977020740509033,6.549999999999905
-1.7587429285049438,-1.684981346130371,0.25855159759521484,6.559999999999905
-2.125709295272827,-2.305281639099121,0.10972476005554199,6.569999999999904
-1.8110013008117676,-1.6806998252868652,-0.264798641204834,6.579999999999904
-1.3321330547332764,-0.7246646881103516,-0.5506410598754883,6.589999999999904
-0.8214821815490723,0.5739316940307617,-0.18086743354797363,6.599999999999904
-0.8313325643539429,0.5631341934204102,-0.15172600746154785,6.6099999999999035
0.13638955354690552,2.0286474227905273,-0.012140274047851562,6.619999999999903
0.414722740650177,2.170454978942871,0.12168717384338379,6.629999999999903
0.24133330583572388,1.6647958755493164,0.18147730827331543,6.639999999999903
0.24479049444198608,1.6650819778442383,0.18160295486450195,6.649999999999903
-0.5894775986671448,0.15775585174560547,-0.29573607444763184,6.659999999999902
-1.0314176082611084,-0.5052423477172852,-0.031792640686035156,6.669999999999902
-0.7763451933860779,-0.7694835662841797,0.23540830612182617,6.679999999999902
-1.0070173740386963,-0.7925539016723633,-0.13563251495361328,6.689999999999902
-0.8315887451171875,-0.5185050964355469,-0.2946333885192871,6.699999999999902
-0.9666805863380432,-0.2926063537597656,-0.615288257598877,6.709999999999901
-0.5092270970344543,0.15369129180908203,-0.3015005588531494,6.719999999999901
0.15456193685531616,0.4567699432373047,-0.7376177310943604,6.729999999999901
0.5290957689285278,0.6345624923706055,-1.1501103639602661,6.739999999999901
1.1007200479507446,0.6791191101074219,-1.3329310417175293,6.7499999999999005
1.546223521232605,0.48267459869384766,-1.0657732486724854,6.7599999999999
1.7901338338851929,0.33200550079345703,-0.9404318332672119,6.7699999999999
1.7132424116134644,0.4127693176269531,-0.8124516010284424,6.7799999999999
1.5496180057525635,0.4849691390991211,-0.18001794815063477,6.7899999999999
1.496796727180481,0.35262393951416016,0.3857250213623047,6.7999999999998995
1.3816757202148438,0.20212745666503906,0.6586012840270996,6.809999999999899
1.1406700611114502,0.14329051971435547,0.7263727188110352,6.819999999999899
0.8362809419631958,0.15244293212890625,0.7567708492279053,6.829999999999899
0.5357947945594788,0.2713499069213867,0.6310105323791504,6.839999999999899
0.3436530828475952,0.3302793502807617,0.22559690475463867,6.849999999999898
0.1455676555633545,0.1519632339477539,0.06472492218017578,6.859999999999898
-0.05139172077178955,-0.007283210754394531,-0.1823573112487793,6.869999999999898
-0.2514439821243286,-0.21187496185302734,-0.3366079330444336,6.879999999999898
-0.5247325897216797,-0.20743751525878906,-0.18134737014770508,6.8899999999998975
-0.7431702017784119,-0.23094844818115234,0.06554961204528809,6.899999999999897
-0.9312247633934021,-0.37155628204345703,0.21404719352722168,6.909999999999897
-0.8771352767944336,-0.507781982421875,0.3541908264160156,6.919999999999897
-0.8717240691184998,-0.505497932434082,0.3491086959838867,6.929999999999897
-0.7088760733604431,-0.38356971740722656,0.521263837814331,6.9399999999998965
-0.7030476927757263,-0.38112831115722656,0.515883207321167,6.949999999999896
-0.49232184886932373,-0.19707489013671875,0.38245177268981934,6.959999999999896
0.15405571460723877,-0.07319259643554688,-0.18053245544433594,6.969999999999896
0.3477975130081177,-0.16248512268066406,-0.3453488349914551,6.979999999999896
0.47299790382385254,-0.2638883590698242,-0.4850790500640869,6.989999999999895
0.4222426116466522,-0.2671394348144531,-0.5568175315856934,6.999999999999895
0.23870044946670532,-0.24883174896240234,-0.27142786979675293,7.009999999999895
0.014134109020233154,-0.22104454040527344,0.14057374000549316,7.019999999999895
-0.25944775342941284,-0.22278881072998047,0.5342092514038086,7.0299999999998946
-0.4105296730995178,-0.21381187438964844,0.40526628494262695,7.039999999999894
-0.5690328478813171,-0.11762619018554688,0.4583923816680908,7.049999999999894
-0.5280177593231201,-0.002407073974609375,0.614393949508667,7.059999999999894
-0.437394917011261,0.05359935760498047,0.635035514831543,7.069999999999894
-0.34108853340148926,-0.0018367767333984375,0.4595654010772705,7.0799999999998935
-0.20166712999343872,-0.18527698516845703,-0.4801652431488037,7.089999999999893
0.12111717462539673,-0.26230812072753906,-0.5772290229797363,7.099999999999893
0.5285742282867432,-0.1575794219970703,1.1354644298553467,7.109999999999893
0.5452876091003418,-0.15217304229736328,1.12514328956604,7.119999999999893
0.22346627712249756,0.32024574279785156,0.023049116134643555,7.129999999999892
0.027504324913024902,0.0494842529296875,0.37189507484436035,7.139999999999892
0.0428621768951416,0.05133819580078125,0.3710498809814453,7.149999999999892
-0.16997528076171875,-0.16807270050048828,0.060158491134643555,7.159999999999892
-0.46376776695251465,-0.33074283599853516,-0.08716011047363281,7.169999999999892
-0.709467887878418,-0.3425159454345703,-0.15618443489074707,7.179999999999891
-0.6989741921424866,-0.24382400512695312,0.006133079528808594,7.189999999999891
-0.7373088002204895,-0.30774593353271484,0.04620075225830078,7.199999999999891
-0.7701956033706665,-0.44833946228027344,0.08971619606018066,7.209999999999891
-0.7174688577651978,-0.5125923156738281,-0.07312250137329102,7.2199999999998905
-0.7016783952713013,-0.5127468109130859,-0.06815958023071289,7.22999999999989
0.4218001365661621,-0.0967264175415039,0.37496232986450195,7.23999999999989
0.33304500579833984,0.4336528778076172,-0.37372732162475586,7.24999999999989
0.275498628616333,0.6430721282958984,-0.3764925003051758,7.25999999999989
0.22153139114379883,0.5472536087036133,0.07692861557006836,7.269999999999889
0.14554286003112793,0.4981088638305664,0.2239549160003662,7.279999999999889
0.036721229553222656,0.2554473876953125,0.0469365119934082,7.289999999999889
-0.14022886753082275,-0.07564353942871094,0.47090697288513184,7.299999999999889
-0.475810170173645,-0.2507133483886719,0.4666304588317871,7.309999999999889
-0.6747840642929077,-0.38765621185302734,0.09583425521850586,7.319999999999888
-0.7957804203033447,-0.48204994201660156,-0.03203916549682617,7.329999999999888
-0.8249833583831787,-0.43764305114746094,-0.11636185646057129,7.339999999999888
-0.7428858280181885,-0.3119535446166992,-0.32204461097717285,7.349999999999888
-0.6380443572998047,-0.2151508331298828,-0.29465699195861816,7.3599999999998875
-0.45041990280151367,0.06803131103515625,0.29528045654296875,7.369999999999887
-0.33114898204803467,0.40607643127441406,0.5885372161865234,7.379999999999887
-0.5103607177734375,0.8703603744506836,0.4825005531311035,7.389999999999887
-0.5590187311172485,0.8790273666381836,0.3230290412902832,7.399999999999887
-1.0299384593963623,0.7246599197387695,0.20533490180969238,7.4099999999998865
-1.406422734260559,0.7094383239746094,0.05028796195983887,7.419999999999886
-1.2763622999191284,0.6392765045166016,0.13920879364013672,7.429999999999886
-1.1346455812454224,0.3388175964355469,0.09976840019226074,7.439999999999886
-0.2163180112838745,-0.01570606231689453,0.02380847930908203,7.449999999999886
0.6302812099456787,-0.13937091827392578,-0.13791298866271973,7.459999999999885
0.7445019483566284,-0.02692699432373047,-0.38872361183166504,7.469999999999885
0.6934100985527039,-0.03183269500732422,-0.3905301094055176,7.479999999999885
1.8103563785552979,0.0568695068359375,-0.2610504627227783,7.489999999999885
1.7753684520721436,0.052720069885253906,-0.2592134475708008,7.4999999999998845
0.6314427256584167,-0.03944110870361328,-0.06231403350830078,7.509999999999884
-0.3275899291038513,0.02728557586669922,0.18105697631835938,7.519999999999884
-1.4201064109802246,0.18267059326171875,0.5017974376678467,7.529999999999884
-1.460301160812378,0.17894840240478516,0.5024545192718506,7.539999999999884
-7.447856426239014,0.9923181533813477,0.8303329944610596,7.5499999999998835
-8.02347183227539,0.4429502487182617,-0.5243525505065918,7.559999999999883
-6.407730579376221,-0.26969337463378906,-1.0430831909179688,7.569999999999883
-1.9689399003982544,-1.1441841125488281,0.7178332805633545,7.579999999999883
1.5323543548583984,0.7087936401367188,-1.2784154415130615,7.589999999999883
4.386067867279053,0.27330493927001953,-1.3743219375610352,7.599999999999882
8.145359992980957,-0.9223728179931641,0.5103862285614014,7.609999999999882
8.776586532592773,-1.0863513946533203,-0.021810054779052734,7.619999999999882
5.409820556640625,-0.7581462860107422,-0.28150510787963867,7.629999999999882
1.3020565509796143,0.40483760833740234,0.4548065662384033,7.6399999999998816
-0.09116941690444946,0.8662862777709961,0.6526944637298584,7.649999999999881
-0.7647561430931091,0.4261312484741211,0.2600109577178955,7.659999999999881
-1.76417076587677,-0.2794179916381836,0.3744959831237793,7.669999999999881
-2.529289722442627,0.3736429214477539,0.7890012264251709,7.679999999999881
-1.323289155960083,0.8114709854125977,-0.41393256187438965,7.6899999999998805
-0.2437317967414856,0.34998130798339844,-0.6618790626525879,7.69999999999988
-0.3470332622528076,1.0934333801269531,-1.1344175338745117,7.70999999999988
-0.1538829803466797,-0.3458242416381836,-1.3355261087417603,7.71999999999988
1.904242992401123,-1.8445396423339844,-1.1725237369537354,7.72999999999988
2.523756980895996,-1.8040947914123535,-0.24224591255187988,7.739999999999879
0.8234416246414185,-1.7844996452331543,-0.25374531745910645,7.749999999999879
-0.12392091751098633,-0.5799245834350586,-0.038758277893066406,7.759999999999879
0.9177992343902588,0.19119739532470703,-0.5349538326263428,7.769999999999879
1.2099119424819946,0.07493019104003906,-0.8477189540863037,7.779999999999879
0.8717938661575317,-0.5407114028930664,-0.20357847213745117,7.789999999999878
0.4810880422592163,-0.5878515243530273,0.3310363292694092,7.799999999999878
0.7658721208572388,-1.0730247497558594,0.5279109477996826,7.809999999999878
0.8289693593978882,-1.3724288940429688,0.3600163459777832,7.819999999999878
0.15352272987365723,-1.1837759017944336,-0.16097760200500488,7.8299999999998775
0.1304640769958496,-1.0019474029541016,-0.4898495674133301,7.839999999999877
0.7377864122390747,-0.5893030166625977,-0.5953347682952881,7.849999999999877
-0.12711632251739502,0.22012805938720703,0.11520123481750488,7.859999999999877
-0.09448409080505371,0.21825504302978516,0.10762596130371094,7.869999999999877
-2.378801107406616,0.962742805480957,0.2271435260772705,7.879999999999876
-1.982877492904663,0.76385498046875,0.019730329513549805,7.889999999999876
-1.1811119318008423,0.39165592193603516,-0.1748816967010498,7.899999999999876
-0.17373138666152954,0.1142282485961914,-0.11049246788024902,7.909999999999876
0.22051489353179932,-0.03810405731201172,0.11190915107727051,7.919999999999876
0.2593652009963989,-0.1451091766357422,0.30805349349975586,7.929999999999875
1.1023026704788208,-0.3078584671020508,0.6220111846923828,7.939999999999875
1.7394781112670898,-0.37757205963134766,0.5842037200927734,7.949999999999875
2.0699615478515625,-0.4079265594482422,0.2153153419494629,7.959999999999875
0.7850912809371948,-0.2987661361694336,-0.11246657371520996,7.9699999999998745
0.8445278406143188,-0.3040943145751953,-0.11536836624145508,7.979999999999874
-3.0373616218566895,0.11626434326171875,0.14678692817687988,7.989999999999874
-2.942417621612549,0.1160573959350586,-0.17355823516845703,7.999999999999874
